[{"view_history":"[{\"page_index\":0,\"viewing_time\":140937},{\"page_index\":1,\"viewing_time\":23971}]","rt":164909,"trial_type":"instructions","trial_index":0,"time_elapsed":164910,"internal_node_id":"0.0-0.0"},{"view_history":"[{\"page_index\":0,\"viewing_time\":1227},{\"page_index\":1,\"viewing_time\":2294}]","rt":3522,"trial_type":"instructions","trial_index":1,"time_elapsed":169434,"internal_node_id":"0.0-1.0"},{"group":"hexagon_bi","room_assignment":["yellow","red","blue","grey","green","purple"],"door_color_assignment":["white","black"],"door_generator_assignment":[0,1],"goal":2,"start":1,"action_noise":0.15,"location_history":"[1,0,1,0,5,0,1,0,1,2]","action_history":"[0,1,1,0,0,1,1,0,0]","door_history":"[0,1,1,0,0,1,1,0,0]","location_rts":"[2162,1561,1688,1303,1467,1244,1778,1093,792]","trial_type":"two-door-navigation","trial_index":2,"time_elapsed":196829,"internal_node_id":"0.0-2.0-0.0"},{"group":"hexagon_bi","room_assignment":["yellow","red","blue","grey","green","purple"],"door_color_assignment":["white","black"],"door_generator_assignment":[0,1],"goal":0,"start":2,"action_noise":0.15,"location_history":"[2,1,0]","action_history":"[0,1]","door_history":"[0,1]","location_rts":"[2950,856]","trial_type":"two-door-navigation","trial_index":3,"time_elapsed":206338,"internal_node_id":"0.0-2.0-1.0"},{"group":"hexagon_bi","room_assignment":["yellow","red","blue","grey","green","purple"],"door_color_assignment":["white","black"],"door_generator_assignment":[0,1],"goal":5,"start":0,"action_noise":0.15,"location_history":"[0,5]","action_history":"[0]","door_history":"[0]","location_rts":"[1666]","trial_type":"two-door-navigation","trial_index":4,"time_elapsed":212590,"internal_node_id":"0.0-2.0-2.0"},{"group":"hexagon_bi","room_assignment":["yellow","red","blue","grey","green","purple"],"door_color_assignment":["white","black"],"door_generator_assignment":[0,1],"goal":1,"start":5,"action_noise":0.15,"location_history":"[5,0,1]","action_history":"[0,1]","door_history":"[0,1]","location_rts":"[1556,360]","trial_type":"two-door-navigation","trial_index":5,"time_elapsed":220186,"internal_node_id":"0.0-2.0-3.0"},{"group":"hexagon_bi","room_assignment":["yellow","red","blue","grey","green","purple"],"door_color_assignment":["white","black"],"door_generator_assignment":[0,1],"goal":3,"start":1,"action_noise":0.15,"location_history":"[1,0,1,0,5,0,1,0,1,2,3]","action_history":"[1,0,1,0,0,0,1,1,0,1]","door_history":"[1,0,1,0,0,0,1,1,0,1]","location_rts":"[2446,848,1574,918,1532,844,265,1128,1362,855]","trial_type":"two-door-navigation","trial_index":6,"time_elapsed":246487,"internal_node_id":"0.0-2.0-4.0"},{"group":"hexagon_bi","room_assignment":["yellow","red","blue","grey","green","purple"],"door_color_assignment":["white","black"],"door_generator_assignment":[0,1],"goal":5,"start":3,"action_noise":0.15,"location_history":"[3,2,3,2,1,0,1,2,3,4,5]","action_history":"[1,0,1,0,1,0,0,1,0,1]","door_history":"[1,0,1,0,1,0,0,1,0,1]","location_rts":"[1311,730,1200,722,1369,883,1193,1199,1293,1232]","trial_type":"two-door-navigation","trial_index":7,"time_elapsed":272260,"internal_node_id":"0.0-2.0-5.0"},{"group":"hexagon_bi","room_assignment":["yellow","red","blue","grey","green","purple"],"door_color_assignment":["white","black"],"door_generator_assignment":[0,1],"goal":4,"start":5,"action_noise":0.15,"location_history":"[5,4]","action_history":"[1]","door_history":"[1]","location_rts":"[1130]","trial_type":"two-door-navigation","trial_index":8,"time_elapsed":278066,"internal_node_id":"0.0-2.0-6.0"},{"group":"hexagon_bi","room_assignment":["yellow","red","blue","grey","green","purple"],"door_color_assignment":["white","black"],"door_generator_assignment":[0,1],"goal":0,"start":4,"action_noise":0.15,"location_history":"[4,3,2,3,2,1,0]","action_history":"[0,1,1,1,0,1]","door_history":"[0,1,1,1,0,1]","location_rts":"[1304,1908,956,397,262,919]","trial_type":"two-door-navigation","trial_index":9,"time_elapsed":293997,"internal_node_id":"0.0-2.0-7.0"},{"group":"hexagon_bi","room_assignment":["yellow","red","blue","grey","green","purple"],"door_color_assignment":["white","black"],"door_generator_assignment":[0,1],"goal":2,"start":0,"action_noise":0.15,"location_history":"[0,1,0,5,4,3,2]","action_history":"[0,1,0,0,0,1]","door_history":"[0,1,0,0,0,1]","location_rts":"[1832,973,1867,1172,1566,2033]","trial_type":"two-door-navigation","trial_index":10,"time_elapsed":313686,"internal_node_id":"0.0-2.0-8.0"},{"group":"hexagon_bi","room_assignment":["yellow","red","blue","grey","green","purple"],"door_color_assignment":["white","black"],"door_generator_assignment":[0,1],"goal":4,"start":2,"action_noise":0.15,"location_history":"[2,1,0,5,4]","action_history":"[0,1,0,1]","door_history":"[0,1,0,1]","location_rts":"[1727,914,2522,711]","trial_type":"two-door-navigation","trial_index":11,"time_elapsed":327295,"internal_node_id":"0.0-2.0-9.0"},{"group":"hexagon_bi","room_assignment":["yellow","red","blue","grey","green","purple"],"door_color_assignment":["white","black"],"door_generator_assignment":[0,1],"goal":2,"start":4,"action_noise":0.15,"location_history":"[4,5,4,3,4,3,2]","action_history":"[0,1,0,1,1,1]","door_history":"[0,1,0,1,1,1]","location_rts":"[1146,2675,241,1526,1705,484]","trial_type":"two-door-navigation","trial_index":12,"time_elapsed":345603,"internal_node_id":"0.0-2.0-10.0"},{"group":"hexagon_bi","room_assignment":["yellow","red","blue","grey","green","purple"],"door_color_assignment":["white","black"],"door_generator_assignment":[0,1],"goal":3,"start":2,"action_noise":0.15,"location_history":"[2,3]","action_history":"[1]","door_history":"[1]","location_rts":"[1282]","trial_type":"two-door-navigation","trial_index":13,"time_elapsed":351422,"internal_node_id":"0.0-2.0-11.0"},{"group":"hexagon_bi","room_assignment":["yellow","red","blue","grey","green","purple"],"door_color_assignment":["white","black"],"door_generator_assignment":[0,1],"goal":0,"start":3,"action_noise":0.15,"location_history":"[3,2,3,2,3,4,3,4,5,0]","action_history":"[1,0,1,1,0,0,0,1,0]","door_history":"[1,0,1,1,0,0,0,1,0]","location_rts":"[1254,771,902,1002,643,1269,677,795,546]","trial_type":"two-door-navigation","trial_index":14,"time_elapsed":372736,"internal_node_id":"0.0-2.0-12.0"},{"group":"hexagon_bi","room_assignment":["yellow","red","blue","grey","green","purple"],"door_color_assignment":["white","black"],"door_generator_assignment":[0,1],"goal":5,"start":0,"action_noise":0.15,"location_history":"[0,1,0,5]","action_history":"[1,0,1]","door_history":"[1,0,1]","location_rts":"[980,523,1605]","trial_type":"two-door-navigation","trial_index":15,"time_elapsed":382468,"internal_node_id":"0.0-2.0-13.0"},{"group":"hexagon_bi","room_assignment":["yellow","red","blue","grey","green","purple"],"door_color_assignment":["white","black"],"door_generator_assignment":[0,1],"goal":1,"start":5,"action_noise":0.15,"location_history":"[5,0,1]","action_history":"[0,1]","door_history":"[0,1]","location_rts":"[1546,1113]","trial_type":"two-door-navigation","trial_index":16,"time_elapsed":391143,"internal_node_id":"0.0-2.0-14.0"},{"group":"hexagon_bi","room_assignment":["yellow","red","blue","grey","green","purple"],"door_color_assignment":["white","black"],"door_generator_assignment":[0,1],"goal":5,"start":1,"action_noise":0.15,"location_history":"[1,2,3,4,5]","action_history":"[0,1,0,1]","door_history":"[0,1,0,1]","location_rts":"[1962,796,866,655]","trial_type":"two-door-navigation","trial_index":17,"time_elapsed":403390,"internal_node_id":"0.0-2.0-15.0"},{"group":"hexagon_bi","room_assignment":["yellow","red","blue","grey","green","purple"],"door_color_assignment":["white","black"],"door_generator_assignment":[0,1],"goal":3,"start":5,"action_noise":0.15,"location_history":"[5,0,1,0,5,4,5,0,1,0,5,0,5,0,1,2,3]","action_history":"[0,1,1,0,1,1,0,1,0,1,0,0,0,1,0,1]","door_history":"[0,1,1,0,1,1,0,1,0,1,0,0,0,1,0,1]","location_rts":"[1907,823,888,1030,1128,394,283,1048,840,1001,1530,1410,1194,357,1294,1216]","trial_type":"two-door-navigation","trial_index":18,"time_elapsed":441628,"internal_node_id":"0.0-2.0-16.0"},{"group":"hexagon_bi","room_assignment":["yellow","red","blue","grey","green","purple"],"door_color_assignment":["white","black"],"door_generator_assignment":[0,1],"goal":2,"start":3,"action_noise":0.15,"location_history":"[3,2]","action_history":"[1]","door_history":"[1]","location_rts":"[1845]","trial_type":"two-door-navigation","trial_index":19,"time_elapsed":448275,"internal_node_id":"0.0-2.0-17.0"},{"group":"hexagon_bi","room_assignment":["yellow","red","blue","grey","green","purple"],"door_color_assignment":["white","black"],"door_generator_assignment":[0,1],"goal":1,"start":2,"action_noise":0.15,"location_history":"[2,1]","action_history":"[0]","door_history":"[0]","location_rts":"[2138]","trial_type":"two-door-navigation","trial_index":20,"time_elapsed":455066,"internal_node_id":"0.0-2.0-18.0"},{"group":"hexagon_bi","room_assignment":["yellow","red","blue","grey","green","purple"],"door_color_assignment":["white","black"],"door_generator_assignment":[0,1],"goal":4,"start":1,"action_noise":0.15,"location_history":"[1,2,3,4]","action_history":"[0,1,0]","door_history":"[0,1,0]","location_rts":"[2037,1867,1150]","trial_type":"two-door-navigation","trial_index":21,"time_elapsed":467168,"internal_node_id":"0.0-2.0-19.0"},{"group":"hexagon_bi","room_assignment":["yellow","red","blue","grey","green","purple"],"door_color_assignment":["white","black"],"door_generator_assignment":[0,1],"goal":0,"start":4,"action_noise":0.15,"location_history":"[4,5,0]","action_history":"[1,0]","door_history":"[1,0]","location_rts":"[1911,1794]","trial_type":"two-door-navigation","trial_index":22,"time_elapsed":476550,"internal_node_id":"0.0-2.0-20.0"},{"group":"hexagon_bi","room_assignment":["yellow","red","blue","grey","green","purple"],"door_color_assignment":["white","black"],"door_generator_assignment":[0,1],"goal":3,"start":0,"action_noise":0.15,"location_history":"[0,5,0,1,0,1,2,1,0,1,0,5,4,5,0,1,0,5,4,3]","action_history":"[0,0,1,0,1,0,1,1,1,1,0,0,1,0,0,1,0,1,0]","door_history":"[0,0,1,0,1,0,1,1,1,1,0,0,1,0,0,1,0,1,0]","location_rts":"[1430,1724,338,2841,1875,2959,884,3526,311,387,720,918,467,735,1274,537,855,1569,1218]","trial_type":"two-door-navigation","trial_index":23,"time_elapsed":525939,"internal_node_id":"0.0-2.0-21.0"},{"group":"hexagon_bi","room_assignment":["yellow","red","blue","grey","green","purple"],"door_color_assignment":["white","black"],"door_generator_assignment":[0,1],"goal":1,"start":3,"action_noise":0.15,"location_history":"[3,4,5,0,1]","action_history":"[0,1,0,1]","door_history":"[0,1,0,1]","location_rts":"[1267,2260,343,1018]","trial_type":"two-door-navigation","trial_index":24,"time_elapsed":538629,"internal_node_id":"0.0-2.0-22.0"},{"group":"hexagon_bi","room_assignment":["yellow","red","blue","grey","green","purple"],"door_color_assignment":["white","black"],"door_generator_assignment":[0,1],"goal":0,"start":1,"action_noise":0.15,"location_history":"[1,2,3,4,3,2,3,2,3,4,3,4,3,2,3,4,5,0]","action_history":"[0,1,0,0,1,0,1,1,0,1,0,1,1,1,0,1,0]","door_history":"[0,1,0,0,1,0,1,1,0,1,0,1,1,1,0,1,0]","location_rts":"[2218,625,1004,996,1383,1058,810,474,787,965,354,528,444,1812,925,1229,561]","trial_type":"two-door-navigation","trial_index":25,"time_elapsed":577131,"internal_node_id":"0.0-2.0-23.0"},{"group":"hexagon_bi","room_assignment":["yellow","red","blue","grey","green","purple"],"door_color_assignment":["white","black"],"door_generator_assignment":[0,1],"goal":2,"start":0,"action_noise":0.15,"location_history":"[0,5,0,1,2]","action_history":"[0,0,1,0]","door_history":"[0,0,1,0]","location_rts":"[1684,1270,273,1628]","trial_type":"two-door-navigation","trial_index":26,"time_elapsed":589943,"internal_node_id":"0.0-2.0-24.0"},{"group":"hexagon_bi","room_assignment":["yellow","red","blue","grey","green","purple"],"door_color_assignment":["white","black"],"door_generator_assignment":[0,1],"goal":4,"start":2,"action_noise":0.15,"location_history":"[2,3,4]","action_history":"[1,0]","door_history":"[1,0]","location_rts":"[2459,889]","trial_type":"two-door-navigation","trial_index":27,"time_elapsed":599049,"internal_node_id":"0.0-2.0-25.0"},{"group":"hexagon_bi","room_assignment":["yellow","red","blue","grey","green","purple"],"door_color_assignment":["white","black"],"door_generator_assignment":[0,1],"goal":5,"start":4,"action_noise":0.15,"location_history":"[4,5]","action_history":"[1]","door_history":"[1]","location_rts":"[1461]","trial_type":"two-door-navigation","trial_index":28,"time_elapsed":605098,"internal_node_id":"0.0-2.0-26.0"},{"group":"hexagon_bi","room_assignment":["yellow","red","blue","grey","green","purple"],"door_color_assignment":["white","black"],"door_generator_assignment":[0,1],"goal":2,"start":5,"action_noise":0.15,"location_history":"[5,0,5,0,1,2]","action_history":"[1,0,0,1,0]","door_history":"[1,0,0,1,0]","location_rts":"[1280,1065,1587,892,1014]","trial_type":"two-door-navigation","trial_index":29,"time_elapsed":619873,"internal_node_id":"0.0-2.0-27.0"},{"group":"hexagon_bi","room_assignment":["yellow","red","blue","grey","green","purple"],"door_color_assignment":["white","black"],"door_generator_assignment":[0,1],"goal":3,"start":2,"action_noise":0.15,"location_history":"[2,1,2,3]","action_history":"[0,0,1]","door_history":"[0,0,1]","location_rts":"[7937,587,301]","trial_type":"two-door-navigation","trial_index":30,"time_elapsed":635529,"internal_node_id":"0.0-2.0-28.0"},{"group":"hexagon_bi","room_assignment":["yellow","red","blue","grey","green","purple"],"door_color_assignment":["white","black"],"door_generator_assignment":[0,1],"goal":1,"start":3,"action_noise":0.15,"location_history":"[3,2,1]","action_history":"[1,0]","door_history":"[1,0]","location_rts":"[1525,767]","trial_type":"two-door-navigation","trial_index":31,"time_elapsed":643652,"internal_node_id":"0.0-2.0-29.0"},{"group":"hexagon_bi","room_assignment":["yellow","red","blue","grey","green","purple"],"door_color_assignment":["white","black"],"door_generator_assignment":[0,1],"goal":4,"start":1,"action_noise":0.15,"location_history":"[1,2,1,2,1,0,5,4]","action_history":"[0,1,1,0,1,0,1]","door_history":"[0,1,1,0,1,0,1]","location_rts":"[1880,464,2549,1136,694,3896,1775]","trial_type":"two-door-navigation","trial_index":32,"time_elapsed":667313,"internal_node_id":"0.0-2.0-30.0"},{"group":"hexagon_bi","room_assignment":["yellow","red","blue","grey","green","purple"],"door_color_assignment":["white","black"],"door_generator_assignment":[0,1],"goal":5,"start":4,"action_noise":0.15,"location_history":"[4,5]","action_history":"[1]","door_history":"[1]","location_rts":"[1126]","trial_type":"two-door-navigation","trial_index":33,"time_elapsed":672999,"internal_node_id":"0.0-2.0-31.0"},{"group":"hexagon_bi","room_assignment":["yellow","red","blue","grey","green","purple"],"door_color_assignment":["white","black"],"door_generator_assignment":[0,1],"goal":0,"start":5,"action_noise":0.15,"location_history":"[5,4,5,0]","action_history":"[1,0,0]","door_history":"[1,0,0]","location_rts":"[1456,563,1412]","trial_type":"two-door-navigation","trial_index":34,"time_elapsed":683376,"internal_node_id":"0.0-2.0-32.0"},{"group":"hexagon_bi","room_assignment":["yellow","red","blue","grey","green","purple"],"door_color_assignment":["white","black"],"door_generator_assignment":[0,1],"goal":2,"start":0,"action_noise":0.15,"location_history":"[0,1,2]","action_history":"[1,0]","door_history":"[1,0]","location_rts":"[2186,842]","trial_type":"two-door-navigation","trial_index":35,"time_elapsed":692287,"internal_node_id":"0.0-2.0-33.0"},{"group":"hexagon_bi","room_assignment":["yellow","red","blue","grey","green","purple"],"door_color_assignment":["white","black"],"door_generator_assignment":[0,1],"goal":0,"start":2,"action_noise":0.15,"location_history":"[2,1,2,1,2,3,2,3,4,3,2,1,0]","action_history":"[1,0,0,0,1,0,1,1,0,1,0,1]","door_history":"[1,0,0,0,1,0,1,1,0,1,0,1]","location_rts":"[1805,1033,1259,895,294,1227,1103,1521,1184,1039,1106,1811]","trial_type":"two-door-navigation","trial_index":36,"time_elapsed":723498,"internal_node_id":"0.0-2.0-34.0"},{"group":"hexagon_bi","room_assignment":["yellow","red","blue","grey","green","purple"],"door_color_assignment":["white","black"],"door_generator_assignment":[0,1],"goal":5,"start":0,"action_noise":0.15,"location_history":"[0,1,2,3,4,5]","action_history":"[0,0,1,0,1]","door_history":"[0,0,1,0,1]","location_rts":"[1426,2392,445,1014,656]","trial_type":"two-door-navigation","trial_index":37,"time_elapsed":738581,"internal_node_id":"0.0-2.0-35.0"},{"group":"hexagon_bi","room_assignment":["yellow","red","blue","grey","green","purple"],"door_color_assignment":["white","black"],"door_generator_assignment":[0,1],"goal":1,"start":5,"action_noise":0.15,"location_history":"[5,0,1]","action_history":"[0,1]","door_history":"[0,1]","location_rts":"[1679,707]","trial_type":"two-door-navigation","trial_index":38,"time_elapsed":746874,"internal_node_id":"0.0-2.0-36.0"},{"group":"hexagon_bi","room_assignment":["yellow","red","blue","grey","green","purple"],"door_color_assignment":["white","black"],"door_generator_assignment":[0,1],"goal":4,"start":1,"action_noise":0.15,"location_history":"[1,2,3,4]","action_history":"[0,1,0]","door_history":"[0,1,0]","location_rts":"[2002,1698,1509]","trial_type":"two-door-navigation","trial_index":39,"time_elapsed":758926,"internal_node_id":"0.0-2.0-37.0"},{"group":"hexagon_bi","room_assignment":["yellow","red","blue","grey","green","purple"],"door_color_assignment":["white","black"],"door_generator_assignment":[0,1],"goal":3,"start":4,"action_noise":0.15,"location_history":"[4,5,0,1,0,5,0,1,0,5,0,5,4,5,0,1,0,1,2,3]","action_history":"[1,0,1,1,0,0,1,1,0,0,0,1,0,0,0,1,1,0,1]","door_history":"[1,0,1,1,0,0,1,1,0,0,0,1,0,0,0,1,1,0,1]","location_rts":"[1702,421,1512,1005,331,1400,1382,1470,801,937,1439,521,638,1771,407,405,915,542,1464]","trial_type":"two-door-navigation","trial_index":40,"time_elapsed":803989,"internal_node_id":"0.0-2.0-38.0"},{"group":"hexagon_bi","room_assignment":["yellow","red","blue","grey","green","purple"],"door_color_assignment":["white","black"],"door_generator_assignment":[0,1],"goal":5,"start":3,"action_noise":0.15,"location_history":"[3,4,5]","action_history":"[0,1]","door_history":"[0,1]","location_rts":"[2674,679]","trial_type":"two-door-navigation","trial_index":41,"time_elapsed":812984,"internal_node_id":"0.0-2.0-39.0"},{"group":"hexagon_bi","room_assignment":["yellow","red","blue","grey","green","purple"],"door_color_assignment":["white","black"],"door_generator_assignment":[0,1],"goal":1,"start":5,"action_noise":0.15,"location_history":"[5,4,3,2,1]","action_history":"[0,0,1,0]","door_history":"[0,0,1,0]","location_rts":"[1842,2551,776,882]","trial_type":"two-door-navigation","trial_index":42,"time_elapsed":827175,"internal_node_id":"0.0-2.0-40.0"},{"group":"hexagon_bi","room_assignment":["yellow","red","blue","grey","green","purple"],"door_color_assignment":["white","black"],"door_generator_assignment":[0,1],"goal":2,"start":1,"action_noise":0.15,"location_history":"[1,2]","action_history":"[0]","door_history":"[0]","location_rts":"[1541]","trial_type":"two-door-navigation","trial_index":43,"time_elapsed":833330,"internal_node_id":"0.0-2.0-41.0"},{"group":"hexagon_bi","room_assignment":["yellow","red","blue","grey","green","purple"],"door_color_assignment":["white","black"],"door_generator_assignment":[0,1],"goal":4,"start":2,"action_noise":0.15,"location_history":"[2,3,4]","action_history":"[1,0]","door_history":"[1,0]","location_rts":"[1779,426]","trial_type":"two-door-navigation","trial_index":44,"time_elapsed":841534,"internal_node_id":"0.0-2.0-42.0"},{"group":"hexagon_bi","room_assignment":["yellow","red","blue","grey","green","purple"],"door_color_assignment":["white","black"],"door_generator_assignment":[0,1],"goal":0,"start":4,"action_noise":0.15,"location_history":"[4,3,2,3,4,3,2,1,2,1,2,3,4,3,4,5,4,3,2,1,0]","action_history":"[0,1,1,0,0,1,0,1,0,0,1,1,0,1,0,1,0,1,0,1]","door_history":"[0,1,1,0,0,1,0,1,0,0,1,1,0,1,0,1,0,1,0,1]","location_rts":"[1406,805,1812,809,1111,945,1142,339,1203,385,276,2053,1247,902,1277,2275,816,1714,294,1070]","trial_type":"two-door-navigation","trial_index":45,"time_elapsed":888904,"internal_node_id":"0.0-2.0-43.0"},{"group":"hexagon_bi","room_assignment":["yellow","red","blue","grey","green","purple"],"door_color_assignment":["white","black"],"door_generator_assignment":[0,1],"goal":3,"start":0,"action_noise":0.15,"location_history":"[0,1,0,5,4,3]","action_history":"[1,1,0,0,0]","door_history":"[1,1,0,0,0]","location_rts":"[1485,1178,1631,2399,823]","trial_type":"two-door-navigation","trial_index":46,"time_elapsed":905492,"internal_node_id":"0.0-2.0-44.0"},{"group":"hexagon_bi","room_assignment":["yellow","red","blue","grey","green","purple"],"door_color_assignment":["white","black"],"door_generator_assignment":[0,1],"goal":0,"start":3,"action_noise":0.15,"location_history":"[3,4,3,4,3,2,3,2,3,2,1,2,3,4,3,4,3,4,5,0]","action_history":"[0,0,1,0,1,1,1,0,1,0,1,1,0,0,0,1,0,1,0]","door_history":"[0,0,1,0,1,1,1,0,1,0,1,1,0,0,0,1,0,1,0]","location_rts":"[1802,1237,854,1039,1148,1300,897,711,251,771,638,1407,996,1328,576,487,293,1463,388]","trial_type":"two-door-navigation","trial_index":47,"time_elapsed":947969,"internal_node_id":"0.0-2.0-45.0"},{"group":"hexagon_bi","room_assignment":["yellow","red","blue","grey","green","purple"],"door_color_assignment":["white","black"],"door_generator_assignment":[0,1],"goal":4,"start":0,"action_noise":0.15,"location_history":"[0,1,0,5,4]","action_history":"[1,0,0,1]","door_history":"[1,0,0,1]","location_rts":"[1475,735,1073,1421]","trial_type":"two-door-navigation","trial_index":48,"time_elapsed":960940,"internal_node_id":"0.0-2.0-46.0"},{"group":"hexagon_bi","room_assignment":["yellow","red","blue","grey","green","purple"],"door_color_assignment":["white","black"],"door_generator_assignment":[0,1],"goal":5,"start":4,"action_noise":0.15,"location_history":"[4,5]","action_history":"[1]","door_history":"[1]","location_rts":"[1554]","trial_type":"two-door-navigation","trial_index":49,"time_elapsed":967128,"internal_node_id":"0.0-2.0-47.0"},{"group":"hexagon_bi","room_assignment":["yellow","red","blue","grey","green","purple"],"door_color_assignment":["white","black"],"door_generator_assignment":[0,1],"goal":2,"start":5,"action_noise":0.15,"location_history":"[5,0,1,2]","action_history":"[0,1,0]","door_history":"[0,1,0]","location_rts":"[1998,610,665]","trial_type":"two-door-navigation","trial_index":50,"time_elapsed":977888,"internal_node_id":"0.0-2.0-48.0"},{"group":"hexagon_bi","room_assignment":["yellow","red","blue","grey","green","purple"],"door_color_assignment":["white","black"],"door_generator_assignment":[0,1],"goal":1,"start":2,"action_noise":0.15,"location_history":"[2,1]","action_history":"[0]","door_history":"[0]","location_rts":"[1043]","trial_type":"two-door-navigation","trial_index":51,"time_elapsed":983602,"internal_node_id":"0.0-2.0-49.0"},{"view_history":"[{\"page_index\":0,\"viewing_time\":1650}]","rt":1650,"trial_type":"instructions","trial_index":52,"time_elapsed":986297,"internal_node_id":"0.0-3.0"},{"view_history":"[{\"page_index\":0,\"viewing_time\":2915},{\"page_index\":1,\"viewing_time\":1194}]","rt":4110,"trial_type":"instructions","trial_index":53,"time_elapsed":991409,"internal_node_id":"0.0-4.0"},{"group":"hexagon_bi","fractal_assignment":["../images/ylw_slt.png","../images/pnk_blu.png","../images/org_blu.png","../images/cyn_red.png","../images/blu_wht.png","../images/gry_blk.png"],"mutagen_generator_assignment":[0,1],"goal":2,"start":1,"action_noise":0.15,"location_history":"[1,2]","action_history":"[0]","mutagen_history":"[0]","location_rts":"[2770]","trial_type":"fractal-mutation","trial_index":54,"time_elapsed":998818,"internal_node_id":"0.0-5.0-0.0"},{"group":"hexagon_bi","fractal_assignment":["../images/ylw_slt.png","../images/pnk_blu.png","../images/org_blu.png","../images/cyn_red.png","../images/blu_wht.png","../images/gry_blk.png"],"mutagen_generator_assignment":[0,1],"goal":0,"start":2,"action_noise":0.15,"location_history":"[2,1,0]","action_history":"[1,0]","mutagen_history":"[1,0]","location_rts":"[2094,1775]","trial_type":"fractal-mutation","trial_index":55,"time_elapsed":1008487,"internal_node_id":"0.0-5.0-1.0"},{"group":"hexagon_bi","fractal_assignment":["../images/ylw_slt.png","../images/pnk_blu.png","../images/org_blu.png","../images/cyn_red.png","../images/blu_wht.png","../images/gry_blk.png"],"mutagen_generator_assignment":[0,1],"goal":5,"start":0,"action_noise":0.15,"location_history":"[0,1,2,3,4,5]","action_history":"[1,0,1,0,1]","mutagen_history":"[1,0,1,0,1]","location_rts":"[1700,1448,492,1119,1227]","trial_type":"fractal-mutation","trial_index":56,"time_elapsed":1023905,"internal_node_id":"0.0-5.0-2.0"},{"group":"hexagon_bi","fractal_assignment":["../images/ylw_slt.png","../images/pnk_blu.png","../images/org_blu.png","../images/cyn_red.png","../images/blu_wht.png","../images/gry_blk.png"],"mutagen_generator_assignment":[0,1],"goal":1,"start":5,"action_noise":0.15,"location_history":"[5,4,3,2,1]","action_history":"[1,0,1,0]","mutagen_history":"[1,0,1,0]","location_rts":"[2001,1097,1547,313]","trial_type":"fractal-mutation","trial_index":57,"time_elapsed":1038442,"internal_node_id":"0.0-5.0-3.0"},{"group":"hexagon_bi","fractal_assignment":["../images/ylw_slt.png","../images/pnk_blu.png","../images/org_blu.png","../images/cyn_red.png","../images/blu_wht.png","../images/gry_blk.png"],"mutagen_generator_assignment":[0,1],"goal":3,"start":1,"action_noise":0.15,"location_history":"[1,2,3]","action_history":"[0,1]","mutagen_history":"[0,1]","location_rts":"[2091,356]","trial_type":"fractal-mutation","trial_index":58,"time_elapsed":1047600,"internal_node_id":"0.0-5.0-4.0"},{"group":"hexagon_bi","fractal_assignment":["../images/ylw_slt.png","../images/pnk_blu.png","../images/org_blu.png","../images/cyn_red.png","../images/blu_wht.png","../images/gry_blk.png"],"mutagen_generator_assignment":[0,1],"goal":5,"start":3,"action_noise":0.15,"location_history":"[3,4,5]","action_history":"[0,1]","mutagen_history":"[0,1]","location_rts":"[2886,319]","trial_type":"fractal-mutation","trial_index":59,"time_elapsed":1057169,"internal_node_id":"0.0-5.0-5.0"},{"group":"hexagon_bi","fractal_assignment":["../images/ylw_slt.png","../images/pnk_blu.png","../images/org_blu.png","../images/cyn_red.png","../images/blu_wht.png","../images/gry_blk.png"],"mutagen_generator_assignment":[0,1],"goal":4,"start":5,"action_noise":0.15,"location_history":"[5,4]","action_history":"[1]","mutagen_history":"[1]","location_rts":"[4025]","trial_type":"fractal-mutation","trial_index":60,"time_elapsed":1065873,"internal_node_id":"0.0-5.0-6.0"},{"group":"hexagon_bi","fractal_assignment":["../images/ylw_slt.png","../images/pnk_blu.png","../images/org_blu.png","../images/cyn_red.png","../images/blu_wht.png","../images/gry_blk.png"],"mutagen_generator_assignment":[0,1],"goal":0,"start":4,"action_noise":0.15,"location_history":"[4,5,0]","action_history":"[1,0]","mutagen_history":"[1,0]","location_rts":"[1788,1056]","trial_type":"fractal-mutation","trial_index":61,"time_elapsed":1074589,"internal_node_id":"0.0-5.0-7.0"},{"group":"hexagon_bi","fractal_assignment":["../images/ylw_slt.png","../images/pnk_blu.png","../images/org_blu.png","../images/cyn_red.png","../images/blu_wht.png","../images/gry_blk.png"],"mutagen_generator_assignment":[0,1],"goal":2,"start":0,"action_noise":0.15,"location_history":"[0,1,2]","action_history":"[1,0]","mutagen_history":"[1,0]","location_rts":"[1471,1023]","trial_type":"fractal-mutation","trial_index":62,"time_elapsed":1083167,"internal_node_id":"0.0-5.0-8.0"},{"group":"hexagon_bi","fractal_assignment":["../images/ylw_slt.png","../images/pnk_blu.png","../images/org_blu.png","../images/cyn_red.png","../images/blu_wht.png","../images/gry_blk.png"],"mutagen_generator_assignment":[0,1],"goal":4,"start":2,"action_noise":0.15,"location_history":"[2,1,0,1,0,5,0,5,4]","action_history":"[0,1,0,1,0,1,0,1]","mutagen_history":"[0,1,0,1,0,1,0,1]","location_rts":"[9052,846,1560,927,1491,865,997,936]","trial_type":"fractal-mutation","trial_index":63,"time_elapsed":1113696,"internal_node_id":"0.0-5.0-9.0"},{"group":"hexagon_bi","fractal_assignment":["../images/ylw_slt.png","../images/pnk_blu.png","../images/org_blu.png","../images/cyn_red.png","../images/blu_wht.png","../images/gry_blk.png"],"mutagen_generator_assignment":[0,1],"goal":2,"start":4,"action_noise":0.15,"location_history":"[4,5,0,5,0,1,2]","action_history":"[1,0,1,0,1,0]","mutagen_history":"[1,0,1,0,1,0]","location_rts":"[1536,1051,1165,958,1459,822]","trial_type":"fractal-mutation","trial_index":64,"time_elapsed":1131426,"internal_node_id":"0.0-5.0-10.0"},{"group":"hexagon_bi","fractal_assignment":["../images/ylw_slt.png","../images/pnk_blu.png","../images/org_blu.png","../images/cyn_red.png","../images/blu_wht.png","../images/gry_blk.png"],"mutagen_generator_assignment":[0,1],"goal":3,"start":2,"action_noise":0.15,"location_history":"[2,3]","action_history":"[1]","mutagen_history":"[1]","location_rts":"[1789]","trial_type":"fractal-mutation","trial_index":65,"time_elapsed":1138022,"internal_node_id":"0.0-5.0-11.0"},{"group":"hexagon_bi","fractal_assignment":["../images/ylw_slt.png","../images/pnk_blu.png","../images/org_blu.png","../images/cyn_red.png","../images/blu_wht.png","../images/gry_blk.png"],"mutagen_generator_assignment":[0,1],"goal":0,"start":3,"action_noise":0.15,"location_history":"[3,4,3,2,1,0]","action_history":"[1,0,1,0,1]","mutagen_history":"[1,0,1,0,1]","location_rts":"[1725,1074,1206,1566,316]","trial_type":"fractal-mutation","trial_index":66,"time_elapsed":1153429,"internal_node_id":"0.0-5.0-12.0"},{"group":"hexagon_bi","fractal_assignment":["../images/ylw_slt.png","../images/pnk_blu.png","../images/org_blu.png","../images/cyn_red.png","../images/blu_wht.png","../images/gry_blk.png"],"mutagen_generator_assignment":[0,1],"goal":5,"start":0,"action_noise":0.15,"location_history":"[0,5]","action_history":"[0]","mutagen_history":"[0]","location_rts":"[2460]","trial_type":"fractal-mutation","trial_index":67,"time_elapsed":1160568,"internal_node_id":"0.0-5.0-13.0"},{"group":"hexagon_bi","fractal_assignment":["../images/ylw_slt.png","../images/pnk_blu.png","../images/org_blu.png","../images/cyn_red.png","../images/blu_wht.png","../images/gry_blk.png"],"mutagen_generator_assignment":[0,1],"goal":1,"start":5,"action_noise":0.15,"location_history":"[5,4,3,2,1]","action_history":"[1,0,1,0]","mutagen_history":"[1,0,1,0]","location_rts":"[1353,1051,1766,1261]","trial_type":"fractal-mutation","trial_index":68,"time_elapsed":1174172,"internal_node_id":"0.0-5.0-14.0"},{"group":"hexagon_bi","fractal_assignment":["../images/ylw_slt.png","../images/pnk_blu.png","../images/org_blu.png","../images/cyn_red.png","../images/blu_wht.png","../images/gry_blk.png"],"mutagen_generator_assignment":[0,1],"goal":5,"start":1,"action_noise":0.15,"location_history":"[1,0,5]","action_history":"[1,0]","mutagen_history":"[1,0]","location_rts":"[1879,761]","trial_type":"fractal-mutation","trial_index":69,"time_elapsed":1184275,"internal_node_id":"0.0-5.0-15.0"},{"group":"hexagon_bi","fractal_assignment":["../images/ylw_slt.png","../images/pnk_blu.png","../images/org_blu.png","../images/cyn_red.png","../images/blu_wht.png","../images/gry_blk.png"],"mutagen_generator_assignment":[0,1],"goal":3,"start":5,"action_noise":0.15,"location_history":"[5,4,3]","action_history":"[1,0]","mutagen_history":"[1,0]","location_rts":"[1555,1171]","trial_type":"fractal-mutation","trial_index":70,"time_elapsed":1194006,"internal_node_id":"0.0-5.0-16.0"},{"group":"hexagon_bi","fractal_assignment":["../images/ylw_slt.png","../images/pnk_blu.png","../images/org_blu.png","../images/cyn_red.png","../images/blu_wht.png","../images/gry_blk.png"],"mutagen_generator_assignment":[0,1],"goal":2,"start":3,"action_noise":0.15,"location_history":"[3,2]","action_history":"[1]","mutagen_history":"[1]","location_rts":"[3706]","trial_type":"fractal-mutation","trial_index":71,"time_elapsed":1202458,"internal_node_id":"0.0-5.0-17.0"},{"group":"hexagon_bi","fractal_assignment":["../images/ylw_slt.png","../images/pnk_blu.png","../images/org_blu.png","../images/cyn_red.png","../images/blu_wht.png","../images/gry_blk.png"],"mutagen_generator_assignment":[0,1],"goal":1,"start":2,"action_noise":0.15,"location_history":"[2,3,2,1]","action_history":"[1,1,0]","mutagen_history":"[1,1,0]","location_rts":"[1035,2090,272]","trial_type":"fractal-mutation","trial_index":72,"time_elapsed":1213191,"internal_node_id":"0.0-5.0-18.0"},{"group":"hexagon_bi","fractal_assignment":["../images/ylw_slt.png","../images/pnk_blu.png","../images/org_blu.png","../images/cyn_red.png","../images/blu_wht.png","../images/gry_blk.png"],"mutagen_generator_assignment":[0,1],"goal":4,"start":1,"action_noise":0.15,"location_history":"[1,0,1,0,1,2,1,0,5,4]","action_history":"[1,0,1,0,1,0,1,0,1]","mutagen_history":"[1,0,1,0,1,0,1,0,1]","location_rts":"[3398,2636,499,2297,1364,1640,2098,1402,2299]","trial_type":"fractal-mutation","trial_index":73,"time_elapsed":1245000,"internal_node_id":"0.0-5.0-19.0"},{"group":"hexagon_bi","fractal_assignment":["../images/ylw_slt.png","../images/pnk_blu.png","../images/org_blu.png","../images/cyn_red.png","../images/blu_wht.png","../images/gry_blk.png"],"mutagen_generator_assignment":[0,1],"goal":0,"start":4,"action_noise":0.15,"location_history":"[4,5,0]","action_history":"[1,0]","mutagen_history":"[1,0]","location_rts":"[1625,774]","trial_type":"fractal-mutation","trial_index":74,"time_elapsed":1253278,"internal_node_id":"0.0-5.0-20.0"},{"group":"hexagon_bi","fractal_assignment":["../images/ylw_slt.png","../images/pnk_blu.png","../images/org_blu.png","../images/cyn_red.png","../images/blu_wht.png","../images/gry_blk.png"],"mutagen_generator_assignment":[0,1],"goal":3,"start":0,"action_noise":0.15,"location_history":"[0,5,4,3]","action_history":"[0,1,0]","mutagen_history":"[0,1,0]","location_rts":"[2171,761,1799]","trial_type":"fractal-mutation","trial_index":75,"time_elapsed":1265111,"internal_node_id":"0.0-5.0-21.0"},{"group":"hexagon_bi","fractal_assignment":["../images/ylw_slt.png","../images/pnk_blu.png","../images/org_blu.png","../images/cyn_red.png","../images/blu_wht.png","../images/gry_blk.png"],"mutagen_generator_assignment":[0,1],"goal":1,"start":3,"action_noise":0.15,"location_history":"[3,4,3,4,5,4,3,2,1]","action_history":"[1,0,1,0,1,0,1,0]","mutagen_history":"[1,0,1,0,1,0,1,0]","location_rts":"[1921,1377,1104,1393,1501,1005,2042,1599]","trial_type":"fractal-mutation","trial_index":76,"time_elapsed":1290609,"internal_node_id":"0.0-5.0-22.0"},{"group":"hexagon_bi","fractal_assignment":["../images/ylw_slt.png","../images/pnk_blu.png","../images/org_blu.png","../images/cyn_red.png","../images/blu_wht.png","../images/gry_blk.png"],"mutagen_generator_assignment":[0,1],"goal":0,"start":1,"action_noise":0.15,"location_history":"[1,0]","action_history":"[1]","mutagen_history":"[1]","location_rts":"[1348]","trial_type":"fractal-mutation","trial_index":77,"time_elapsed":1296683,"internal_node_id":"0.0-5.0-23.0"},{"group":"hexagon_bi","fractal_assignment":["../images/ylw_slt.png","../images/pnk_blu.png","../images/org_blu.png","../images/cyn_red.png","../images/blu_wht.png","../images/gry_blk.png"],"mutagen_generator_assignment":[0,1],"goal":2,"start":0,"action_noise":0.15,"location_history":"[0,1,2]","action_history":"[1,0]","mutagen_history":"[1,0]","location_rts":"[1376,934]","trial_type":"fractal-mutation","trial_index":78,"time_elapsed":1304880,"internal_node_id":"0.0-5.0-24.0"},{"group":"hexagon_bi","fractal_assignment":["../images/ylw_slt.png","../images/pnk_blu.png","../images/org_blu.png","../images/cyn_red.png","../images/blu_wht.png","../images/gry_blk.png"],"mutagen_generator_assignment":[0,1],"goal":4,"start":2,"action_noise":0.15,"location_history":"[2,3,2,3,4]","action_history":"[1,0,1,0]","mutagen_history":"[1,0,1,0]","location_rts":"[1303,546,4029,648]","trial_type":"fractal-mutation","trial_index":79,"time_elapsed":1319932,"internal_node_id":"0.0-5.0-25.0"},{"group":"hexagon_bi","fractal_assignment":["../images/ylw_slt.png","../images/pnk_blu.png","../images/org_blu.png","../images/cyn_red.png","../images/blu_wht.png","../images/gry_blk.png"],"mutagen_generator_assignment":[0,1],"goal":5,"start":4,"action_noise":0.15,"location_history":"[4,5]","action_history":"[1]","mutagen_history":"[1]","location_rts":"[1378]","trial_type":"fractal-mutation","trial_index":80,"time_elapsed":1326085,"internal_node_id":"0.0-5.0-26.0"},{"group":"hexagon_bi","fractal_assignment":["../images/ylw_slt.png","../images/pnk_blu.png","../images/org_blu.png","../images/cyn_red.png","../images/blu_wht.png","../images/gry_blk.png"],"mutagen_generator_assignment":[0,1],"goal":2,"start":5,"action_noise":0.15,"location_history":"[5,4,3,4,3,4,3,4,3,2]","action_history":"[1,0,0,0,1,0,1,0,1]","mutagen_history":"[1,0,0,0,1,0,1,0,1]","location_rts":"[1292,1419,1295,453,567,1561,1732,1565,1488]","trial_type":"fractal-mutation","trial_index":81,"time_elapsed":1351661,"internal_node_id":"0.0-5.0-27.0"},{"group":"hexagon_bi","fractal_assignment":["../images/ylw_slt.png","../images/pnk_blu.png","../images/org_blu.png","../images/cyn_red.png","../images/blu_wht.png","../images/gry_blk.png"],"mutagen_generator_assignment":[0,1],"goal":3,"start":2,"action_noise":0.15,"location_history":"[2,3]","action_history":"[1]","mutagen_history":"[1]","location_rts":"[1954]","trial_type":"fractal-mutation","trial_index":82,"time_elapsed":1358469,"internal_node_id":"0.0-5.0-28.0"},{"group":"hexagon_bi","fractal_assignment":["../images/ylw_slt.png","../images/pnk_blu.png","../images/org_blu.png","../images/cyn_red.png","../images/blu_wht.png","../images/gry_blk.png"],"mutagen_generator_assignment":[0,1],"goal":1,"start":3,"action_noise":0.15,"location_history":"[3,2,1]","action_history":"[1,0]","mutagen_history":"[1,0]","location_rts":"[4418,637]","trial_type":"fractal-mutation","trial_index":83,"time_elapsed":1369790,"internal_node_id":"0.0-5.0-29.0"},{"group":"hexagon_bi","fractal_assignment":["../images/ylw_slt.png","../images/pnk_blu.png","../images/org_blu.png","../images/cyn_red.png","../images/blu_wht.png","../images/gry_blk.png"],"mutagen_generator_assignment":[0,1],"goal":4,"start":1,"action_noise":0.15,"location_history":"[1,2,3,4]","action_history":"[0,1,0]","mutagen_history":"[0,1,0]","location_rts":"[23897,1296,544]","trial_type":"fractal-mutation","trial_index":84,"time_elapsed":1404406,"internal_node_id":"0.0-5.0-30.0"},{"group":"hexagon_bi","fractal_assignment":["../images/ylw_slt.png","../images/pnk_blu.png","../images/org_blu.png","../images/cyn_red.png","../images/blu_wht.png","../images/gry_blk.png"],"mutagen_generator_assignment":[0,1],"goal":5,"start":4,"action_noise":0.15,"location_history":"[4,3,4,5]","action_history":"[1,0,1]","mutagen_history":"[1,0,1]","location_rts":"[1529,1335,1125]","trial_type":"fractal-mutation","trial_index":85,"time_elapsed":1415588,"internal_node_id":"0.0-5.0-31.0"},{"group":"hexagon_bi","fractal_assignment":["../images/ylw_slt.png","../images/pnk_blu.png","../images/org_blu.png","../images/cyn_red.png","../images/blu_wht.png","../images/gry_blk.png"],"mutagen_generator_assignment":[0,1],"goal":0,"start":5,"action_noise":0.15,"location_history":"[5,0]","action_history":"[0]","mutagen_history":"[0]","location_rts":"[1261]","trial_type":"fractal-mutation","trial_index":86,"time_elapsed":1421625,"internal_node_id":"0.0-5.0-32.0"},{"group":"hexagon_bi","fractal_assignment":["../images/ylw_slt.png","../images/pnk_blu.png","../images/org_blu.png","../images/cyn_red.png","../images/blu_wht.png","../images/gry_blk.png"],"mutagen_generator_assignment":[0,1],"goal":2,"start":0,"action_noise":0.15,"location_history":"[0,1,2]","action_history":"[1,0]","mutagen_history":"[1,0]","location_rts":"[5895,980]","trial_type":"fractal-mutation","trial_index":87,"time_elapsed":1434601,"internal_node_id":"0.0-5.0-33.0"},{"group":"hexagon_bi","fractal_assignment":["../images/ylw_slt.png","../images/pnk_blu.png","../images/org_blu.png","../images/cyn_red.png","../images/blu_wht.png","../images/gry_blk.png"],"mutagen_generator_assignment":[0,1],"goal":0,"start":2,"action_noise":0.15,"location_history":"[2,3,4,5,0]","action_history":"[1,0,1,0]","mutagen_history":"[1,0,1,0]","location_rts":"[1777,1126,1769,931]","trial_type":"fractal-mutation","trial_index":88,"time_elapsed":1448527,"internal_node_id":"0.0-5.0-34.0"},{"group":"hexagon_bi","fractal_assignment":["../images/ylw_slt.png","../images/pnk_blu.png","../images/org_blu.png","../images/cyn_red.png","../images/blu_wht.png","../images/gry_blk.png"],"mutagen_generator_assignment":[0,1],"goal":5,"start":0,"action_noise":0.15,"location_history":"[0,5]","action_history":"[0]","mutagen_history":"[0]","location_rts":"[1159]","trial_type":"fractal-mutation","trial_index":89,"time_elapsed":1454745,"internal_node_id":"0.0-5.0-35.0"},{"group":"hexagon_bi","fractal_assignment":["../images/ylw_slt.png","../images/pnk_blu.png","../images/org_blu.png","../images/cyn_red.png","../images/blu_wht.png","../images/gry_blk.png"],"mutagen_generator_assignment":[0,1],"goal":1,"start":5,"action_noise":0.15,"location_history":"[5,4,3,4,3,2,1]","action_history":"[1,0,1,0,1,0]","mutagen_history":"[1,0,1,0,1,0]","location_rts":"[1802,1257,1236,1397,1860,1585]","trial_type":"fractal-mutation","trial_index":90,"time_elapsed":1474780,"internal_node_id":"0.0-5.0-36.0"},{"group":"hexagon_bi","fractal_assignment":["../images/ylw_slt.png","../images/pnk_blu.png","../images/org_blu.png","../images/cyn_red.png","../images/blu_wht.png","../images/gry_blk.png"],"mutagen_generator_assignment":[0,1],"goal":4,"start":1,"action_noise":0.15,"location_history":"[1,0,1,2,3,4]","action_history":"[0,1,0,1,0]","mutagen_history":"[0,1,0,1,0]","location_rts":"[4018,407,2513,862,355]","trial_type":"fractal-mutation","trial_index":91,"time_elapsed":1492607,"internal_node_id":"0.0-5.0-37.0"},{"group":"hexagon_bi","fractal_assignment":["../images/ylw_slt.png","../images/pnk_blu.png","../images/org_blu.png","../images/cyn_red.png","../images/blu_wht.png","../images/gry_blk.png"],"mutagen_generator_assignment":[0,1],"goal":3,"start":4,"action_noise":0.15,"location_history":"[4,3]","action_history":"[0]","mutagen_history":"[0]","location_rts":"[1704]","trial_type":"fractal-mutation","trial_index":92,"time_elapsed":1498971,"internal_node_id":"0.0-5.0-38.0"},{"group":"hexagon_bi","fractal_assignment":["../images/ylw_slt.png","../images/pnk_blu.png","../images/org_blu.png","../images/cyn_red.png","../images/blu_wht.png","../images/gry_blk.png"],"mutagen_generator_assignment":[0,1],"goal":5,"start":3,"action_noise":0.15,"location_history":"[3,4,3,2,1,0,5]","action_history":"[1,0,1,0,1,0]","mutagen_history":"[1,0,1,0,1,0]","location_rts":"[1419,1638,811,1613,370,1491]","trial_type":"fractal-mutation","trial_index":93,"time_elapsed":1517170,"internal_node_id":"0.0-5.0-39.0"},{"group":"hexagon_bi","fractal_assignment":["../images/ylw_slt.png","../images/pnk_blu.png","../images/org_blu.png","../images/cyn_red.png","../images/blu_wht.png","../images/gry_blk.png"],"mutagen_generator_assignment":[0,1],"goal":1,"start":5,"action_noise":0.15,"location_history":"[5,4,3,2,1]","action_history":"[1,0,1,0]","mutagen_history":"[1,0,1,0]","location_rts":"[1568,1002,2575,764]","trial_type":"fractal-mutation","trial_index":94,"time_elapsed":1531240,"internal_node_id":"0.0-5.0-40.0"},{"group":"hexagon_bi","fractal_assignment":["../images/ylw_slt.png","../images/pnk_blu.png","../images/org_blu.png","../images/cyn_red.png","../images/blu_wht.png","../images/gry_blk.png"],"mutagen_generator_assignment":[0,1],"goal":2,"start":1,"action_noise":0.15,"location_history":"[1,0,5,4,3,2]","action_history":"[0,0,1,0,1]","mutagen_history":"[0,0,1,0,1]","location_rts":"[19863,2125,72,1482,2130]","trial_type":"fractal-mutation","trial_index":95,"time_elapsed":1566320,"internal_node_id":"0.0-5.0-41.0"},{"group":"hexagon_bi","fractal_assignment":["../images/ylw_slt.png","../images/pnk_blu.png","../images/org_blu.png","../images/cyn_red.png","../images/blu_wht.png","../images/gry_blk.png"],"mutagen_generator_assignment":[0,1],"goal":4,"start":2,"action_noise":0.15,"location_history":"[2,1,0,1,2,3,4]","action_history":"[1,0,1,0,1,0]","mutagen_history":"[1,0,1,0,1,0]","location_rts":"[2057,548,1051,1453,507,496]","trial_type":"fractal-mutation","trial_index":96,"time_elapsed":1583773,"internal_node_id":"0.0-5.0-42.0"},{"group":"hexagon_bi","fractal_assignment":["../images/ylw_slt.png","../images/pnk_blu.png","../images/org_blu.png","../images/cyn_red.png","../images/blu_wht.png","../images/gry_blk.png"],"mutagen_generator_assignment":[0,1],"goal":0,"start":4,"action_noise":0.15,"location_history":"[4,5,4,5,0]","action_history":"[1,0,1,0]","mutagen_history":"[1,0,1,0]","location_rts":"[1664,592,1427,773]","trial_type":"fractal-mutation","trial_index":97,"time_elapsed":1596620,"internal_node_id":"0.0-5.0-43.0"},{"group":"hexagon_bi","fractal_assignment":["../images/ylw_slt.png","../images/pnk_blu.png","../images/org_blu.png","../images/cyn_red.png","../images/blu_wht.png","../images/gry_blk.png"],"mutagen_generator_assignment":[0,1],"goal":3,"start":0,"action_noise":0.15,"location_history":"[0,5,4,3]","action_history":"[0,1,0]","mutagen_history":"[0,1,0]","location_rts":"[3232,943,1831]","trial_type":"fractal-mutation","trial_index":98,"time_elapsed":1609803,"internal_node_id":"0.0-5.0-44.0"},{"group":"hexagon_bi","fractal_assignment":["../images/ylw_slt.png","../images/pnk_blu.png","../images/org_blu.png","../images/cyn_red.png","../images/blu_wht.png","../images/gry_blk.png"],"mutagen_generator_assignment":[0,1],"goal":0,"start":3,"action_noise":0.15,"location_history":"[3,2,1,0]","action_history":"[1,0,1]","mutagen_history":"[1,0,1]","location_rts":"[1476,1338,828]","trial_type":"fractal-mutation","trial_index":99,"time_elapsed":1620446,"internal_node_id":"0.0-5.0-45.0"},{"group":"hexagon_bi","fractal_assignment":["../images/ylw_slt.png","../images/pnk_blu.png","../images/org_blu.png","../images/cyn_red.png","../images/blu_wht.png","../images/gry_blk.png"],"mutagen_generator_assignment":[0,1],"goal":4,"start":0,"action_noise":0.15,"location_history":"[0,1,2,3,4]","action_history":"[1,0,1,0]","mutagen_history":"[1,0,1,0]","location_rts":"[1786,1197,985,457]","trial_type":"fractal-mutation","trial_index":100,"time_elapsed":1633112,"internal_node_id":"0.0-5.0-46.0"},{"group":"hexagon_bi","fractal_assignment":["../images/ylw_slt.png","../images/pnk_blu.png","../images/org_blu.png","../images/cyn_red.png","../images/blu_wht.png","../images/gry_blk.png"],"mutagen_generator_assignment":[0,1],"goal":5,"start":4,"action_noise":0.15,"location_history":"[4,3,2,1,0,5]","action_history":"[0,1,0,1,0]","mutagen_history":"[0,1,0,1,0]","location_rts":"[3029,745,1216,264,1135]","trial_type":"fractal-mutation","trial_index":101,"time_elapsed":1649131,"internal_node_id":"0.0-5.0-47.0"},{"group":"hexagon_bi","fractal_assignment":["../images/ylw_slt.png","../images/pnk_blu.png","../images/org_blu.png","../images/cyn_red.png","../images/blu_wht.png","../images/gry_blk.png"],"mutagen_generator_assignment":[0,1],"goal":2,"start":5,"action_noise":0.15,"location_history":"[5,4,3,4,5,0,1,2]","action_history":"[1,0,1,1,0,1,0]","mutagen_history":"[1,0,1,1,0,1,0]","location_rts":"[14227,1697,1782,2152,963,863,831]","trial_type":"fractal-mutation","trial_index":102,"time_elapsed":1683853,"internal_node_id":"0.0-5.0-48.0"},{"group":"hexagon_bi","fractal_assignment":["../images/ylw_slt.png","../images/pnk_blu.png","../images/org_blu.png","../images/cyn_red.png","../images/blu_wht.png","../images/gry_blk.png"],"mutagen_generator_assignment":[0,1],"goal":1,"start":2,"action_noise":0.15,"location_history":"[2,1]","action_history":"[0]","mutagen_history":"[0]","location_rts":"[2153]","trial_type":"fractal-mutation","trial_index":103,"time_elapsed":1690854,"internal_node_id":"0.0-5.0-49.0"},{"view_history":"[{\"page_index\":0,\"viewing_time\":15591}]","rt":15592,"trial_type":"instructions","trial_index":104,"time_elapsed":1707448,"internal_node_id":"0.0-6.0"},{"rt":22461,"responses":"{\"Q0\":\"ability to remember color sequences\"}","trial_type":"survey-text","trial_index":105,"time_elapsed":1730919,"internal_node_id":"0.0-7.0-0.0"},{"rt":25721,"responses":"{\"Q0\":\"ability to remember which influence changed which pattern\"}","trial_type":"survey-text","trial_index":106,"time_elapsed":1757647,"internal_node_id":"0.0-7.0-1.0"},{"rt":31875,"responses":"{\"Q0\":\"<img src='../images/diagrams/hexagon_bi.png'>\"}","trial_type":"survey-multi-choice","trial_index":107,"time_elapsed":1790538,"internal_node_id":"0.0-7.0-2.0"},{"rt":39038,"assignments":["../images/ylw_slt.png","../images/pnk_blu.png","../images/org_blu.png","../images/cyn_red.png","../images/blu_wht.png","../images/gry_blk.png"],"trial_type":"drag-drop-on-image","trial_index":108,"time_elapsed":1830596,"internal_node_id":"0.0-7.0-3.0"},{"rt":4520,"responses":"{\"Q0\":\"3\"}","trial_type":"survey-likert","trial_index":109,"time_elapsed":1836124,"internal_node_id":"0.0-7.0-4.0"},{"rt":42062,"responses":"{\"Q0\":\"usually the left door went back & forth between the same colors & the same for the right door. With the alpha/gamma, it was more consistent.\"}","trial_type":"survey-text","trial_index":110,"time_elapsed":1879196,"internal_node_id":"0.0-7.0-5.0"},{"rt":6345,"responses":"{\"Q0\":\"No\"}","trial_type":"survey-multi-choice","trial_index":111,"time_elapsed":1886555,"internal_node_id":"0.0-7.0-6.0"},{"rt":3533,"responses":"{\"Q0\":\"Did not notice\"}","trial_type":"survey-multi-choice","trial_index":112,"time_elapsed":1891096,"internal_node_id":"0.0-7.0-7.0"},{"rt":2279,"responses":"{\"Q0\":\"\"}","trial_type":"survey-text","trial_index":113,"time_elapsed":1894405,"internal_node_id":"0.0-7.0-8.0"},{"rt":8547,"responses":"{\"Q0\":\"1\"}","trial_type":"survey-likert","trial_index":114,"time_elapsed":1903964,"internal_node_id":"0.0-7.0-9.0"},{"rt":7616,"responses":"{\"Q0\":\"Same structure\"}","trial_type":"survey-multi-choice","trial_index":115,"time_elapsed":1912610,"internal_node_id":"0.0-7.0-10.0"},{"rt":30781,"responses":"{\"Q0\":\"left (white) door = acid, right (black) door = ray\",\"Q1\":\"Not at all confident\"}","trial_type":"survey-multi-choice","trial_index":116,"time_elapsed":1944405,"internal_node_id":"0.0-7.0-11.0"},{"rt":7099,"responses":"{\"Q0\":\"55-65\",\"Q1\":\"Bachelor's degree\",\"Q2\":\"Female\",\"Q3\":\"White\"}","trial_type":"survey-multi-choice","trial_index":117,"time_elapsed":1952531,"internal_node_id":"0.0-8.0"},{"rt":1544,"responses":"{\"Q0\":\"\"}","trial_type":"survey-text","trial_index":118,"time_elapsed":1955088,"internal_node_id":"0.0-9.0"}]