[{"view_history":"[{\"page_index\":0,\"viewing_time\":4450},{\"page_index\":1,\"viewing_time\":17168}]","rt":21619,"trial_type":"instructions","trial_index":0,"time_elapsed":21619,"internal_node_id":"0.0-0.0"},{"view_history":"[{\"page_index\":0,\"viewing_time\":54877},{\"page_index\":1,\"viewing_time\":232002}]","rt":286879,"trial_type":"instructions","trial_index":1,"time_elapsed":310484,"internal_node_id":"0.0-1.0"},{"group":"hexagon_bi","room_assignment":["red","purple","blue","green","yellow","grey"],"door_color_assignment":["black","white"],"door_generator_assignment":[1,0],"goal":2,"start":1,"action_noise":0.15,"location_history":"[1,0,1,2]","action_history":"[1,1,0]","door_history":"[0,0,1]","location_rts":"[8918,899,532]","trial_type":"two-door-navigation","trial_index":2,"time_elapsed":327350,"internal_node_id":"0.0-2.0-0.0"},{"group":"hexagon_bi","room_assignment":["red","purple","blue","green","yellow","grey"],"door_color_assignment":["black","white"],"door_generator_assignment":[1,0],"goal":0,"start":2,"action_noise":0.15,"location_history":"[2,1,0]","action_history":"[0,1]","door_history":"[1,0]","location_rts":"[4052,1242]","trial_type":"two-door-navigation","trial_index":3,"time_elapsed":338606,"internal_node_id":"0.0-2.0-1.0"},{"group":"hexagon_bi","room_assignment":["red","purple","blue","green","yellow","grey"],"door_color_assignment":["black","white"],"door_generator_assignment":[1,0],"goal":5,"start":0,"action_noise":0.15,"location_history":"[0,1,2,1,0,1,2,3,4,3,2,1,0,5]","action_history":"[0,0,0,1,1,0,1,0,0,1,0,1,0]","door_history":"[1,1,1,0,0,1,0,1,1,0,1,0,1]","location_rts":"[3502,1233,1164,589,574,996,593,636,467,323,632,767,1174]","trial_type":"two-door-navigation","trial_index":4,"time_elapsed":369606,"internal_node_id":"0.0-2.0-2.0"},{"group":"hexagon_bi","room_assignment":["red","purple","blue","green","yellow","grey"],"door_color_assignment":["black","white"],"door_generator_assignment":[1,0],"goal":1,"start":5,"action_noise":0.15,"location_history":"[5,0,1]","action_history":"[0,1]","door_history":"[1,0]","location_rts":"[2061,700]","trial_type":"two-door-navigation","trial_index":5,"time_elapsed":377874,"internal_node_id":"0.0-2.0-3.0"},{"group":"hexagon_bi","room_assignment":["red","purple","blue","green","yellow","grey"],"door_color_assignment":["black","white"],"door_generator_assignment":[1,0],"goal":3,"start":1,"action_noise":0.15,"location_history":"[1,2,3]","action_history":"[0,1]","door_history":"[1,0]","location_rts":"[4266,1484]","trial_type":"two-door-navigation","trial_index":6,"time_elapsed":389606,"internal_node_id":"0.0-2.0-4.0"},{"group":"hexagon_bi","room_assignment":["red","purple","blue","green","yellow","grey"],"door_color_assignment":["black","white"],"door_generator_assignment":[1,0],"goal":5,"start":3,"action_noise":0.15,"location_history":"[3,2,1,0,1,2,1,0,5]","action_history":"[1,0,1,0,0,0,0,0]","door_history":"[0,1,0,1,1,1,1,1]","location_rts":"[6509,1877,2941,2406,1347,960,1723,643]","trial_type":"two-door-navigation","trial_index":7,"time_elapsed":421145,"internal_node_id":"0.0-2.0-5.0"},{"group":"hexagon_bi","room_assignment":["red","purple","blue","green","yellow","grey"],"door_color_assignment":["black","white"],"door_generator_assignment":[1,0],"goal":4,"start":5,"action_noise":0.15,"location_history":"[5,4]","action_history":"[1]","door_history":"[0]","location_rts":"[2002]","trial_type":"two-door-navigation","trial_index":8,"time_elapsed":427652,"internal_node_id":"0.0-2.0-6.0"},{"group":"hexagon_bi","room_assignment":["red","purple","blue","green","yellow","grey"],"door_color_assignment":["black","white"],"door_generator_assignment":[1,0],"goal":0,"start":4,"action_noise":0.15,"location_history":"[4,5,0]","action_history":"[1,0]","door_history":"[0,1]","location_rts":"[1543,864]","trial_type":"two-door-navigation","trial_index":9,"time_elapsed":435562,"internal_node_id":"0.0-2.0-7.0"},{"group":"hexagon_bi","room_assignment":["red","purple","blue","green","yellow","grey"],"door_color_assignment":["black","white"],"door_generator_assignment":[1,0],"goal":2,"start":0,"action_noise":0.15,"location_history":"[0,1,2]","action_history":"[1,0]","door_history":"[0,1]","location_rts":"[1866,1132]","trial_type":"two-door-navigation","trial_index":10,"time_elapsed":444067,"internal_node_id":"0.0-2.0-8.0"},{"group":"hexagon_bi","room_assignment":["red","purple","blue","green","yellow","grey"],"door_color_assignment":["black","white"],"door_generator_assignment":[1,0],"goal":4,"start":2,"action_noise":0.15,"location_history":"[2,3,4]","action_history":"[1,0]","door_history":"[0,1]","location_rts":"[1632,804]","trial_type":"two-door-navigation","trial_index":11,"time_elapsed":452706,"internal_node_id":"0.0-2.0-9.0"},{"group":"hexagon_bi","room_assignment":["red","purple","blue","green","yellow","grey"],"door_color_assignment":["black","white"],"door_generator_assignment":[1,0],"goal":2,"start":4,"action_noise":0.15,"location_history":"[4,3,2]","action_history":"[0,1]","door_history":"[1,0]","location_rts":"[3102,1135]","trial_type":"two-door-navigation","trial_index":12,"time_elapsed":463411,"internal_node_id":"0.0-2.0-10.0"},{"group":"hexagon_bi","room_assignment":["red","purple","blue","green","yellow","grey"],"door_color_assignment":["black","white"],"door_generator_assignment":[1,0],"goal":3,"start":2,"action_noise":0.15,"location_history":"[2,3]","action_history":"[1]","door_history":"[0]","location_rts":"[2617]","trial_type":"two-door-navigation","trial_index":13,"time_elapsed":470532,"internal_node_id":"0.0-2.0-11.0"},{"group":"hexagon_bi","room_assignment":["red","purple","blue","green","yellow","grey"],"door_color_assignment":["black","white"],"door_generator_assignment":[1,0],"goal":0,"start":3,"action_noise":0.15,"location_history":"[3,4,5,0]","action_history":"[0,0,0]","door_history":"[1,1,1]","location_rts":"[1495,884,183]","trial_type":"two-door-navigation","trial_index":14,"time_elapsed":480404,"internal_node_id":"0.0-2.0-12.0"},{"group":"hexagon_bi","room_assignment":["red","purple","blue","green","yellow","grey"],"door_color_assignment":["black","white"],"door_generator_assignment":[1,0],"goal":5,"start":0,"action_noise":0.15,"location_history":"[0,1,2,1,0,5]","action_history":"[0,0,0,1,0]","door_history":"[1,1,1,0,1]","location_rts":"[1454,2257,1726,348,359]","trial_type":"two-door-navigation","trial_index":15,"time_elapsed":495547,"internal_node_id":"0.0-2.0-13.0"},{"group":"hexagon_bi","room_assignment":["red","purple","blue","green","yellow","grey"],"door_color_assignment":["black","white"],"door_generator_assignment":[1,0],"goal":1,"start":5,"action_noise":0.15,"location_history":"[5,0,5,0,1]","action_history":"[0,1,0,1]","door_history":"[1,0,1,0]","location_rts":"[7881,305,1076,428]","trial_type":"two-door-navigation","trial_index":16,"time_elapsed":512754,"internal_node_id":"0.0-2.0-14.0"},{"group":"hexagon_bi","room_assignment":["red","purple","blue","green","yellow","grey"],"door_color_assignment":["black","white"],"door_generator_assignment":[1,0],"goal":5,"start":1,"action_noise":0.15,"location_history":"[1,0,5]","action_history":"[0,0]","door_history":"[1,1]","location_rts":"[66218,1242]","trial_type":"two-door-navigation","trial_index":17,"time_elapsed":585726,"internal_node_id":"0.0-2.0-15.0"},{"group":"hexagon_bi","room_assignment":["red","purple","blue","green","yellow","grey"],"door_color_assignment":["black","white"],"door_generator_assignment":[1,0],"goal":3,"start":5,"action_noise":0.15,"location_history":"[5,4,3]","action_history":"[1,0]","door_history":"[0,1]","location_rts":"[1543,1195]","trial_type":"two-door-navigation","trial_index":18,"time_elapsed":593972,"internal_node_id":"0.0-2.0-16.0"},{"group":"hexagon_bi","room_assignment":["red","purple","blue","green","yellow","grey"],"door_color_assignment":["black","white"],"door_generator_assignment":[1,0],"goal":2,"start":3,"action_noise":0.15,"location_history":"[3,4,5,4,3,4,3,2]","action_history":"[1,1,1,0,0,0,1]","door_history":"[0,0,0,1,1,1,0]","location_rts":"[1414,1036,1118,717,518,702,220]","trial_type":"two-door-navigation","trial_index":19,"time_elapsed":610607,"internal_node_id":"0.0-2.0-17.0"},{"group":"hexagon_bi","room_assignment":["red","purple","blue","green","yellow","grey"],"door_color_assignment":["black","white"],"door_generator_assignment":[1,0],"goal":1,"start":2,"action_noise":0.15,"location_history":"[2,1]","action_history":"[0]","door_history":"[1]","location_rts":"[5563]","trial_type":"two-door-navigation","trial_index":20,"time_elapsed":620804,"internal_node_id":"0.0-2.0-18.0"},{"group":"hexagon_bi","room_assignment":["red","purple","blue","green","yellow","grey"],"door_color_assignment":["black","white"],"door_generator_assignment":[1,0],"goal":4,"start":1,"action_noise":0.15,"location_history":"[1,0,1,2,1,2,1,2,1,2,3,4]","action_history":"[1,1,0,1,0,0,0,0,0,1,0]","door_history":"[0,0,1,0,1,1,1,1,1,0,1]","location_rts":"[2216,1421,445,1083,795,397,740,332,558,365,1469]","trial_type":"two-door-navigation","trial_index":21,"time_elapsed":645164,"internal_node_id":"0.0-2.0-19.0"},{"group":"hexagon_bi","room_assignment":["red","purple","blue","green","yellow","grey"],"door_color_assignment":["black","white"],"door_generator_assignment":[1,0],"goal":0,"start":4,"action_noise":0.15,"location_history":"[4,3,4,3,2,1,2,1,2,1,0]","action_history":"[0,1,0,1,1,0,0,1,0,1]","door_history":"[1,0,1,0,0,1,1,0,1,0]","location_rts":"[1943,4007,708,724,900,884,1400,251,858,76]","trial_type":"two-door-navigation","trial_index":22,"time_elapsed":670955,"internal_node_id":"0.0-2.0-20.0"},{"group":"hexagon_bi","room_assignment":["red","purple","blue","green","yellow","grey"],"door_color_assignment":["black","white"],"door_generator_assignment":[1,0],"goal":3,"start":0,"action_noise":0.15,"location_history":"[0,1,2,3]","action_history":"[1,0,1]","door_history":"[0,1,0]","location_rts":"[1528,946,917]","trial_type":"two-door-navigation","trial_index":23,"time_elapsed":680860,"internal_node_id":"0.0-2.0-21.0"},{"group":"hexagon_bi","room_assignment":["red","purple","blue","green","yellow","grey"],"door_color_assignment":["black","white"],"door_generator_assignment":[1,0],"goal":1,"start":3,"action_noise":0.15,"location_history":"[3,2,1]","action_history":"[1,0]","door_history":"[0,1]","location_rts":"[2151,965]","trial_type":"two-door-navigation","trial_index":24,"time_elapsed":689480,"internal_node_id":"0.0-2.0-22.0"},{"group":"hexagon_bi","room_assignment":["red","purple","blue","green","yellow","grey"],"door_color_assignment":["black","white"],"door_generator_assignment":[1,0],"goal":0,"start":1,"action_noise":0.15,"location_history":"[1,2,1,2,1,0]","action_history":"[0,0,0,0,1]","door_history":"[1,1,1,1,0]","location_rts":"[2097,1292,276,1484,284]","trial_type":"two-door-navigation","trial_index":25,"time_elapsed":703438,"internal_node_id":"0.0-2.0-23.0"},{"group":"hexagon_bi","room_assignment":["red","purple","blue","green","yellow","grey"],"door_color_assignment":["black","white"],"door_generator_assignment":[1,0],"goal":2,"start":0,"action_noise":0.15,"location_history":"[0,5,0,5,0,1,2]","action_history":"[0,0,0,0,1,0]","door_history":"[1,1,1,1,0,1]","location_rts":"[3301,9175,460,539,244,1004]","trial_type":"two-door-navigation","trial_index":26,"time_elapsed":728548,"internal_node_id":"0.0-2.0-24.0"},{"group":"hexagon_bi","room_assignment":["red","purple","blue","green","yellow","grey"],"door_color_assignment":["black","white"],"door_generator_assignment":[1,0],"goal":4,"start":2,"action_noise":0.15,"location_history":"[2,1,2,3,4]","action_history":"[1,0,1,0]","door_history":"[0,1,0,1]","location_rts":"[1823,4167,2003,421]","trial_type":"two-door-navigation","trial_index":27,"time_elapsed":745701,"internal_node_id":"0.0-2.0-25.0"},{"group":"hexagon_bi","room_assignment":["red","purple","blue","green","yellow","grey"],"door_color_assignment":["black","white"],"door_generator_assignment":[1,0],"goal":5,"start":4,"action_noise":0.15,"location_history":"[4,5]","action_history":"[1]","door_history":"[0]","location_rts":"[2822]","trial_type":"two-door-navigation","trial_index":28,"time_elapsed":753027,"internal_node_id":"0.0-2.0-26.0"},{"group":"hexagon_bi","room_assignment":["red","purple","blue","green","yellow","grey"],"door_color_assignment":["black","white"],"door_generator_assignment":[1,0],"goal":2,"start":5,"action_noise":0.15,"location_history":"[5,4,3,2]","action_history":"[1,0,1]","door_history":"[0,1,0]","location_rts":"[2928,1135,1462]","trial_type":"two-door-navigation","trial_index":29,"time_elapsed":765057,"internal_node_id":"0.0-2.0-27.0"},{"group":"hexagon_bi","room_assignment":["red","purple","blue","green","yellow","grey"],"door_color_assignment":["black","white"],"door_generator_assignment":[1,0],"goal":3,"start":2,"action_noise":0.15,"location_history":"[2,3]","action_history":"[1]","door_history":"[0]","location_rts":"[10388]","trial_type":"two-door-navigation","trial_index":30,"time_elapsed":779948,"internal_node_id":"0.0-2.0-28.0"},{"group":"hexagon_bi","room_assignment":["red","purple","blue","green","yellow","grey"],"door_color_assignment":["black","white"],"door_generator_assignment":[1,0],"goal":1,"start":3,"action_noise":0.15,"location_history":"[3,2,1]","action_history":"[1,0]","door_history":"[0,1]","location_rts":"[2222,508]","trial_type":"two-door-navigation","trial_index":31,"time_elapsed":789606,"internal_node_id":"0.0-2.0-29.0"},{"group":"hexagon_bi","room_assignment":["red","purple","blue","green","yellow","grey"],"door_color_assignment":["black","white"],"door_generator_assignment":[1,0],"goal":4,"start":1,"action_noise":0.15,"location_history":"[1,0,5,4]","action_history":"[1,0,1]","door_history":"[0,1,0]","location_rts":"[6830,804,733]","trial_type":"two-door-navigation","trial_index":32,"time_elapsed":805484,"internal_node_id":"0.0-2.0-30.0"},{"group":"hexagon_bi","room_assignment":["red","purple","blue","green","yellow","grey"],"door_color_assignment":["black","white"],"door_generator_assignment":[1,0],"goal":5,"start":4,"action_noise":0.15,"location_history":"[4,5]","action_history":"[1]","door_history":"[0]","location_rts":"[2911]","trial_type":"two-door-navigation","trial_index":33,"time_elapsed":812899,"internal_node_id":"0.0-2.0-31.0"},{"group":"hexagon_bi","room_assignment":["red","purple","blue","green","yellow","grey"],"door_color_assignment":["black","white"],"door_generator_assignment":[1,0],"goal":0,"start":5,"action_noise":0.15,"location_history":"[5,0]","action_history":"[0]","door_history":"[1]","location_rts":"[1250]","trial_type":"two-door-navigation","trial_index":34,"time_elapsed":818651,"internal_node_id":"0.0-2.0-32.0"},{"group":"hexagon_bi","room_assignment":["red","purple","blue","green","yellow","grey"],"door_color_assignment":["black","white"],"door_generator_assignment":[1,0],"goal":2,"start":0,"action_noise":0.15,"location_history":"[0,5,4,5,4,3,2]","action_history":"[1,1,1,1,0,1]","door_history":"[0,0,0,0,1,0]","location_rts":"[1809,1971,4608,797,300,1170]","trial_type":"two-door-navigation","trial_index":35,"time_elapsed":839605,"internal_node_id":"0.0-2.0-33.0"},{"group":"hexagon_bi","room_assignment":["red","purple","blue","green","yellow","grey"],"door_color_assignment":["black","white"],"door_generator_assignment":[1,0],"goal":0,"start":2,"action_noise":0.15,"location_history":"[2,3,4,5,0]","action_history":"[1,0,1,0]","door_history":"[0,1,0,1]","location_rts":"[5678,1430,563,458]","trial_type":"two-door-navigation","trial_index":36,"time_elapsed":855253,"internal_node_id":"0.0-2.0-34.0"},{"group":"hexagon_bi","room_assignment":["red","purple","blue","green","yellow","grey"],"door_color_assignment":["black","white"],"door_generator_assignment":[1,0],"goal":5,"start":0,"action_noise":0.15,"location_history":"[0,5]","action_history":"[0]","door_history":"[1]","location_rts":"[5656]","trial_type":"two-door-navigation","trial_index":37,"time_elapsed":865415,"internal_node_id":"0.0-2.0-35.0"},{"group":"hexagon_bi","room_assignment":["red","purple","blue","green","yellow","grey"],"door_color_assignment":["black","white"],"door_generator_assignment":[1,0],"goal":1,"start":5,"action_noise":0.15,"location_history":"[5,0,5,0,1]","action_history":"[0,1,0,1]","door_history":"[1,0,1,0]","location_rts":"[2549,739,1252,293]","trial_type":"two-door-navigation","trial_index":38,"time_elapsed":879158,"internal_node_id":"0.0-2.0-36.0"},{"group":"hexagon_bi","room_assignment":["red","purple","blue","green","yellow","grey"],"door_color_assignment":["black","white"],"door_generator_assignment":[1,0],"goal":4,"start":1,"action_noise":0.15,"location_history":"[1,0,1,2,3,2,3,4]","action_history":"[1,1,0,1,1,1,0]","door_history":"[0,0,1,0,0,0,1]","location_rts":"[1534,1223,769,1859,1188,788,237]","trial_type":"two-door-navigation","trial_index":39,"time_elapsed":899605,"internal_node_id":"0.0-2.0-37.0"},{"group":"hexagon_bi","room_assignment":["red","purple","blue","green","yellow","grey"],"door_color_assignment":["black","white"],"door_generator_assignment":[1,0],"goal":3,"start":4,"action_noise":0.15,"location_history":"[4,5,4,5,4,3]","action_history":"[1,1,0,1,0]","door_history":"[0,0,1,0,1]","location_rts":"[4663,443,54,1035,222]","trial_type":"two-door-navigation","trial_index":40,"time_elapsed":914541,"internal_node_id":"0.0-2.0-38.0"},{"group":"hexagon_bi","room_assignment":["red","purple","blue","green","yellow","grey"],"door_color_assignment":["black","white"],"door_generator_assignment":[1,0],"goal":5,"start":3,"action_noise":0.15,"location_history":"[3,2,3,4,5]","action_history":"[0,1,0,1]","door_history":"[1,0,1,0]","location_rts":"[2400,211,1254,216]","trial_type":"two-door-navigation","trial_index":41,"time_elapsed":926132,"internal_node_id":"0.0-2.0-39.0"},{"group":"hexagon_bi","room_assignment":["red","purple","blue","green","yellow","grey"],"door_color_assignment":["black","white"],"door_generator_assignment":[1,0],"goal":1,"start":5,"action_noise":0.15,"location_history":"[5,0,1]","action_history":"[0,1]","door_history":"[1,0]","location_rts":"[2528,291]","trial_type":"two-door-navigation","trial_index":42,"time_elapsed":934462,"internal_node_id":"0.0-2.0-40.0"},{"group":"hexagon_bi","room_assignment":["red","purple","blue","green","yellow","grey"],"door_color_assignment":["black","white"],"door_generator_assignment":[1,0],"goal":2,"start":1,"action_noise":0.15,"location_history":"[1,2]","action_history":"[1]","door_history":"[0]","location_rts":"[1839]","trial_type":"two-door-navigation","trial_index":43,"time_elapsed":940804,"internal_node_id":"0.0-2.0-41.0"},{"group":"hexagon_bi","room_assignment":["red","purple","blue","green","yellow","grey"],"door_color_assignment":["black","white"],"door_generator_assignment":[1,0],"goal":4,"start":2,"action_noise":0.15,"location_history":"[2,3,2,3,4]","action_history":"[1,0,1,0]","door_history":"[0,1,0,1]","location_rts":"[5128,1577,1412,276]","trial_type":"two-door-navigation","trial_index":44,"time_elapsed":959478,"internal_node_id":"0.0-2.0-42.0"},{"group":"hexagon_bi","room_assignment":["red","purple","blue","green","yellow","grey"],"door_color_assignment":["black","white"],"door_generator_assignment":[1,0],"goal":0,"start":4,"action_noise":0.15,"location_history":"[4,3,4,5,0]","action_history":"[1,0,1,0]","door_history":"[0,1,0,1]","location_rts":"[2078,902,1013,1053]","trial_type":"two-door-navigation","trial_index":45,"time_elapsed":972607,"internal_node_id":"0.0-2.0-43.0"},{"group":"hexagon_bi","room_assignment":["red","purple","blue","green","yellow","grey"],"door_color_assignment":["black","white"],"door_generator_assignment":[1,0],"goal":3,"start":0,"action_noise":0.15,"location_history":"[0,1,0,5,4,3]","action_history":"[1,1,0,1,0]","door_history":"[0,0,1,0,1]","location_rts":"[3102,1452,573,998,1251]","trial_type":"two-door-navigation","trial_index":46,"time_elapsed":988501,"internal_node_id":"0.0-2.0-44.0"},{"group":"hexagon_bi","room_assignment":["red","purple","blue","green","yellow","grey"],"door_color_assignment":["black","white"],"door_generator_assignment":[1,0],"goal":0,"start":3,"action_noise":0.15,"location_history":"[3,2,1,2,3,4,5,0]","action_history":"[1,0,0,0,0,1,0]","door_history":"[0,1,1,1,1,0,1]","location_rts":"[2248,1159,1163,773,692,797,591]","trial_type":"two-door-navigation","trial_index":47,"time_elapsed":1007605,"internal_node_id":"0.0-2.0-45.0"},{"group":"hexagon_bi","room_assignment":["red","purple","blue","green","yellow","grey"],"door_color_assignment":["black","white"],"door_generator_assignment":[1,0],"goal":4,"start":0,"action_noise":0.15,"location_history":"[0,1,2,1,2,1,0,5,4]","action_history":"[1,0,0,0,0,1,0,1]","door_history":"[0,1,1,1,1,0,1,0]","location_rts":"[1592,939,438,820,845,786,1013,2494]","trial_type":"two-door-navigation","trial_index":48,"time_elapsed":1028605,"internal_node_id":"0.0-2.0-46.0"},{"group":"hexagon_bi","room_assignment":["red","purple","blue","green","yellow","grey"],"door_color_assignment":["black","white"],"door_generator_assignment":[1,0],"goal":5,"start":4,"action_noise":0.15,"location_history":"[4,5]","action_history":"[1]","door_history":"[0]","location_rts":"[8279]","trial_type":"two-door-navigation","trial_index":49,"time_elapsed":1042389,"internal_node_id":"0.0-2.0-47.0"},{"group":"hexagon_bi","room_assignment":["red","purple","blue","green","yellow","grey"],"door_color_assignment":["black","white"],"door_generator_assignment":[1,0],"goal":2,"start":5,"action_noise":0.15,"location_history":"[5,4,3,4,3,2]","action_history":"[1,0,1,0,1]","door_history":"[0,1,0,1,0]","location_rts":"[2399,380,771,813,229]","trial_type":"two-door-navigation","trial_index":50,"time_elapsed":1055500,"internal_node_id":"0.0-2.0-48.0"},{"group":"hexagon_bi","room_assignment":["red","purple","blue","green","yellow","grey"],"door_color_assignment":["black","white"],"door_generator_assignment":[1,0],"goal":1,"start":2,"action_noise":0.15,"location_history":"[2,1]","action_history":"[0]","door_history":"[1]","location_rts":"[5040]","trial_type":"two-door-navigation","trial_index":51,"time_elapsed":1065048,"internal_node_id":"0.0-2.0-49.0"},{"view_history":"[{\"page_index\":0,\"viewing_time\":1727}]","rt":1727,"trial_type":"instructions","trial_index":52,"time_elapsed":1067774,"internal_node_id":"0.0-3.0"},{"view_history":"[{\"page_index\":0,\"viewing_time\":18712},{\"page_index\":1,\"viewing_time\":33208}]","rt":51921,"trial_type":"instructions","trial_index":53,"time_elapsed":1121526,"internal_node_id":"0.0-4.0"},{"group":"hexagon_tri","fractal_assignment":["../images/blu_wht.png","../images/org_blu.png","../images/cyn_red.png","../images/gry_blk.png","../images/pnk_blu.png","../images/ylw_slt.png"],"mutagen_generator_assignment":[0,1],"goal":2,"start":1,"action_noise":0.15,"location_history":"[1,5,4,2]","action_history":"[0,1,1]","mutagen_history":"[0,1,1]","location_rts":"[2088,622,387]","trial_type":"fractal-mutation","trial_index":54,"time_elapsed":1131168,"internal_node_id":"0.0-5.0-0.0"},{"group":"hexagon_tri","fractal_assignment":["../images/blu_wht.png","../images/org_blu.png","../images/cyn_red.png","../images/gry_blk.png","../images/pnk_blu.png","../images/ylw_slt.png"],"mutagen_generator_assignment":[0,1],"goal":0,"start":2,"action_noise":0.15,"location_history":"[2,1,3,4,2,3,2,3,2,1,3,2,1,5,4,0]","action_history":"[0,0,0,1,0,0,0,0,0,0,0,0,0,0,1]","mutagen_history":"[0,0,0,1,0,0,0,0,0,0,0,0,0,0,1]","location_rts":"[1141,439,473,448,3174,528,418,329,7625,1243,738,605,365,368,845]","trial_type":"fractal-mutation","trial_index":55,"time_elapsed":1169817,"internal_node_id":"0.0-5.0-1.0"},{"group":"hexagon_tri","fractal_assignment":["../images/blu_wht.png","../images/org_blu.png","../images/cyn_red.png","../images/gry_blk.png","../images/pnk_blu.png","../images/ylw_slt.png"],"mutagen_generator_assignment":[0,1],"goal":5,"start":0,"action_noise":0.15,"location_history":"[0,5]","action_history":"[0]","mutagen_history":"[0]","location_rts":"[2011]","trial_type":"fractal-mutation","trial_index":56,"time_elapsed":1176334,"internal_node_id":"0.0-5.0-2.0"},{"group":"hexagon_tri","fractal_assignment":["../images/blu_wht.png","../images/org_blu.png","../images/cyn_red.png","../images/gry_blk.png","../images/pnk_blu.png","../images/ylw_slt.png"],"mutagen_generator_assignment":[0,1],"goal":1,"start":5,"action_noise":0.15,"location_history":"[5,0,1]","action_history":"[1,1]","mutagen_history":"[1,1]","location_rts":"[1406,499]","trial_type":"fractal-mutation","trial_index":57,"time_elapsed":1183765,"internal_node_id":"0.0-5.0-3.0"},{"group":"hexagon_tri","fractal_assignment":["../images/blu_wht.png","../images/org_blu.png","../images/cyn_red.png","../images/gry_blk.png","../images/pnk_blu.png","../images/ylw_slt.png"],"mutagen_generator_assignment":[0,1],"goal":3,"start":1,"action_noise":0.15,"location_history":"[1,3]","action_history":"[0]","mutagen_history":"[0]","location_rts":"[1392]","trial_type":"fractal-mutation","trial_index":58,"time_elapsed":1189665,"internal_node_id":"0.0-5.0-4.0"},{"group":"hexagon_tri","fractal_assignment":["../images/blu_wht.png","../images/org_blu.png","../images/cyn_red.png","../images/gry_blk.png","../images/pnk_blu.png","../images/ylw_slt.png"],"mutagen_generator_assignment":[0,1],"goal":5,"start":3,"action_noise":0.15,"location_history":"[3,2,3,2,3,4,2,3,2,1,3,2,3,4,2,1,3,2,3,4,2,3,4,0,5]","action_history":"[0,1,1,1,1,1,0,0,0,0,1,1,0,1,0,0,0,1,1,1,1,0,0,0]","mutagen_history":"[0,1,1,1,1,1,0,0,0,0,1,1,0,1,0,0,0,1,1,1,1,0,0,0]","location_rts":"[1035,467,414,488,516,540,427,408,392,653,520,434,584,723,493,514,456,491,513,626,642,6068,502,414]","trial_type":"fractal-mutation","trial_index":59,"time_elapsed":1235732,"internal_node_id":"0.0-5.0-5.0"},{"group":"hexagon_tri","fractal_assignment":["../images/blu_wht.png","../images/org_blu.png","../images/cyn_red.png","../images/gry_blk.png","../images/pnk_blu.png","../images/ylw_slt.png"],"mutagen_generator_assignment":[0,1],"goal":4,"start":5,"action_noise":0.15,"location_history":"[5,4]","action_history":"[0]","mutagen_history":"[0]","location_rts":"[897]","trial_type":"fractal-mutation","trial_index":60,"time_elapsed":1241606,"internal_node_id":"0.0-5.0-6.0"},{"group":"hexagon_tri","fractal_assignment":["../images/blu_wht.png","../images/org_blu.png","../images/cyn_red.png","../images/gry_blk.png","../images/pnk_blu.png","../images/ylw_slt.png"],"mutagen_generator_assignment":[0,1],"goal":0,"start":4,"action_noise":0.15,"location_history":"[4,0]","action_history":"[1]","mutagen_history":"[1]","location_rts":"[1535]","trial_type":"fractal-mutation","trial_index":61,"time_elapsed":1247656,"internal_node_id":"0.0-5.0-7.0"},{"group":"hexagon_tri","fractal_assignment":["../images/blu_wht.png","../images/org_blu.png","../images/cyn_red.png","../images/gry_blk.png","../images/pnk_blu.png","../images/ylw_slt.png"],"mutagen_generator_assignment":[0,1],"goal":2,"start":0,"action_noise":0.15,"location_history":"[0,5,0,1,3,4,0,5,0,1,5,4,0,1,5,0,1,3,4,2]","action_history":"[0,1,1,1,1,0,1,1,1,1,0,0,1,1,1,1,1,1,0]","mutagen_history":"[0,1,1,1,1,0,1,1,1,1,0,0,1,1,1,1,1,1,0]","location_rts":"[901,761,778,508,429,3543,338,417,400,505,761,593,392,389,586,377,654,545,5058]","trial_type":"fractal-mutation","trial_index":62,"time_elapsed":1289522,"internal_node_id":"0.0-5.0-8.0"},{"group":"hexagon_tri","fractal_assignment":["../images/blu_wht.png","../images/org_blu.png","../images/cyn_red.png","../images/gry_blk.png","../images/pnk_blu.png","../images/ylw_slt.png"],"mutagen_generator_assignment":[0,1],"goal":4,"start":2,"action_noise":0.15,"location_history":"[2,3,4]","action_history":"[1,1]","mutagen_history":"[1,1]","location_rts":"[1211,579]","trial_type":"fractal-mutation","trial_index":63,"time_elapsed":1296842,"internal_node_id":"0.0-5.0-9.0"},{"group":"hexagon_tri","fractal_assignment":["../images/blu_wht.png","../images/org_blu.png","../images/cyn_red.png","../images/gry_blk.png","../images/pnk_blu.png","../images/ylw_slt.png"],"mutagen_generator_assignment":[0,1],"goal":2,"start":4,"action_noise":0.15,"location_history":"[4,0,5,0,5,0,5,0,5,0,5,4,0,5,4,0,5,0,1,3,2]","action_history":"[0,0,0,1,1,1,1,1,1,0,0,0,0,0,0,0,0,1,1,0]","mutagen_history":"[0,0,0,1,1,1,1,1,1,0,0,0,0,0,0,0,0,1,1,0]","location_rts":"[1212,634,575,876,410,477,393,513,425,644,486,508,437,434,580,422,416,604,516,427]","trial_type":"fractal-mutation","trial_index":64,"time_elapsed":1331605,"internal_node_id":"0.0-5.0-10.0"},{"group":"hexagon_tri","fractal_assignment":["../images/blu_wht.png","../images/org_blu.png","../images/cyn_red.png","../images/gry_blk.png","../images/pnk_blu.png","../images/ylw_slt.png"],"mutagen_generator_assignment":[0,1],"goal":3,"start":2,"action_noise":0.15,"location_history":"[2,3]","action_history":"[1]","mutagen_history":"[1]","location_rts":"[1463]","trial_type":"fractal-mutation","trial_index":65,"time_elapsed":1337579,"internal_node_id":"0.0-5.0-11.0"},{"group":"hexagon_tri","fractal_assignment":["../images/blu_wht.png","../images/org_blu.png","../images/cyn_red.png","../images/gry_blk.png","../images/pnk_blu.png","../images/ylw_slt.png"],"mutagen_generator_assignment":[0,1],"goal":0,"start":3,"action_noise":0.15,"location_history":"[3,2,3,2,1,5,0]","action_history":"[0,0,0,0,1,1]","mutagen_history":"[0,0,0,0,1,1]","location_rts":"[884,586,1044,491,413,441]","trial_type":"fractal-mutation","trial_index":66,"time_elapsed":1350976,"internal_node_id":"0.0-5.0-12.0"},{"group":"hexagon_tri","fractal_assignment":["../images/blu_wht.png","../images/org_blu.png","../images/cyn_red.png","../images/gry_blk.png","../images/pnk_blu.png","../images/ylw_slt.png"],"mutagen_generator_assignment":[0,1],"goal":5,"start":0,"action_noise":0.15,"location_history":"[0,5]","action_history":"[0]","mutagen_history":"[0]","location_rts":"[903]","trial_type":"fractal-mutation","trial_index":67,"time_elapsed":1356383,"internal_node_id":"0.0-5.0-13.0"},{"group":"hexagon_tri","fractal_assignment":["../images/blu_wht.png","../images/org_blu.png","../images/cyn_red.png","../images/gry_blk.png","../images/pnk_blu.png","../images/ylw_slt.png"],"mutagen_generator_assignment":[0,1],"goal":1,"start":5,"action_noise":0.15,"location_history":"[5,4,2,3,4,0,5,4,0,5,0,5,4,0,5,0,5,4,0,5,4,2,3,2,3,4,2,3,2,1]","action_history":"[0,1,1,0,0,0,0,0,0,0,0,0,0,0,0,0,0,0,0,0,1,1,1,1,1,1,1,0,0]","mutagen_history":"[0,1,1,0,0,0,0,0,0,0,0,0,0,0,0,0,0,0,0,0,1,1,1,1,1,1,1,0,0]","location_rts":"[2158,1090,805,547,2974,596,480,489,552,4794,618,572,687,1586,590,729,669,588,557,561,882,1876,372,603,381,442,515,346,407]","trial_type":"fractal-mutation","trial_index":68,"time_elapsed":1418153,"internal_node_id":"0.0-5.0-14.0"},{"group":"hexagon_tri","fractal_assignment":["../images/blu_wht.png","../images/org_blu.png","../images/cyn_red.png","../images/gry_blk.png","../images/pnk_blu.png","../images/ylw_slt.png"],"mutagen_generator_assignment":[0,1],"goal":5,"start":1,"action_noise":0.15,"location_history":"[1,3,2,1,3,4,2,1,3,2,3,4,0,1,5]","action_history":"[0,0,0,0,1,1,0,0,0,1,1,1,1,0]","mutagen_history":"[0,0,0,0,1,1,0,0,0,1,1,1,1,0]","location_rts":"[1172,457,389,426,409,449,496,410,363,395,419,457,376,530]","trial_type":"fractal-mutation","trial_index":69,"time_elapsed":1443904,"internal_node_id":"0.0-5.0-15.0"},{"group":"hexagon_tri","fractal_assignment":["../images/blu_wht.png","../images/org_blu.png","../images/cyn_red.png","../images/gry_blk.png","../images/pnk_blu.png","../images/ylw_slt.png"],"mutagen_generator_assignment":[0,1],"goal":3,"start":5,"action_noise":0.15,"location_history":"[5,4,2,1,3]","action_history":"[1,1,0,0]","mutagen_history":"[1,1,0,0]","location_rts":"[1054,445,581,442]","trial_type":"fractal-mutation","trial_index":70,"time_elapsed":1453968,"internal_node_id":"0.0-5.0-16.0"},{"group":"hexagon_tri","fractal_assignment":["../images/blu_wht.png","../images/org_blu.png","../images/cyn_red.png","../images/gry_blk.png","../images/pnk_blu.png","../images/ylw_slt.png"],"mutagen_generator_assignment":[0,1],"goal":2,"start":3,"action_noise":0.15,"location_history":"[3,4,2]","action_history":"[1,1]","mutagen_history":"[1,1]","location_rts":"[893,883]","trial_type":"fractal-mutation","trial_index":71,"time_elapsed":1461272,"internal_node_id":"0.0-5.0-17.0"},{"group":"hexagon_tri","fractal_assignment":["../images/blu_wht.png","../images/org_blu.png","../images/cyn_red.png","../images/gry_blk.png","../images/pnk_blu.png","../images/ylw_slt.png"],"mutagen_generator_assignment":[0,1],"goal":1,"start":2,"action_noise":0.15,"location_history":"[2,1]","action_history":"[0]","mutagen_history":"[0]","location_rts":"[910]","trial_type":"fractal-mutation","trial_index":72,"time_elapsed":1466690,"internal_node_id":"0.0-5.0-18.0"},{"group":"hexagon_tri","fractal_assignment":["../images/blu_wht.png","../images/org_blu.png","../images/cyn_red.png","../images/gry_blk.png","../images/pnk_blu.png","../images/ylw_slt.png"],"mutagen_generator_assignment":[0,1],"goal":4,"start":1,"action_noise":0.15,"location_history":"[1,5,4]","action_history":"[1,1]","mutagen_history":"[1,1]","location_rts":"[1162,4970]","trial_type":"fractal-mutation","trial_index":73,"time_elapsed":1478350,"internal_node_id":"0.0-5.0-19.0"},{"group":"hexagon_tri","fractal_assignment":["../images/blu_wht.png","../images/org_blu.png","../images/cyn_red.png","../images/gry_blk.png","../images/pnk_blu.png","../images/ylw_slt.png"],"mutagen_generator_assignment":[0,1],"goal":0,"start":4,"action_noise":0.15,"location_history":"[4,0]","action_history":"[0]","mutagen_history":"[0]","location_rts":"[1869]","trial_type":"fractal-mutation","trial_index":74,"time_elapsed":1485680,"internal_node_id":"0.0-5.0-20.0"},{"group":"hexagon_tri","fractal_assignment":["../images/blu_wht.png","../images/org_blu.png","../images/cyn_red.png","../images/gry_blk.png","../images/pnk_blu.png","../images/ylw_slt.png"],"mutagen_generator_assignment":[0,1],"goal":3,"start":0,"action_noise":0.15,"location_history":"[0,1,3]","action_history":"[1,1]","mutagen_history":"[1,1]","location_rts":"[1023,756]","trial_type":"fractal-mutation","trial_index":75,"time_elapsed":1492983,"internal_node_id":"0.0-5.0-21.0"},{"group":"hexagon_tri","fractal_assignment":["../images/blu_wht.png","../images/org_blu.png","../images/cyn_red.png","../images/gry_blk.png","../images/pnk_blu.png","../images/ylw_slt.png"],"mutagen_generator_assignment":[0,1],"goal":1,"start":3,"action_noise":0.15,"location_history":"[3,4,0,5,4,0,5,0,1]","action_history":"[1,0,0,0,0,1,1,1]","mutagen_history":"[1,0,0,0,0,1,1,1]","location_rts":"[3479,811,613,432,514,427,358,344]","trial_type":"fractal-mutation","trial_index":76,"time_elapsed":1511543,"internal_node_id":"0.0-5.0-22.0"},{"group":"hexagon_tri","fractal_assignment":["../images/blu_wht.png","../images/org_blu.png","../images/cyn_red.png","../images/gry_blk.png","../images/pnk_blu.png","../images/ylw_slt.png"],"mutagen_generator_assignment":[0,1],"goal":0,"start":1,"action_noise":0.15,"location_history":"[1,5,4,0]","action_history":"[1,0,0]","mutagen_history":"[1,0,0]","location_rts":"[991,458,456]","trial_type":"fractal-mutation","trial_index":77,"time_elapsed":1519980,"internal_node_id":"0.0-5.0-23.0"},{"group":"hexagon_tri","fractal_assignment":["../images/blu_wht.png","../images/org_blu.png","../images/cyn_red.png","../images/gry_blk.png","../images/pnk_blu.png","../images/ylw_slt.png"],"mutagen_generator_assignment":[0,1],"goal":2,"start":0,"action_noise":0.15,"location_history":"[0,1,3,4,2]","action_history":"[1,0,1,1]","mutagen_history":"[1,0,1,1]","location_rts":"[1210,757,371,398]","trial_type":"fractal-mutation","trial_index":78,"time_elapsed":1530261,"internal_node_id":"0.0-5.0-24.0"},{"group":"hexagon_tri","fractal_assignment":["../images/blu_wht.png","../images/org_blu.png","../images/cyn_red.png","../images/gry_blk.png","../images/pnk_blu.png","../images/ylw_slt.png"],"mutagen_generator_assignment":[0,1],"goal":4,"start":2,"action_noise":0.15,"location_history":"[2,3,2,3,4]","action_history":"[1,0,1,1]","mutagen_history":"[1,0,1,1]","location_rts":"[1265,492,473,378]","trial_type":"fractal-mutation","trial_index":79,"time_elapsed":1540605,"internal_node_id":"0.0-5.0-25.0"},{"group":"hexagon_tri","fractal_assignment":["../images/blu_wht.png","../images/org_blu.png","../images/cyn_red.png","../images/gry_blk.png","../images/pnk_blu.png","../images/ylw_slt.png"],"mutagen_generator_assignment":[0,1],"goal":5,"start":4,"action_noise":0.15,"location_history":"[4,0,5]","action_history":"[0,1]","mutagen_history":"[0,1]","location_rts":"[8575,522]","trial_type":"fractal-mutation","trial_index":80,"time_elapsed":1556224,"internal_node_id":"0.0-5.0-26.0"},{"group":"hexagon_tri","fractal_assignment":["../images/blu_wht.png","../images/org_blu.png","../images/cyn_red.png","../images/gry_blk.png","../images/pnk_blu.png","../images/ylw_slt.png"],"mutagen_generator_assignment":[0,1],"goal":2,"start":5,"action_noise":0.15,"location_history":"[5,4,2]","action_history":"[0,1]","mutagen_history":"[0,1]","location_rts":"[1102,608]","trial_type":"fractal-mutation","trial_index":81,"time_elapsed":1563457,"internal_node_id":"0.0-5.0-27.0"},{"group":"hexagon_tri","fractal_assignment":["../images/blu_wht.png","../images/org_blu.png","../images/cyn_red.png","../images/gry_blk.png","../images/pnk_blu.png","../images/ylw_slt.png"],"mutagen_generator_assignment":[0,1],"goal":3,"start":2,"action_noise":0.15,"location_history":"[2,1,3]","action_history":"[0,0]","mutagen_history":"[0,0]","location_rts":"[1221,532]","trial_type":"fractal-mutation","trial_index":82,"time_elapsed":1570724,"internal_node_id":"0.0-5.0-28.0"},{"group":"hexagon_tri","fractal_assignment":["../images/blu_wht.png","../images/org_blu.png","../images/cyn_red.png","../images/gry_blk.png","../images/pnk_blu.png","../images/ylw_slt.png"],"mutagen_generator_assignment":[0,1],"goal":1,"start":3,"action_noise":0.15,"location_history":"[3,2,3,4,2,3,4,2,1]","action_history":"[0,1,1,1,1,1,0,0]","mutagen_history":"[0,1,1,1,1,1,0,0]","location_rts":"[762,715,398,481,653,1074,1139,778]","trial_type":"fractal-mutation","trial_index":83,"time_elapsed":1588294,"internal_node_id":"0.0-5.0-29.0"},{"group":"hexagon_tri","fractal_assignment":["../images/blu_wht.png","../images/org_blu.png","../images/cyn_red.png","../images/gry_blk.png","../images/pnk_blu.png","../images/ylw_slt.png"],"mutagen_generator_assignment":[0,1],"goal":4,"start":1,"action_noise":0.15,"location_history":"[1,3,2,3,4]","action_history":"[1,0,1,1]","mutagen_history":"[1,0,1,1]","location_rts":"[920,726,492,372]","trial_type":"fractal-mutation","trial_index":84,"time_elapsed":1598347,"internal_node_id":"0.0-5.0-30.0"},{"group":"hexagon_tri","fractal_assignment":["../images/blu_wht.png","../images/org_blu.png","../images/cyn_red.png","../images/gry_blk.png","../images/pnk_blu.png","../images/ylw_slt.png"],"mutagen_generator_assignment":[0,1],"goal":5,"start":4,"action_noise":0.15,"location_history":"[4,2,1,3,2,1,3,4,0,5]","action_history":"[1,0,0,0,0,0,0,0,0]","mutagen_history":"[1,0,0,0,0,0,0,0,0]","location_rts":"[1621,1331,1292,439,524,1359,1306,526,647]","trial_type":"fractal-mutation","trial_index":85,"time_elapsed":1620600,"internal_node_id":"0.0-5.0-31.0"},{"group":"hexagon_tri","fractal_assignment":["../images/blu_wht.png","../images/org_blu.png","../images/cyn_red.png","../images/gry_blk.png","../images/pnk_blu.png","../images/ylw_slt.png"],"mutagen_generator_assignment":[0,1],"goal":0,"start":5,"action_noise":0.15,"location_history":"[5,0]","action_history":"[1]","mutagen_history":"[1]","location_rts":"[694]","trial_type":"fractal-mutation","trial_index":86,"time_elapsed":1625814,"internal_node_id":"0.0-5.0-32.0"},{"group":"hexagon_tri","fractal_assignment":["../images/blu_wht.png","../images/org_blu.png","../images/cyn_red.png","../images/gry_blk.png","../images/pnk_blu.png","../images/ylw_slt.png"],"mutagen_generator_assignment":[0,1],"goal":2,"start":0,"action_noise":0.15,"location_history":"[0,1,3,2]","action_history":"[0,0,1]","mutagen_history":"[0,0,1]","location_rts":"[2496,526,362]","trial_type":"fractal-mutation","trial_index":87,"time_elapsed":1636509,"internal_node_id":"0.0-5.0-33.0"},{"group":"hexagon_tri","fractal_assignment":["../images/blu_wht.png","../images/org_blu.png","../images/cyn_red.png","../images/gry_blk.png","../images/pnk_blu.png","../images/ylw_slt.png"],"mutagen_generator_assignment":[0,1],"goal":0,"start":2,"action_noise":0.15,"location_history":"[2,1,5,0]","action_history":"[0,1,1]","mutagen_history":"[0,1,1]","location_rts":"[896,387,486]","trial_type":"fractal-mutation","trial_index":88,"time_elapsed":1644808,"internal_node_id":"0.0-5.0-34.0"},{"group":"hexagon_tri","fractal_assignment":["../images/blu_wht.png","../images/org_blu.png","../images/cyn_red.png","../images/gry_blk.png","../images/pnk_blu.png","../images/ylw_slt.png"],"mutagen_generator_assignment":[0,1],"goal":5,"start":0,"action_noise":0.15,"location_history":"[0,1,3,2,3,4,2,1,5]","action_history":"[0,1,1,1,1,1,1,1]","mutagen_history":"[0,1,1,1,1,1,1,1]","location_rts":"[2689,7919,434,547,802,752,436,706]","trial_type":"fractal-mutation","trial_index":89,"time_elapsed":1672201,"internal_node_id":"0.0-5.0-35.0"},{"group":"hexagon_tri","fractal_assignment":["../images/blu_wht.png","../images/org_blu.png","../images/cyn_red.png","../images/gry_blk.png","../images/pnk_blu.png","../images/ylw_slt.png"],"mutagen_generator_assignment":[0,1],"goal":1,"start":5,"action_noise":0.15,"location_history":"[5,4,2,3,4,2,1]","action_history":"[0,1,1,1,0,0]","mutagen_history":"[0,1,1,1,0,0]","location_rts":"[924,688,612,613,784,467]","trial_type":"fractal-mutation","trial_index":90,"time_elapsed":1687113,"internal_node_id":"0.0-5.0-36.0"},{"group":"hexagon_tri","fractal_assignment":["../images/blu_wht.png","../images/org_blu.png","../images/cyn_red.png","../images/gry_blk.png","../images/pnk_blu.png","../images/ylw_slt.png"],"mutagen_generator_assignment":[0,1],"goal":4,"start":1,"action_noise":0.15,"location_history":"[1,5,0,1,5,0,5,4]","action_history":"[1,1,1,1,1,0,0]","mutagen_history":"[1,1,1,1,1,0,0]","location_rts":"[1246,958,394,376,63,723,524]","trial_type":"fractal-mutation","trial_index":91,"time_elapsed":1703347,"internal_node_id":"0.0-5.0-37.0"},{"group":"hexagon_tri","fractal_assignment":["../images/blu_wht.png","../images/org_blu.png","../images/cyn_red.png","../images/gry_blk.png","../images/pnk_blu.png","../images/ylw_slt.png"],"mutagen_generator_assignment":[0,1],"goal":3,"start":4,"action_noise":0.15,"location_history":"[4,2,3]","action_history":"[1,1]","mutagen_history":"[1,1]","location_rts":"[1043,393]","trial_type":"fractal-mutation","trial_index":92,"time_elapsed":1710312,"internal_node_id":"0.0-5.0-38.0"},{"group":"hexagon_tri","fractal_assignment":["../images/blu_wht.png","../images/org_blu.png","../images/cyn_red.png","../images/gry_blk.png","../images/pnk_blu.png","../images/ylw_slt.png"],"mutagen_generator_assignment":[0,1],"goal":5,"start":3,"action_noise":0.15,"location_history":"[3,4,2,1,3,4,0,1,5]","action_history":"[1,1,0,1,1,0,0,0]","mutagen_history":"[1,1,0,1,1,0,0,0]","location_rts":"[894,933,597,880,487,501,531,484]","trial_type":"fractal-mutation","trial_index":93,"time_elapsed":1727209,"internal_node_id":"0.0-5.0-39.0"},{"group":"hexagon_tri","fractal_assignment":["../images/blu_wht.png","../images/org_blu.png","../images/cyn_red.png","../images/gry_blk.png","../images/pnk_blu.png","../images/ylw_slt.png"],"mutagen_generator_assignment":[0,1],"goal":1,"start":5,"action_noise":0.15,"location_history":"[5,4,0,1]","action_history":"[1,1,1]","mutagen_history":"[1,1,1]","location_rts":"[693,476,862]","trial_type":"fractal-mutation","trial_index":94,"time_elapsed":1735793,"internal_node_id":"0.0-5.0-40.0"},{"group":"hexagon_tri","fractal_assignment":["../images/blu_wht.png","../images/org_blu.png","../images/cyn_red.png","../images/gry_blk.png","../images/pnk_blu.png","../images/ylw_slt.png"],"mutagen_generator_assignment":[0,1],"goal":2,"start":1,"action_noise":0.15,"location_history":"[1,5,4,2]","action_history":"[1,0,0]","mutagen_history":"[1,0,0]","location_rts":"[1028,458,2512]","trial_type":"fractal-mutation","trial_index":95,"time_elapsed":1746323,"internal_node_id":"0.0-5.0-41.0"},{"group":"hexagon_tri","fractal_assignment":["../images/blu_wht.png","../images/org_blu.png","../images/cyn_red.png","../images/gry_blk.png","../images/pnk_blu.png","../images/ylw_slt.png"],"mutagen_generator_assignment":[0,1],"goal":4,"start":2,"action_noise":0.15,"location_history":"[2,3,4]","action_history":"[1,1]","mutagen_history":"[1,1]","location_rts":"[866,787]","trial_type":"fractal-mutation","trial_index":96,"time_elapsed":1753505,"internal_node_id":"0.0-5.0-42.0"},{"group":"hexagon_tri","fractal_assignment":["../images/blu_wht.png","../images/org_blu.png","../images/cyn_red.png","../images/gry_blk.png","../images/pnk_blu.png","../images/ylw_slt.png"],"mutagen_generator_assignment":[0,1],"goal":0,"start":4,"action_noise":0.15,"location_history":"[4,0]","action_history":"[0]","mutagen_history":"[0]","location_rts":"[1350]","trial_type":"fractal-mutation","trial_index":97,"time_elapsed":1759365,"internal_node_id":"0.0-5.0-43.0"},{"group":"hexagon_tri","fractal_assignment":["../images/blu_wht.png","../images/org_blu.png","../images/cyn_red.png","../images/gry_blk.png","../images/pnk_blu.png","../images/ylw_slt.png"],"mutagen_generator_assignment":[0,1],"goal":3,"start":0,"action_noise":0.15,"location_history":"[0,1,5,0,5,0,1,5,0,5,0,1,3]","action_history":"[1,1,1,0,1,1,1,1,0,1,1,0]","mutagen_history":"[1,1,1,0,1,1,1,1,0,1,1,0]","location_rts":"[921,415,436,495,340,344,561,549,402,355,492,459]","trial_type":"fractal-mutation","trial_index":98,"time_elapsed":1780768,"internal_node_id":"0.0-5.0-44.0"},{"group":"hexagon_tri","fractal_assignment":["../images/blu_wht.png","../images/org_blu.png","../images/cyn_red.png","../images/gry_blk.png","../images/pnk_blu.png","../images/ylw_slt.png"],"mutagen_generator_assignment":[0,1],"goal":0,"start":3,"action_noise":0.15,"location_history":"[3,2,3,2,1,3,2,3,4,0]","action_history":"[0,1,0,0,0,0,1,1,0]","mutagen_history":"[0,1,0,0,0,0,1,1,0]","location_rts":"[998,527,581,412,458,876,818,677,496]","trial_type":"fractal-mutation","trial_index":99,"time_elapsed":1799200,"internal_node_id":"0.0-5.0-45.0"},{"group":"hexagon_tri","fractal_assignment":["../images/blu_wht.png","../images/org_blu.png","../images/cyn_red.png","../images/gry_blk.png","../images/pnk_blu.png","../images/ylw_slt.png"],"mutagen_generator_assignment":[0,1],"goal":4,"start":0,"action_noise":0.15,"location_history":"[0,1,5,0,1,3,2,1,3,2,3,4]","action_history":"[1,1,1,0,0,0,0,0,0,0,1]","mutagen_history":"[1,1,1,0,0,0,0,0,0,0,1]","location_rts":"[638,715,607,789,523,575,530,564,763,577,426]","trial_type":"fractal-mutation","trial_index":100,"time_elapsed":1820509,"internal_node_id":"0.0-5.0-46.0"},{"group":"hexagon_tri","fractal_assignment":["../images/blu_wht.png","../images/org_blu.png","../images/cyn_red.png","../images/gry_blk.png","../images/pnk_blu.png","../images/ylw_slt.png"],"mutagen_generator_assignment":[0,1],"goal":5,"start":4,"action_noise":0.15,"location_history":"[4,0,1,5]","action_history":"[0,1,1]","mutagen_history":"[0,1,1]","location_rts":"[1257,665,633]","trial_type":"fractal-mutation","trial_index":101,"time_elapsed":1829603,"internal_node_id":"0.0-5.0-47.0"},{"group":"hexagon_tri","fractal_assignment":["../images/blu_wht.png","../images/org_blu.png","../images/cyn_red.png","../images/gry_blk.png","../images/pnk_blu.png","../images/ylw_slt.png"],"mutagen_generator_assignment":[0,1],"goal":2,"start":5,"action_noise":0.15,"location_history":"[5,0,5,0,5,4,2]","action_history":"[1,0,1,0,0,1]","mutagen_history":"[1,0,1,0,0,1]","location_rts":"[868,25865,3484,2818,747,623]","trial_type":"fractal-mutation","trial_index":102,"time_elapsed":1873574,"internal_node_id":"0.0-5.0-48.0"},{"group":"hexagon_tri","fractal_assignment":["../images/blu_wht.png","../images/org_blu.png","../images/cyn_red.png","../images/gry_blk.png","../images/pnk_blu.png","../images/ylw_slt.png"],"mutagen_generator_assignment":[0,1],"goal":1,"start":2,"action_noise":0.15,"location_history":"[2,1]","action_history":"[0]","mutagen_history":"[0]","location_rts":"[1544]","trial_type":"fractal-mutation","trial_index":103,"time_elapsed":1879626,"internal_node_id":"0.0-5.0-49.0"},{"view_history":"[{\"page_index\":0,\"viewing_time\":3022}]","rt":3022,"trial_type":"instructions","trial_index":104,"time_elapsed":1883648,"internal_node_id":"0.0-6.0"},{"rt":16823,"responses":"{\"Q0\":\"If people can remember the pattern of the doors.\"}","trial_type":"survey-text","trial_index":105,"time_elapsed":1901474,"internal_node_id":"0.0-7.0-0.0"},{"rt":18710,"responses":"{\"Q0\":\"If people can remember the symbols and when to press the buttons to go back to the symbols.\"}","trial_type":"survey-text","trial_index":106,"time_elapsed":1921184,"internal_node_id":"0.0-7.0-1.0"},{"rt":14486,"responses":"{\"Q0\":\"<img src='../images/diagrams/hexagon_tri.png'>\"}","trial_type":"survey-multi-choice","trial_index":107,"time_elapsed":1936674,"internal_node_id":"0.0-7.0-2.0"},{"rt":37965,"assignments":["../images/blu_wht.png","../images/cyn_red.png","../images/org_blu.png","../images/ylw_slt.png","../images/pnk_blu.png","../images/gry_blk.png"],"trial_type":"drag-drop-on-image","trial_index":108,"time_elapsed":1975641,"internal_node_id":"0.0-7.0-3.0"},{"rt":4789,"responses":"{\"Q0\":\"2\"}","trial_type":"survey-likert","trial_index":109,"time_elapsed":1981433,"internal_node_id":"0.0-7.0-4.0"},{"rt":32190,"responses":"{\"Q0\":\"There's a pattern in both of them and depending on your action it goes to the pattern, probably sometimes random.\"}","trial_type":"survey-text","trial_index":110,"time_elapsed":2014625,"internal_node_id":"0.0-7.0-5.0"},{"rt":43006,"responses":"{\"Q0\":\"No\"}","trial_type":"survey-multi-choice","trial_index":111,"time_elapsed":2058632,"internal_node_id":"0.0-7.0-6.0"},{"rt":4229,"responses":"{\"Q0\":\"Did not notice\"}","trial_type":"survey-multi-choice","trial_index":112,"time_elapsed":2063864,"internal_node_id":"0.0-7.0-7.0"},{"rt":5023,"responses":"{\"Q0\":\"\"}","trial_type":"survey-text","trial_index":113,"time_elapsed":2069889,"internal_node_id":"0.0-7.0-8.0"},{"rt":8670,"responses":"{\"Q0\":\"0\"}","trial_type":"survey-likert","trial_index":114,"time_elapsed":2079561,"internal_node_id":"0.0-7.0-9.0"},{"rt":17150,"responses":"{\"Q0\":\"Different structure\"}","trial_type":"survey-multi-choice","trial_index":115,"time_elapsed":2097713,"internal_node_id":"0.0-7.0-10.0"},{"rt":75126,"responses":"{\"Q0\":\"left (black) door = acid, right (white) door = ray\",\"Q1\":\"Not at all confident\"}","trial_type":"survey-multi-choice","trial_index":116,"time_elapsed":2173842,"internal_node_id":"0.0-7.0-11.0"},{"rt":5602,"responses":"{\"Q0\":\"25-35\",\"Q1\":\"Some college\",\"Q2\":\"Female\",\"Q3\":\"Asian\"}","trial_type":"survey-multi-choice","trial_index":117,"time_elapsed":2180451,"internal_node_id":"0.0-8.0"},{"rt":12263,"responses":"{\"Q0\":\"thank you for the hit! It was well paid!\"}","trial_type":"survey-text","trial_index":118,"time_elapsed":2193714,"internal_node_id":"0.0-9.0"}]