[{"view_history":"[{\"page_index\":0,\"viewing_time\":3543},{\"page_index\":1,\"viewing_time\":17838}]","rt":21382,"trial_type":"instructions","trial_index":0,"time_elapsed":21383,"internal_node_id":"0.0-0.0"},{"view_history":"[{\"page_index\":0,\"viewing_time\":3238},{\"page_index\":1,\"viewing_time\":17208}]","rt":20446,"trial_type":"instructions","trial_index":1,"time_elapsed":42829,"internal_node_id":"0.0-1.0"},{"group":"hexagon_bi","room_assignment":["purple","blue","yellow","green","red","grey"],"door_color_assignment":["black","white"],"door_generator_assignment":[1,0],"goal":2,"start":1,"action_noise":0.15,"location_history":"[1,2]","action_history":"[0]","door_history":"[1]","location_rts":"[2324]","trial_type":"two-door-navigation","trial_index":2,"time_elapsed":49681,"internal_node_id":"0.0-2.0-0.0"},{"group":"hexagon_bi","room_assignment":["purple","blue","yellow","green","red","grey"],"door_color_assignment":["black","white"],"door_generator_assignment":[1,0],"goal":0,"start":2,"action_noise":0.15,"location_history":"[2,1,0]","action_history":"[0,1]","door_history":"[1,0]","location_rts":"[387,557]","trial_type":"two-door-navigation","trial_index":3,"time_elapsed":56171,"internal_node_id":"0.0-2.0-1.0"},{"group":"hexagon_bi","room_assignment":["purple","blue","yellow","green","red","grey"],"door_color_assignment":["black","white"],"door_generator_assignment":[1,0],"goal":5,"start":0,"action_noise":0.15,"location_history":"[0,5]","action_history":"[0]","door_history":"[1]","location_rts":"[585]","trial_type":"two-door-navigation","trial_index":4,"time_elapsed":61285,"internal_node_id":"0.0-2.0-2.0"},{"group":"hexagon_bi","room_assignment":["purple","blue","yellow","green","red","grey"],"door_color_assignment":["black","white"],"door_generator_assignment":[1,0],"goal":1,"start":5,"action_noise":0.15,"location_history":"[5,4,3,4,5,0,5,4,5,4,3,4,5,0,5,4,3,2,1]","action_history":"[1,0,0,1,0,0,1,1,0,0,0,1,0,0,0,0,1,0]","door_history":"[0,1,1,0,1,1,0,0,1,1,1,0,1,1,1,1,0,1]","location_rts":"[416,557,468,470,360,172,299,510,355,487,503,260,293,489,882,1124,949,1021]","trial_type":"two-door-navigation","trial_index":5,"time_elapsed":92867,"internal_node_id":"0.0-2.0-3.0"},{"group":"hexagon_bi","room_assignment":["purple","blue","yellow","green","red","grey"],"door_color_assignment":["black","white"],"door_generator_assignment":[1,0],"goal":3,"start":1,"action_noise":0.15,"location_history":"[1,2,3]","action_history":"[0,1]","door_history":"[1,0]","location_rts":"[903,561]","trial_type":"two-door-navigation","trial_index":6,"time_elapsed":99879,"internal_node_id":"0.0-2.0-4.0"},{"group":"hexagon_bi","room_assignment":["purple","blue","yellow","green","red","grey"],"door_color_assignment":["black","white"],"door_generator_assignment":[1,0],"goal":5,"start":3,"action_noise":0.15,"location_history":"[3,2,3,2,3,2,3,4,3,2,3,4,5]","action_history":"[0,1,0,1,1,1,0,0,0,1,0,1]","door_history":"[1,0,1,0,0,0,1,1,1,0,1,0]","location_rts":"[283,490,369,453,203,294,207,259,362,228,469,434]","trial_type":"two-door-navigation","trial_index":7,"time_elapsed":120424,"internal_node_id":"0.0-2.0-5.0"},{"group":"hexagon_bi","room_assignment":["purple","blue","yellow","green","red","grey"],"door_color_assignment":["black","white"],"door_generator_assignment":[1,0],"goal":4,"start":5,"action_noise":0.15,"location_history":"[5,0,5,0,1,0,5,0,5,4]","action_history":"[0,1,0,1,1,0,0,0,1]","door_history":"[1,0,1,0,0,1,1,1,0]","location_rts":"[46578,1495,578,412,255,368,288,397,255]","trial_type":"two-door-navigation","trial_index":8,"time_elapsed":184774,"internal_node_id":"0.0-2.0-6.0"},{"group":"hexagon_bi","room_assignment":["purple","blue","yellow","green","red","grey"],"door_color_assignment":["black","white"],"door_generator_assignment":[1,0],"goal":0,"start":4,"action_noise":0.15,"location_history":"[4,5,0]","action_history":"[1,0]","door_history":"[0,1]","location_rts":"[2357,842]","trial_type":"two-door-navigation","trial_index":9,"time_elapsed":193525,"internal_node_id":"0.0-2.0-7.0"},{"group":"hexagon_bi","room_assignment":["purple","blue","yellow","green","red","grey"],"door_color_assignment":["black","white"],"door_generator_assignment":[1,0],"goal":2,"start":0,"action_noise":0.15,"location_history":"[0,5,0,1,2]","action_history":"[0,0,1,0]","door_history":"[1,1,0,1]","location_rts":"[861,1154,439,409]","trial_type":"two-door-navigation","trial_index":10,"time_elapsed":203991,"internal_node_id":"0.0-2.0-8.0"},{"group":"hexagon_bi","room_assignment":["purple","blue","yellow","green","red","grey"],"door_color_assignment":["black","white"],"door_generator_assignment":[1,0],"goal":4,"start":2,"action_noise":0.15,"location_history":"[2,3,2,1,2,1,2,3,2,1,0,1,2,1,0,5,4]","action_history":"[0,1,0,1,1,0,0,1,0,1,0,0,0,0,0,1]","door_history":"[1,0,1,0,0,1,1,0,1,0,1,1,1,1,1,0]","location_rts":"[675,686,718,405,89,265,268,1222,681,1054,814,628,736,768,602,289]","trial_type":"two-door-navigation","trial_index":11,"time_elapsed":233779,"internal_node_id":"0.0-2.0-9.0"},{"group":"hexagon_bi","room_assignment":["purple","blue","yellow","green","red","grey"],"door_color_assignment":["black","white"],"door_generator_assignment":[1,0],"goal":2,"start":4,"action_noise":0.15,"location_history":"[4,3,2]","action_history":"[0,1]","door_history":"[1,0]","location_rts":"[280,491]","trial_type":"two-door-navigation","trial_index":12,"time_elapsed":240102,"internal_node_id":"0.0-2.0-10.0"},{"group":"hexagon_bi","room_assignment":["purple","blue","yellow","green","red","grey"],"door_color_assignment":["black","white"],"door_generator_assignment":[1,0],"goal":3,"start":2,"action_noise":0.15,"location_history":"[2,1,0,5,4,3]","action_history":"[0,1,1,1,0]","door_history":"[1,0,0,0,1]","location_rts":"[427,462,320,834,279]","trial_type":"two-door-navigation","trial_index":13,"time_elapsed":251047,"internal_node_id":"0.0-2.0-11.0"},{"group":"hexagon_bi","room_assignment":["purple","blue","yellow","green","red","grey"],"door_color_assignment":["black","white"],"door_generator_assignment":[1,0],"goal":0,"start":3,"action_noise":0.15,"location_history":"[3,2,1,0]","action_history":"[1,0,1]","door_history":"[0,1,0]","location_rts":"[378,332,351]","trial_type":"two-door-navigation","trial_index":14,"time_elapsed":258692,"internal_node_id":"0.0-2.0-12.0"},{"group":"hexagon_bi","room_assignment":["purple","blue","yellow","green","red","grey"],"door_color_assignment":["black","white"],"door_generator_assignment":[1,0],"goal":5,"start":0,"action_noise":0.15,"location_history":"[0,5]","action_history":"[1]","door_history":"[0]","location_rts":"[286]","trial_type":"two-door-navigation","trial_index":15,"time_elapsed":263503,"internal_node_id":"0.0-2.0-13.0"},{"group":"hexagon_bi","room_assignment":["purple","blue","yellow","green","red","grey"],"door_color_assignment":["black","white"],"door_generator_assignment":[1,0],"goal":1,"start":5,"action_noise":0.15,"location_history":"[5,0,1]","action_history":"[0,1]","door_history":"[1,0]","location_rts":"[547,549]","trial_type":"two-door-navigation","trial_index":16,"time_elapsed":270150,"internal_node_id":"0.0-2.0-14.0"},{"group":"hexagon_bi","room_assignment":["purple","blue","yellow","green","red","grey"],"door_color_assignment":["black","white"],"door_generator_assignment":[1,0],"goal":5,"start":1,"action_noise":0.15,"location_history":"[1,0,1,2,3,4,3,4,5]","action_history":"[0,1,0,1,0,0,0,1]","door_history":"[1,0,1,0,1,1,1,0]","location_rts":"[364,509,310,399,231,160,299,219]","trial_type":"two-door-navigation","trial_index":17,"time_elapsed":284337,"internal_node_id":"0.0-2.0-15.0"},{"group":"hexagon_bi","room_assignment":["purple","blue","yellow","green","red","grey"],"door_color_assignment":["black","white"],"door_generator_assignment":[1,0],"goal":3,"start":5,"action_noise":0.15,"location_history":"[5,0,1,0,1,2,3]","action_history":"[0,1,0,1,0,1]","door_history":"[1,0,1,0,1,0]","location_rts":"[280,499,558,415,721,301]","trial_type":"two-door-navigation","trial_index":18,"time_elapsed":296761,"internal_node_id":"0.0-2.0-16.0"},{"group":"hexagon_bi","room_assignment":["purple","blue","yellow","green","red","grey"],"door_color_assignment":["black","white"],"door_generator_assignment":[1,0],"goal":2,"start":3,"action_noise":0.15,"location_history":"[3,4,3,2]","action_history":"[0,0,1]","door_history":"[1,1,0]","location_rts":"[567,455,553]","trial_type":"two-door-navigation","trial_index":19,"time_elapsed":304910,"internal_node_id":"0.0-2.0-17.0"},{"group":"hexagon_bi","room_assignment":["purple","blue","yellow","green","red","grey"],"door_color_assignment":["black","white"],"door_generator_assignment":[1,0],"goal":1,"start":2,"action_noise":0.15,"location_history":"[2,1]","action_history":"[0]","door_history":"[1]","location_rts":"[724]","trial_type":"two-door-navigation","trial_index":20,"time_elapsed":310161,"internal_node_id":"0.0-2.0-18.0"},{"group":"hexagon_bi","room_assignment":["purple","blue","yellow","green","red","grey"],"door_color_assignment":["black","white"],"door_generator_assignment":[1,0],"goal":4,"start":1,"action_noise":0.15,"location_history":"[1,2,3,2,1,2,1,2,3,2,3,2,1,2,1,0,1,2,3,4]","action_history":"[0,1,1,1,0,0,1,1,0,1,1,0,0,0,1,1,0,1,1]","door_history":"[1,0,0,0,1,1,0,0,1,0,0,1,1,1,0,0,1,0,0]","location_rts":"[403,2751,10240,529,342,966,411,459,53595,1527,684,353,327,765,120,1506,265,263,160]","trial_type":"two-door-navigation","trial_index":21,"time_elapsed":408761,"internal_node_id":"0.0-2.0-19.0"},{"group":"hexagon_bi","room_assignment":["purple","blue","yellow","green","red","grey"],"door_color_assignment":["black","white"],"door_generator_assignment":[1,0],"goal":0,"start":4,"action_noise":0.15,"location_history":"[4,5,0]","action_history":"[1,0]","door_history":"[0,1]","location_rts":"[1599,623]","trial_type":"two-door-navigation","trial_index":22,"time_elapsed":416535,"internal_node_id":"0.0-2.0-20.0"},{"group":"hexagon_bi","room_assignment":["purple","blue","yellow","green","red","grey"],"door_color_assignment":["black","white"],"door_generator_assignment":[1,0],"goal":3,"start":0,"action_noise":0.15,"location_history":"[0,5,4,3]","action_history":"[0,1,1]","door_history":"[1,0,0]","location_rts":"[7585,748,70047]","trial_type":"two-door-navigation","trial_index":23,"time_elapsed":502424,"internal_node_id":"0.0-2.0-21.0"},{"group":"hexagon_bi","room_assignment":["purple","blue","yellow","green","red","grey"],"door_color_assignment":["black","white"],"door_generator_assignment":[1,0],"goal":1,"start":3,"action_noise":0.15,"location_history":"[3,4,3,4,5,0,5,0,5,0,1]","action_history":"[0,0,1,1,0,1,0,0,0,1]","door_history":"[1,1,0,0,1,0,1,1,1,0]","location_rts":"[24672,479,503,739,947,1020,630,370,558,648]","trial_type":"two-door-navigation","trial_index":24,"time_elapsed":547733,"internal_node_id":"0.0-2.0-22.0"},{"group":"hexagon_bi","room_assignment":["purple","blue","yellow","green","red","grey"],"door_color_assignment":["black","white"],"door_generator_assignment":[1,0],"goal":0,"start":1,"action_noise":0.15,"location_history":"[1,2,3,2,3,2,3,4,5,0]","action_history":"[0,1,0,1,1,0,0,1,0]","door_history":"[1,0,1,0,0,1,1,0,1]","location_rts":"[331,373,398,251,386,188,272,660,352]","trial_type":"two-door-navigation","trial_index":25,"time_elapsed":563664,"internal_node_id":"0.0-2.0-23.0"},{"group":"hexagon_bi","room_assignment":["purple","blue","yellow","green","red","grey"],"door_color_assignment":["black","white"],"door_generator_assignment":[1,0],"goal":2,"start":0,"action_noise":0.15,"location_history":"[0,5,0,5,0,5,4,3,4,3,2]","action_history":"[0,0,1,1,0,1,0,0,0,1]","door_history":"[1,1,0,0,1,0,1,1,1,0]","location_rts":"[409,411,414,391,312,230,268,198,180,323]","trial_type":"two-door-navigation","trial_index":26,"time_elapsed":581423,"internal_node_id":"0.0-2.0-24.0"},{"group":"hexagon_bi","room_assignment":["purple","blue","yellow","green","red","grey"],"door_color_assignment":["black","white"],"door_generator_assignment":[1,0],"goal":4,"start":2,"action_noise":0.15,"location_history":"[2,3,4]","action_history":"[1,0]","door_history":"[0,1]","location_rts":"[66704,560]","trial_type":"two-door-navigation","trial_index":27,"time_elapsed":655235,"internal_node_id":"0.0-2.0-25.0"},{"group":"hexagon_bi","room_assignment":["purple","blue","yellow","green","red","grey"],"door_color_assignment":["black","white"],"door_generator_assignment":[1,0],"goal":5,"start":4,"action_noise":0.15,"location_history":"[4,5]","action_history":"[1]","door_history":"[0]","location_rts":"[660]","trial_type":"two-door-navigation","trial_index":28,"time_elapsed":660422,"internal_node_id":"0.0-2.0-26.0"},{"group":"hexagon_bi","room_assignment":["purple","blue","yellow","green","red","grey"],"door_color_assignment":["black","white"],"door_generator_assignment":[1,0],"goal":2,"start":5,"action_noise":0.15,"location_history":"[5,0,1,2]","action_history":"[0,1,0]","door_history":"[1,0,1]","location_rts":"[937,672,466]","trial_type":"two-door-navigation","trial_index":29,"time_elapsed":669068,"internal_node_id":"0.0-2.0-27.0"},{"group":"hexagon_bi","room_assignment":["purple","blue","yellow","green","red","grey"],"door_color_assignment":["black","white"],"door_generator_assignment":[1,0],"goal":3,"start":2,"action_noise":0.15,"location_history":"[2,1,0,5,0,5,0,1,0,5,0,5,0,1,2,3]","action_history":"[0,1,0,0,0,1,1,1,0,1,0,0,1,0,1]","door_history":"[1,0,1,1,1,0,0,0,1,0,1,1,0,1,0]","location_rts":"[421,464,415,344,331,264,603,950,567,673,313,465,375,215,267]","trial_type":"two-door-navigation","trial_index":30,"time_elapsed":695423,"internal_node_id":"0.0-2.0-28.0"},{"group":"hexagon_bi","room_assignment":["purple","blue","yellow","green","red","grey"],"door_color_assignment":["black","white"],"door_generator_assignment":[1,0],"goal":1,"start":3,"action_noise":0.15,"location_history":"[3,4,5,0,5,4,5,0,5,0,1]","action_history":"[0,1,0,0,1,1,0,0,1,1]","door_history":"[1,0,1,1,0,0,1,1,0,0]","location_rts":"[95440,6787,760,476,275,347,431,1064,616,337]","trial_type":"two-door-navigation","trial_index":31,"time_elapsed":816697,"internal_node_id":"0.0-2.0-29.0"},{"group":"hexagon_bi","room_assignment":["purple","blue","yellow","green","red","grey"],"door_color_assignment":["black","white"],"door_generator_assignment":[1,0],"goal":4,"start":1,"action_noise":0.15,"location_history":"[1,2,1,0,5,0,1,2,3,4]","action_history":"[0,0,1,0,1,1,0,1,0]","door_history":"[1,1,0,1,0,0,1,0,1]","location_rts":"[776,1090,1244,596,389,267,513,446,286]","trial_type":"two-door-navigation","trial_index":32,"time_elapsed":835424,"internal_node_id":"0.0-2.0-30.0"},{"group":"hexagon_bi","room_assignment":["purple","blue","yellow","green","red","grey"],"door_color_assignment":["black","white"],"door_generator_assignment":[1,0],"goal":5,"start":4,"action_noise":0.15,"location_history":"[4,5]","action_history":"[1]","door_history":"[0]","location_rts":"[115822]","trial_type":"two-door-navigation","trial_index":33,"time_elapsed":956773,"internal_node_id":"0.0-2.0-31.0"},{"group":"hexagon_bi","room_assignment":["purple","blue","yellow","green","red","grey"],"door_color_assignment":["black","white"],"door_generator_assignment":[1,0],"goal":0,"start":5,"action_noise":0.15,"location_history":"[5,0]","action_history":"[0]","door_history":"[1]","location_rts":"[2289]","trial_type":"two-door-navigation","trial_index":34,"time_elapsed":963589,"internal_node_id":"0.0-2.0-32.0"},{"group":"hexagon_bi","room_assignment":["purple","blue","yellow","green","red","grey"],"door_color_assignment":["black","white"],"door_generator_assignment":[1,0],"goal":2,"start":0,"action_noise":0.15,"location_history":"[0,5,4,3,2]","action_history":"[0,1,0,1]","door_history":"[1,0,1,0]","location_rts":"[1376,521,389,436]","trial_type":"two-door-navigation","trial_index":35,"time_elapsed":973910,"internal_node_id":"0.0-2.0-33.0"},{"group":"hexagon_bi","room_assignment":["purple","blue","yellow","green","red","grey"],"door_color_assignment":["black","white"],"door_generator_assignment":[1,0],"goal":0,"start":2,"action_noise":0.15,"location_history":"[2,1,2,3,4,3,4,5,4,3,2,1,0]","action_history":"[1,0,1,0,0,0,1,1,0,0,0,1]","door_history":"[0,1,0,1,1,1,0,0,1,1,1,0]","location_rts":"[154606,1672,594,352,312,311,583,766,420,481,1663,522]","trial_type":"two-door-navigation","trial_index":36,"time_elapsed":1151977,"internal_node_id":"0.0-2.0-34.0"},{"group":"hexagon_bi","room_assignment":["purple","blue","yellow","green","red","grey"],"door_color_assignment":["black","white"],"door_generator_assignment":[1,0],"goal":5,"start":0,"action_noise":0.15,"location_history":"[0,1,2,3,4,3,2,3,4,5]","action_history":"[1,0,1,0,0,1,1,0,1]","door_history":"[0,1,0,1,1,0,0,1,0]","location_rts":"[3156,88097,637,302,361,271,228,248,213]","trial_type":"two-door-navigation","trial_index":37,"time_elapsed":1258218,"internal_node_id":"0.0-2.0-35.0"},{"group":"hexagon_bi","room_assignment":["purple","blue","yellow","green","red","grey"],"door_color_assignment":["black","white"],"door_generator_assignment":[1,0],"goal":1,"start":5,"action_noise":0.15,"location_history":"[5,0,1]","action_history":"[0,0]","door_history":"[1,1]","location_rts":"[931,517]","trial_type":"two-door-navigation","trial_index":38,"time_elapsed":1265215,"internal_node_id":"0.0-2.0-36.0"},{"group":"hexagon_bi","room_assignment":["purple","blue","yellow","green","red","grey"],"door_color_assignment":["black","white"],"door_generator_assignment":[1,0],"goal":4,"start":1,"action_noise":0.15,"location_history":"[1,2,3,2,1,2,3,4]","action_history":"[0,1,0,0,0,1,0]","door_history":"[1,0,1,1,1,0,1]","location_rts":"[2030,1607,1278,472,422,298,420]","trial_type":"two-door-navigation","trial_index":39,"time_elapsed":1282402,"internal_node_id":"0.0-2.0-37.0"},{"group":"hexagon_bi","room_assignment":["purple","blue","yellow","green","red","grey"],"door_color_assignment":["black","white"],"door_generator_assignment":[1,0],"goal":3,"start":4,"action_noise":0.15,"location_history":"[4,3]","action_history":"[0]","door_history":"[1]","location_rts":"[4171]","trial_type":"two-door-navigation","trial_index":40,"time_elapsed":1291103,"internal_node_id":"0.0-2.0-38.0"},{"group":"hexagon_bi","room_assignment":["purple","blue","yellow","green","red","grey"],"door_color_assignment":["black","white"],"door_generator_assignment":[1,0],"goal":5,"start":3,"action_noise":0.15,"location_history":"[3,4,5]","action_history":"[0,1]","door_history":"[1,0]","location_rts":"[1253,477]","trial_type":"two-door-navigation","trial_index":41,"time_elapsed":1298379,"internal_node_id":"0.0-2.0-39.0"},{"group":"hexagon_bi","room_assignment":["purple","blue","yellow","green","red","grey"],"door_color_assignment":["black","white"],"door_generator_assignment":[1,0],"goal":1,"start":5,"action_noise":0.15,"location_history":"[5,0,5,0,5,4,5,0,5,0,5,4,3,4,5,0,1]","action_history":"[1,0,0,0,0,1,0,0,0,1,1,0,0,1,0,0]","door_history":"[0,1,1,1,1,0,1,1,1,0,0,1,1,0,1,1]","location_rts":"[521,523,401,331,272,269,600,198,173,127,353,0,220,174,91,0]","trial_type":"two-door-navigation","trial_index":42,"time_elapsed":1323423,"internal_node_id":"0.0-2.0-40.0"},{"group":"hexagon_bi","room_assignment":["purple","blue","yellow","green","red","grey"],"door_color_assignment":["black","white"],"door_generator_assignment":[1,0],"goal":2,"start":1,"action_noise":0.15,"location_history":"[1,2]","action_history":"[0]","door_history":"[1]","location_rts":"[54803]","trial_type":"two-door-navigation","trial_index":43,"time_elapsed":1383751,"internal_node_id":"0.0-2.0-41.0"},{"group":"hexagon_bi","room_assignment":["purple","blue","yellow","green","red","grey"],"door_color_assignment":["black","white"],"door_generator_assignment":[1,0],"goal":4,"start":2,"action_noise":0.15,"location_history":"[2,3,4]","action_history":"[1,0]","door_history":"[0,1]","location_rts":"[1757,470]","trial_type":"two-door-navigation","trial_index":44,"time_elapsed":1391533,"internal_node_id":"0.0-2.0-42.0"},{"group":"hexagon_bi","room_assignment":["purple","blue","yellow","green","red","grey"],"door_color_assignment":["black","white"],"door_generator_assignment":[1,0],"goal":0,"start":4,"action_noise":0.15,"location_history":"[4,3,2,1,0]","action_history":"[1,0,0,1]","door_history":"[0,1,1,0]","location_rts":"[2308,734,578,660]","trial_type":"two-door-navigation","trial_index":45,"time_elapsed":1403407,"internal_node_id":"0.0-2.0-43.0"},{"group":"hexagon_bi","room_assignment":["purple","blue","yellow","green","red","grey"],"door_color_assignment":["black","white"],"door_generator_assignment":[1,0],"goal":3,"start":0,"action_noise":0.15,"location_history":"[0,5,0,5,0,5,0,1,0,5,4,5,4,5,4,3]","action_history":"[0,1,0,0,0,1,1,1,0,1,1,1,1,1,0]","door_history":"[1,0,1,1,1,0,0,0,1,0,0,0,0,0,1]","location_rts":"[1283,971,809,308,283,562,1207,1186,425,238,556,287,217,219,232]","trial_type":"two-door-navigation","trial_index":46,"time_elapsed":1431022,"internal_node_id":"0.0-2.0-44.0"},{"group":"hexagon_bi","room_assignment":["purple","blue","yellow","green","red","grey"],"door_color_assignment":["black","white"],"door_generator_assignment":[1,0],"goal":0,"start":3,"action_noise":0.15,"location_history":"[3,2,1,0]","action_history":"[1,0,1]","door_history":"[0,1,0]","location_rts":"[2295,185,13515]","trial_type":"two-door-navigation","trial_index":47,"time_elapsed":1453580,"internal_node_id":"0.0-2.0-45.0"},{"group":"hexagon_bi","room_assignment":["purple","blue","yellow","green","red","grey"],"door_color_assignment":["black","white"],"door_generator_assignment":[1,0],"goal":4,"start":0,"action_noise":0.15,"location_history":"[0,5,4]","action_history":"[0,1]","door_history":"[1,0]","location_rts":"[422,423]","trial_type":"two-door-navigation","trial_index":48,"time_elapsed":1459963,"internal_node_id":"0.0-2.0-46.0"},{"group":"hexagon_bi","room_assignment":["purple","blue","yellow","green","red","grey"],"door_color_assignment":["black","white"],"door_generator_assignment":[1,0],"goal":5,"start":4,"action_noise":0.15,"location_history":"[4,3,2,1,2,3,2,3,2,1,2,1,0,5]","action_history":"[0,1,0,0,1,1,1,0,0,0,0,1,1]","door_history":"[1,0,1,1,0,0,0,1,1,1,1,0,0]","location_rts":"[943,726,326,121,244,325,206,190,409,328,231,41,272]","trial_type":"two-door-navigation","trial_index":49,"time_elapsed":1481423,"internal_node_id":"0.0-2.0-47.0"},{"group":"hexagon_bi","room_assignment":["purple","blue","yellow","green","red","grey"],"door_color_assignment":["black","white"],"door_generator_assignment":[1,0],"goal":2,"start":5,"action_noise":0.15,"location_history":"[5,0,5,0,1,0,1,2]","action_history":"[0,0,0,1,0,1,1]","door_history":"[1,1,1,0,1,0,0]","location_rts":"[60964,446,246,308,1525,595,261]","trial_type":"two-door-navigation","trial_index":50,"time_elapsed":1557440,"internal_node_id":"0.0-2.0-48.0"},{"group":"hexagon_bi","room_assignment":["purple","blue","yellow","green","red","grey"],"door_color_assignment":["black","white"],"door_generator_assignment":[1,0],"goal":1,"start":2,"action_noise":0.15,"location_history":"[2,3,4,5,0,5,0,5,0,1]","action_history":"[1,0,1,0,0,0,0,0,1]","door_history":"[0,1,0,1,1,1,1,1,0]","location_rts":"[754,514,484,354,436,483,332,356,978]","trial_type":"two-door-navigation","trial_index":51,"time_elapsed":1574827,"internal_node_id":"0.0-2.0-49.0"},{"view_history":"[{\"page_index\":0,\"viewing_time\":2440}]","rt":2440,"trial_type":"instructions","trial_index":52,"time_elapsed":1578267,"internal_node_id":"0.0-3.0"},{"view_history":"[{\"page_index\":0,\"viewing_time\":2590},{\"page_index\":1,\"viewing_time\":3137}]","rt":5727,"trial_type":"instructions","trial_index":53,"time_elapsed":1584995,"internal_node_id":"0.0-4.0"},{"group":"hexagon_bi","fractal_assignment":["../images/ylw_slt.png","../images/cyn_red.png","../images/blu_wht.png","../images/org_blu.png","../images/gry_blk.png","../images/pnk_blu.png"],"mutagen_generator_assignment":[0,1],"goal":2,"start":1,"action_noise":0.15,"location_history":"[1,0,1,0,1,2]","action_history":"[0,1,1,1,0]","mutagen_history":"[0,1,1,1,0]","location_rts":"[1941,414,285,126,29]","trial_type":"fractal-mutation","trial_index":54,"time_elapsed":1596463,"internal_node_id":"0.0-5.0-0.0"},{"group":"hexagon_bi","fractal_assignment":["../images/ylw_slt.png","../images/cyn_red.png","../images/blu_wht.png","../images/org_blu.png","../images/gry_blk.png","../images/pnk_blu.png"],"mutagen_generator_assignment":[0,1],"goal":0,"start":2,"action_noise":0.15,"location_history":"[2,1,0]","action_history":"[1,1]","mutagen_history":"[1,1]","location_rts":"[280,76]","trial_type":"fractal-mutation","trial_index":55,"time_elapsed":1602392,"internal_node_id":"0.0-5.0-1.0"},{"group":"hexagon_bi","fractal_assignment":["../images/ylw_slt.png","../images/cyn_red.png","../images/blu_wht.png","../images/org_blu.png","../images/gry_blk.png","../images/pnk_blu.png"],"mutagen_generator_assignment":[0,1],"goal":5,"start":0,"action_noise":0.15,"location_history":"[0,5]","action_history":"[0]","mutagen_history":"[0]","location_rts":"[119]","trial_type":"fractal-mutation","trial_index":56,"time_elapsed":1607043,"internal_node_id":"0.0-5.0-2.0"},{"group":"hexagon_bi","fractal_assignment":["../images/ylw_slt.png","../images/cyn_red.png","../images/blu_wht.png","../images/org_blu.png","../images/gry_blk.png","../images/pnk_blu.png"],"mutagen_generator_assignment":[0,1],"goal":1,"start":5,"action_noise":0.15,"location_history":"[5,0,5,4,5,4,5,0,1]","action_history":"[0,0,1,1,1,1,0,1]","mutagen_history":"[0,0,1,1,1,1,0,1]","location_rts":"[99,81,35,85,72,29,60,67]","trial_type":"fractal-mutation","trial_index":57,"time_elapsed":1619317,"internal_node_id":"0.0-5.0-3.0"},{"group":"hexagon_bi","fractal_assignment":["../images/ylw_slt.png","../images/cyn_red.png","../images/blu_wht.png","../images/org_blu.png","../images/gry_blk.png","../images/pnk_blu.png"],"mutagen_generator_assignment":[0,1],"goal":3,"start":1,"action_noise":0.15,"location_history":"[1,2,3]","action_history":"[0,1]","mutagen_history":"[0,1]","location_rts":"[187768,555]","trial_type":"fractal-mutation","trial_index":58,"time_elapsed":1813309,"internal_node_id":"0.0-5.0-4.0"},{"group":"hexagon_bi","fractal_assignment":["../images/ylw_slt.png","../images/cyn_red.png","../images/blu_wht.png","../images/org_blu.png","../images/gry_blk.png","../images/pnk_blu.png"],"mutagen_generator_assignment":[0,1],"goal":5,"start":3,"action_noise":0.15,"location_history":"[3,2,1,2,3,2,3,4,3,2,1,2,1,2,3,4,3,4,5]","action_history":"[1,0,0,1,1,1,0,0,1,0,0,0,1,1,0,0,0,0]","mutagen_history":"[1,0,0,1,1,1,0,0,1,0,0,0,1,1,0,0,0,0]","location_rts":"[3018,1221,455,304,269,314,568,372,165,543,341,265,369,529,73,99,101,155]","trial_type":"fractal-mutation","trial_index":59,"time_elapsed":1844498,"internal_node_id":"0.0-5.0-5.0"},{"group":"hexagon_bi","fractal_assignment":["../images/ylw_slt.png","../images/cyn_red.png","../images/blu_wht.png","../images/org_blu.png","../images/gry_blk.png","../images/pnk_blu.png"],"mutagen_generator_assignment":[0,1],"goal":4,"start":5,"action_noise":0.15,"location_history":"[5,0,1,0,5,4]","action_history":"[0,1,1,0,0]","mutagen_history":"[0,1,1,0,0]","location_rts":"[165982,399,286,266,249]","trial_type":"fractal-mutation","trial_index":60,"time_elapsed":2020342,"internal_node_id":"0.0-5.0-6.0"},{"group":"hexagon_bi","fractal_assignment":["../images/ylw_slt.png","../images/cyn_red.png","../images/blu_wht.png","../images/org_blu.png","../images/gry_blk.png","../images/pnk_blu.png"],"mutagen_generator_assignment":[0,1],"goal":0,"start":4,"action_noise":0.15,"location_history":"[4,3,2,3,2,1,2,3,4,3,2,3,4,5,4,3,4,5,4,5,4,3,4,3,2,1,0]","action_history":"[0,1,1,1,0,0,1,0,0,1,1,0,1,1,0,0,1,1,0,1,0,0,1,0,0,1]","mutagen_history":"[0,1,1,1,0,0,1,0,0,1,1,0,1,1,0,0,1,1,0,1,0,0,1,0,0,1]","location_rts":"[70946,718,279,489,244,393,158,272,134,688,165,13,36,16,78,75,55,68,62,77,148,20,64,72,150,4]","trial_type":"fractal-mutation","trial_index":61,"time_elapsed":2126055,"internal_node_id":"0.0-5.0-7.0"},{"group":"hexagon_bi","fractal_assignment":["../images/ylw_slt.png","../images/cyn_red.png","../images/blu_wht.png","../images/org_blu.png","../images/gry_blk.png","../images/pnk_blu.png"],"mutagen_generator_assignment":[0,1],"goal":2,"start":0,"action_noise":0.15,"location_history":"[0,5,4,3,2]","action_history":"[0,0,1,1]","mutagen_history":"[0,0,1,1]","location_rts":"[1791,735,307,372]","trial_type":"fractal-mutation","trial_index":62,"time_elapsed":2136883,"internal_node_id":"0.0-5.0-8.0"},{"group":"hexagon_bi","fractal_assignment":["../images/ylw_slt.png","../images/cyn_red.png","../images/blu_wht.png","../images/org_blu.png","../images/gry_blk.png","../images/pnk_blu.png"],"mutagen_generator_assignment":[0,1],"goal":4,"start":2,"action_noise":0.15,"location_history":"[2,1,2,1,2,3,4]","action_history":"[0,0,0,0,1,0]","mutagen_history":"[0,0,0,0,1,0]","location_rts":"[1702,1259,989,1440,278,501]","trial_type":"fractal-mutation","trial_index":63,"time_elapsed":2152728,"internal_node_id":"0.0-5.0-9.0"},{"group":"hexagon_bi","fractal_assignment":["../images/ylw_slt.png","../images/cyn_red.png","../images/blu_wht.png","../images/org_blu.png","../images/gry_blk.png","../images/pnk_blu.png"],"mutagen_generator_assignment":[0,1],"goal":2,"start":4,"action_noise":0.15,"location_history":"[4,5,4,5,0,5,4,3,2]","action_history":"[1,1,1,0,0,0,0,1]","mutagen_history":"[1,1,1,0,0,0,0,1]","location_rts":"[1353,863,674,263,590,387,275,422]","trial_type":"fractal-mutation","trial_index":64,"time_elapsed":2169294,"internal_node_id":"0.0-5.0-10.0"},{"group":"hexagon_bi","fractal_assignment":["../images/ylw_slt.png","../images/cyn_red.png","../images/blu_wht.png","../images/org_blu.png","../images/gry_blk.png","../images/pnk_blu.png"],"mutagen_generator_assignment":[0,1],"goal":3,"start":2,"action_noise":0.15,"location_history":"[2,3]","action_history":"[1]","mutagen_history":"[1]","location_rts":"[506]","trial_type":"fractal-mutation","trial_index":65,"time_elapsed":2174329,"internal_node_id":"0.0-5.0-11.0"},{"group":"hexagon_bi","fractal_assignment":["../images/ylw_slt.png","../images/cyn_red.png","../images/blu_wht.png","../images/org_blu.png","../images/gry_blk.png","../images/pnk_blu.png"],"mutagen_generator_assignment":[0,1],"goal":0,"start":3,"action_noise":0.15,"location_history":"[3,4,3,4,5,4,3,2,1,2,3,4,5,4,5,0]","action_history":"[0,0,0,1,1,0,0,0,0,1,0,1,1,1,0]","mutagen_history":"[0,0,0,1,1,0,0,0,0,1,0,1,1,1,0]","location_rts":"[312,604,363,409,484,298,319,401,547,339,788,619,600,495,355]","trial_type":"fractal-mutation","trial_index":66,"time_elapsed":2200201,"internal_node_id":"0.0-5.0-12.0"},{"group":"hexagon_bi","fractal_assignment":["../images/ylw_slt.png","../images/cyn_red.png","../images/blu_wht.png","../images/org_blu.png","../images/gry_blk.png","../images/pnk_blu.png"],"mutagen_generator_assignment":[0,1],"goal":5,"start":0,"action_noise":0.15,"location_history":"[0,5]","action_history":"[0]","mutagen_history":"[0]","location_rts":"[1676]","trial_type":"fractal-mutation","trial_index":67,"time_elapsed":2206407,"internal_node_id":"0.0-5.0-13.0"},{"group":"hexagon_bi","fractal_assignment":["../images/ylw_slt.png","../images/cyn_red.png","../images/blu_wht.png","../images/org_blu.png","../images/gry_blk.png","../images/pnk_blu.png"],"mutagen_generator_assignment":[0,1],"goal":1,"start":5,"action_noise":0.15,"location_history":"[5,0,1]","action_history":"[0,1]","mutagen_history":"[0,1]","location_rts":"[536,446]","trial_type":"fractal-mutation","trial_index":68,"time_elapsed":2212944,"internal_node_id":"0.0-5.0-14.0"},{"group":"hexagon_bi","fractal_assignment":["../images/ylw_slt.png","../images/cyn_red.png","../images/blu_wht.png","../images/org_blu.png","../images/gry_blk.png","../images/pnk_blu.png"],"mutagen_generator_assignment":[0,1],"goal":5,"start":1,"action_noise":0.15,"location_history":"[1,2,1,0,5]","action_history":"[0,0,1,0]","mutagen_history":"[0,0,1,0]","location_rts":"[479,783,354,372]","trial_type":"fractal-mutation","trial_index":69,"time_elapsed":2222543,"internal_node_id":"0.0-5.0-15.0"},{"group":"hexagon_bi","fractal_assignment":["../images/ylw_slt.png","../images/cyn_red.png","../images/blu_wht.png","../images/org_blu.png","../images/gry_blk.png","../images/pnk_blu.png"],"mutagen_generator_assignment":[0,1],"goal":3,"start":5,"action_noise":0.15,"location_history":"[5,4,5,0,5,4,3]","action_history":"[0,1,0,0,1,0]","mutagen_history":"[0,1,0,0,1,0]","location_rts":"[2791,674,421,389,917,170223]","trial_type":"fractal-mutation","trial_index":70,"time_elapsed":2407637,"internal_node_id":"0.0-5.0-16.0"},{"group":"hexagon_bi","fractal_assignment":["../images/ylw_slt.png","../images/cyn_red.png","../images/blu_wht.png","../images/org_blu.png","../images/gry_blk.png","../images/pnk_blu.png"],"mutagen_generator_assignment":[0,1],"goal":2,"start":3,"action_noise":0.15,"location_history":"[3,2]","action_history":"[1]","mutagen_history":"[1]","location_rts":"[591]","trial_type":"fractal-mutation","trial_index":71,"time_elapsed":2412770,"internal_node_id":"0.0-5.0-17.0"},{"group":"hexagon_bi","fractal_assignment":["../images/ylw_slt.png","../images/cyn_red.png","../images/blu_wht.png","../images/org_blu.png","../images/gry_blk.png","../images/pnk_blu.png"],"mutagen_generator_assignment":[0,1],"goal":1,"start":2,"action_noise":0.15,"location_history":"[2,1]","action_history":"[0]","mutagen_history":"[0]","location_rts":"[702]","trial_type":"fractal-mutation","trial_index":72,"time_elapsed":2418004,"internal_node_id":"0.0-5.0-18.0"},{"group":"hexagon_bi","fractal_assignment":["../images/ylw_slt.png","../images/cyn_red.png","../images/blu_wht.png","../images/org_blu.png","../images/gry_blk.png","../images/pnk_blu.png"],"mutagen_generator_assignment":[0,1],"goal":4,"start":1,"action_noise":0.15,"location_history":"[1,2,3,2,1,2,1,0,1,2,3,4]","action_history":"[0,1,1,0,0,0,1,1,0,0,0]","mutagen_history":"[0,1,1,0,0,0,1,1,0,0,0]","location_rts":"[1425,944,557,402,1021,345,238,240,279,10,156]","trial_type":"fractal-mutation","trial_index":73,"time_elapsed":2438435,"internal_node_id":"0.0-5.0-19.0"},{"group":"hexagon_bi","fractal_assignment":["../images/ylw_slt.png","../images/cyn_red.png","../images/blu_wht.png","../images/org_blu.png","../images/gry_blk.png","../images/pnk_blu.png"],"mutagen_generator_assignment":[0,1],"goal":0,"start":4,"action_noise":0.15,"location_history":"[4,5,4,3,2,3,2,1,2,3,2,3,4,5,0]","action_history":"[1,1,0,1,1,0,0,0,1,1,1,1,1,0]","mutagen_history":"[1,1,0,1,1,0,0,0,1,1,1,1,1,0]","location_rts":"[772,713,298,460,446,419,232,95,973,318,262,251,266,256]","trial_type":"fractal-mutation","trial_index":74,"time_elapsed":2462424,"internal_node_id":"0.0-5.0-20.0"},{"group":"hexagon_bi","fractal_assignment":["../images/ylw_slt.png","../images/cyn_red.png","../images/blu_wht.png","../images/org_blu.png","../images/gry_blk.png","../images/pnk_blu.png"],"mutagen_generator_assignment":[0,1],"goal":3,"start":0,"action_noise":0.15,"location_history":"[0,5,4,5,0,5,0,1,2,3]","action_history":"[0,0,1,0,0,0,1,0,1]","mutagen_history":"[0,0,1,0,0,0,1,0,1]","location_rts":"[313236,732,483,237,534,240,120,377,325]","trial_type":"fractal-mutation","trial_index":75,"time_elapsed":2792478,"internal_node_id":"0.0-5.0-21.0"},{"group":"hexagon_bi","fractal_assignment":["../images/ylw_slt.png","../images/cyn_red.png","../images/blu_wht.png","../images/org_blu.png","../images/gry_blk.png","../images/pnk_blu.png"],"mutagen_generator_assignment":[0,1],"goal":1,"start":3,"action_noise":0.15,"location_history":"[3,2,1]","action_history":"[1,0]","mutagen_history":"[1,0]","location_rts":"[1978,456]","trial_type":"fractal-mutation","trial_index":76,"time_elapsed":2800468,"internal_node_id":"0.0-5.0-22.0"},{"group":"hexagon_bi","fractal_assignment":["../images/ylw_slt.png","../images/cyn_red.png","../images/blu_wht.png","../images/org_blu.png","../images/gry_blk.png","../images/pnk_blu.png"],"mutagen_generator_assignment":[0,1],"goal":0,"start":1,"action_noise":0.15,"location_history":"[1,2,3,4,5,4,5,4,5,4,3,4,5,4,3,2,3,4,5,0]","action_history":"[0,1,1,1,1,1,1,0,1,0,0,0,1,0,0,1,0,1,0]","mutagen_history":"[0,1,1,1,1,1,1,0,1,0,0,0,1,0,0,1,0,1,0]","location_rts":"[694,480,1176,550,484,477,435,235,707,449,260,486,215,376,132,648,368,308,388]","trial_type":"fractal-mutation","trial_index":77,"time_elapsed":2832390,"internal_node_id":"0.0-5.0-23.0"},{"group":"hexagon_bi","fractal_assignment":["../images/ylw_slt.png","../images/cyn_red.png","../images/blu_wht.png","../images/org_blu.png","../images/gry_blk.png","../images/pnk_blu.png"],"mutagen_generator_assignment":[0,1],"goal":2,"start":0,"action_noise":0.15,"location_history":"[0,1,2]","action_history":"[1,0]","mutagen_history":"[1,0]","location_rts":"[40855,381]","trial_type":"fractal-mutation","trial_index":78,"time_elapsed":2879203,"internal_node_id":"0.0-5.0-24.0"},{"group":"hexagon_bi","fractal_assignment":["../images/ylw_slt.png","../images/cyn_red.png","../images/blu_wht.png","../images/org_blu.png","../images/gry_blk.png","../images/pnk_blu.png"],"mutagen_generator_assignment":[0,1],"goal":4,"start":2,"action_noise":0.15,"location_history":"[2,3,2,3,4]","action_history":"[1,1,0,0]","mutagen_history":"[1,1,0,0]","location_rts":"[656,769,592,528]","trial_type":"fractal-mutation","trial_index":79,"time_elapsed":2889364,"internal_node_id":"0.0-5.0-25.0"},{"group":"hexagon_bi","fractal_assignment":["../images/ylw_slt.png","../images/cyn_red.png","../images/blu_wht.png","../images/org_blu.png","../images/gry_blk.png","../images/pnk_blu.png"],"mutagen_generator_assignment":[0,1],"goal":5,"start":4,"action_noise":0.15,"location_history":"[4,5]","action_history":"[1]","mutagen_history":"[1]","location_rts":"[1615]","trial_type":"fractal-mutation","trial_index":80,"time_elapsed":2895512,"internal_node_id":"0.0-5.0-26.0"},{"group":"hexagon_bi","fractal_assignment":["../images/ylw_slt.png","../images/cyn_red.png","../images/blu_wht.png","../images/org_blu.png","../images/gry_blk.png","../images/pnk_blu.png"],"mutagen_generator_assignment":[0,1],"goal":2,"start":5,"action_noise":0.15,"location_history":"[5,0,1,0,1,2]","action_history":"[0,0,1,1,0]","mutagen_history":"[0,0,1,1,0]","location_rts":"[746,539,434,350,288]","trial_type":"fractal-mutation","trial_index":81,"time_elapsed":2906512,"internal_node_id":"0.0-5.0-27.0"},{"group":"hexagon_bi","fractal_assignment":["../images/ylw_slt.png","../images/cyn_red.png","../images/blu_wht.png","../images/org_blu.png","../images/gry_blk.png","../images/pnk_blu.png"],"mutagen_generator_assignment":[0,1],"goal":3,"start":2,"action_noise":0.15,"location_history":"[2,1,0,1,2,3]","action_history":"[0,0,1,0,0]","mutagen_history":"[0,0,1,0,0]","location_rts":"[922,511,405,276,359]","trial_type":"fractal-mutation","trial_index":82,"time_elapsed":2917626,"internal_node_id":"0.0-5.0-28.0"},{"group":"hexagon_bi","fractal_assignment":["../images/ylw_slt.png","../images/cyn_red.png","../images/blu_wht.png","../images/org_blu.png","../images/gry_blk.png","../images/pnk_blu.png"],"mutagen_generator_assignment":[0,1],"goal":1,"start":3,"action_noise":0.15,"location_history":"[3,2,1]","action_history":"[1,0]","mutagen_history":"[1,0]","location_rts":"[672,616]","trial_type":"fractal-mutation","trial_index":83,"time_elapsed":2925434,"internal_node_id":"0.0-5.0-29.0"},{"group":"hexagon_bi","fractal_assignment":["../images/ylw_slt.png","../images/cyn_red.png","../images/blu_wht.png","../images/org_blu.png","../images/gry_blk.png","../images/pnk_blu.png"],"mutagen_generator_assignment":[0,1],"goal":4,"start":1,"action_noise":0.15,"location_history":"[1,0,5,0,5,4]","action_history":"[1,0,0,1,1]","mutagen_history":"[1,0,0,1,1]","location_rts":"[14670,563,290,176,110]","trial_type":"fractal-mutation","trial_index":84,"time_elapsed":2950887,"internal_node_id":"0.0-5.0-30.0"},{"group":"hexagon_bi","fractal_assignment":["../images/ylw_slt.png","../images/cyn_red.png","../images/blu_wht.png","../images/org_blu.png","../images/gry_blk.png","../images/pnk_blu.png"],"mutagen_generator_assignment":[0,1],"goal":5,"start":4,"action_noise":0.15,"location_history":"[4,3,2,3,4,3,4,5]","action_history":"[0,1,1,0,0,0,1]","mutagen_history":"[0,1,1,0,0,0,1]","location_rts":"[3664,368,281,272,278,277,88]","trial_type":"fractal-mutation","trial_index":85,"time_elapsed":2966836,"internal_node_id":"0.0-5.0-31.0"},{"group":"hexagon_bi","fractal_assignment":["../images/ylw_slt.png","../images/cyn_red.png","../images/blu_wht.png","../images/org_blu.png","../images/gry_blk.png","../images/pnk_blu.png"],"mutagen_generator_assignment":[0,1],"goal":0,"start":5,"action_noise":0.15,"location_history":"[5,0]","action_history":"[1]","mutagen_history":"[1]","location_rts":"[463]","trial_type":"fractal-mutation","trial_index":86,"time_elapsed":2971832,"internal_node_id":"0.0-5.0-32.0"},{"group":"hexagon_bi","fractal_assignment":["../images/ylw_slt.png","../images/cyn_red.png","../images/blu_wht.png","../images/org_blu.png","../images/gry_blk.png","../images/pnk_blu.png"],"mutagen_generator_assignment":[0,1],"goal":2,"start":0,"action_noise":0.15,"location_history":"[0,1,2]","action_history":"[1,0]","mutagen_history":"[1,0]","location_rts":"[777,615]","trial_type":"fractal-mutation","trial_index":87,"time_elapsed":2978781,"internal_node_id":"0.0-5.0-33.0"},{"group":"hexagon_bi","fractal_assignment":["../images/ylw_slt.png","../images/cyn_red.png","../images/blu_wht.png","../images/org_blu.png","../images/gry_blk.png","../images/pnk_blu.png"],"mutagen_generator_assignment":[0,1],"goal":0,"start":2,"action_noise":0.15,"location_history":"[2,3,2,3,2,1,2,3,2,1,2,3,4,5,4,3,2,1,0]","action_history":"[0,1,1,1,0,0,1,1,0,0,0,0,1,0,1,1,1,1]","mutagen_history":"[0,1,1,1,0,0,1,1,0,0,0,0,1,0,1,1,1,1]","location_rts":"[376,424,317,264,264,252,630,601,296,220,165,159,121,366,250,226,162,214]","trial_type":"fractal-mutation","trial_index":88,"time_elapsed":3006122,"internal_node_id":"0.0-5.0-34.0"},{"group":"hexagon_bi","fractal_assignment":["../images/ylw_slt.png","../images/cyn_red.png","../images/blu_wht.png","../images/org_blu.png","../images/gry_blk.png","../images/pnk_blu.png"],"mutagen_generator_assignment":[0,1],"goal":5,"start":0,"action_noise":0.15,"location_history":"[0,1,0,1,0,1,0,1,0,5]","action_history":"[1,0,1,1,0,1,1,0,0]","mutagen_history":"[1,0,1,1,0,1,1,0,0]","location_rts":"[613,996,536,675,517,779,413,179,232]","trial_type":"fractal-mutation","trial_index":89,"time_elapsed":3023842,"internal_node_id":"0.0-5.0-35.0"},{"group":"hexagon_bi","fractal_assignment":["../images/ylw_slt.png","../images/cyn_red.png","../images/blu_wht.png","../images/org_blu.png","../images/gry_blk.png","../images/pnk_blu.png"],"mutagen_generator_assignment":[0,1],"goal":1,"start":5,"action_noise":0.15,"location_history":"[5,4,3,4,5,0,1]","action_history":"[1,0,0,1,0,1]","mutagen_history":"[1,0,0,1,0,1]","location_rts":"[501,757,611,514,407,340]","trial_type":"fractal-mutation","trial_index":90,"time_elapsed":3036650,"internal_node_id":"0.0-5.0-36.0"},{"group":"hexagon_bi","fractal_assignment":["../images/ylw_slt.png","../images/cyn_red.png","../images/blu_wht.png","../images/org_blu.png","../images/gry_blk.png","../images/pnk_blu.png"],"mutagen_generator_assignment":[0,1],"goal":4,"start":1,"action_noise":0.15,"location_history":"[1,2,1,2,1,0,1,2,1,2,3,2,3,2,1,2,3,4]","action_history":"[0,0,0,0,1,1,0,0,1,1,1,1,0,0,0,1,0]","mutagen_history":"[0,0,0,0,1,1,0,0,1,1,1,1,0,0,0,1,0]","location_rts":"[285,316,114,173,414,162,121,259,232,263,12,16,186,118,298,1344,2414]","trial_type":"fractal-mutation","trial_index":91,"time_elapsed":3064345,"internal_node_id":"0.0-5.0-37.0"},{"group":"hexagon_bi","fractal_assignment":["../images/ylw_slt.png","../images/cyn_red.png","../images/blu_wht.png","../images/org_blu.png","../images/gry_blk.png","../images/pnk_blu.png"],"mutagen_generator_assignment":[0,1],"goal":3,"start":4,"action_noise":0.15,"location_history":"[4,5,0,5,4,3]","action_history":"[1,1,1,1,0]","mutagen_history":"[1,1,1,1,0]","location_rts":"[534,544,414,511,202]","trial_type":"fractal-mutation","trial_index":92,"time_elapsed":3075200,"internal_node_id":"0.0-5.0-38.0"},{"group":"hexagon_bi","fractal_assignment":["../images/ylw_slt.png","../images/cyn_red.png","../images/blu_wht.png","../images/org_blu.png","../images/gry_blk.png","../images/pnk_blu.png"],"mutagen_generator_assignment":[0,1],"goal":5,"start":3,"action_noise":0.15,"location_history":"[3,4,5]","action_history":"[0,1]","mutagen_history":"[0,1]","location_rts":"[432,338]","trial_type":"fractal-mutation","trial_index":93,"time_elapsed":3081537,"internal_node_id":"0.0-5.0-39.0"},{"group":"hexagon_bi","fractal_assignment":["../images/ylw_slt.png","../images/cyn_red.png","../images/blu_wht.png","../images/org_blu.png","../images/gry_blk.png","../images/pnk_blu.png"],"mutagen_generator_assignment":[0,1],"goal":1,"start":5,"action_noise":0.15,"location_history":"[5,0,1]","action_history":"[0,1]","mutagen_history":"[0,1]","location_rts":"[363,370]","trial_type":"fractal-mutation","trial_index":94,"time_elapsed":3087831,"internal_node_id":"0.0-5.0-40.0"},{"group":"hexagon_bi","fractal_assignment":["../images/ylw_slt.png","../images/cyn_red.png","../images/blu_wht.png","../images/org_blu.png","../images/gry_blk.png","../images/pnk_blu.png"],"mutagen_generator_assignment":[0,1],"goal":2,"start":1,"action_noise":0.15,"location_history":"[1,2]","action_history":"[0]","mutagen_history":"[0]","location_rts":"[407]","trial_type":"fractal-mutation","trial_index":95,"time_elapsed":3092767,"internal_node_id":"0.0-5.0-41.0"},{"group":"hexagon_bi","fractal_assignment":["../images/ylw_slt.png","../images/cyn_red.png","../images/blu_wht.png","../images/org_blu.png","../images/gry_blk.png","../images/pnk_blu.png"],"mutagen_generator_assignment":[0,1],"goal":4,"start":2,"action_noise":0.15,"location_history":"[2,3,2,1,2,1,2,1,0,1,0,5,0,1,2,3,4]","action_history":"[1,1,0,1,0,0,0,1,1,1,0,0,0,1,1,0]","mutagen_history":"[1,1,0,1,0,0,0,1,1,1,0,0,0,1,1,0]","location_rts":"[1897,729,656,987,866,416,542,223,562,370,201,413,319,189,413,145]","trial_type":"fractal-mutation","trial_index":96,"time_elapsed":3121673,"internal_node_id":"0.0-5.0-42.0"},{"group":"hexagon_bi","fractal_assignment":["../images/ylw_slt.png","../images/cyn_red.png","../images/blu_wht.png","../images/org_blu.png","../images/gry_blk.png","../images/pnk_blu.png"],"mutagen_generator_assignment":[0,1],"goal":0,"start":4,"action_noise":0.15,"location_history":"[4,3,4,5,4,3,2,1,2,3,2,1,2,1,0]","action_history":"[0,0,1,1,0,0,0,0,1,1,0,0,0,1]","mutagen_history":"[0,0,1,1,0,0,0,0,1,1,0,0,0,1]","location_rts":"[380,413,71,266,173,241,18,748,62,285,122,604,142,44]","trial_type":"fractal-mutation","trial_index":97,"time_elapsed":3143169,"internal_node_id":"0.0-5.0-43.0"},{"group":"hexagon_bi","fractal_assignment":["../images/ylw_slt.png","../images/cyn_red.png","../images/blu_wht.png","../images/org_blu.png","../images/gry_blk.png","../images/pnk_blu.png"],"mutagen_generator_assignment":[0,1],"goal":3,"start":0,"action_noise":0.15,"location_history":"[0,5,4,3]","action_history":"[0,1,1]","mutagen_history":"[0,1,1]","location_rts":"[418,302,307]","trial_type":"fractal-mutation","trial_index":98,"time_elapsed":3150791,"internal_node_id":"0.0-5.0-44.0"},{"group":"hexagon_bi","fractal_assignment":["../images/ylw_slt.png","../images/cyn_red.png","../images/blu_wht.png","../images/org_blu.png","../images/gry_blk.png","../images/pnk_blu.png"],"mutagen_generator_assignment":[0,1],"goal":0,"start":3,"action_noise":0.15,"location_history":"[3,2,1,0]","action_history":"[1,0,1]","mutagen_history":"[1,0,1]","location_rts":"[323,247,409]","trial_type":"fractal-mutation","trial_index":99,"time_elapsed":3158359,"internal_node_id":"0.0-5.0-45.0"},{"group":"hexagon_bi","fractal_assignment":["../images/ylw_slt.png","../images/cyn_red.png","../images/blu_wht.png","../images/org_blu.png","../images/gry_blk.png","../images/pnk_blu.png"],"mutagen_generator_assignment":[0,1],"goal":4,"start":0,"action_noise":0.15,"location_history":"[0,5,4]","action_history":"[0,1]","mutagen_history":"[0,1]","location_rts":"[301,324]","trial_type":"fractal-mutation","trial_index":100,"time_elapsed":3164544,"internal_node_id":"0.0-5.0-46.0"},{"group":"hexagon_bi","fractal_assignment":["../images/ylw_slt.png","../images/cyn_red.png","../images/blu_wht.png","../images/org_blu.png","../images/gry_blk.png","../images/pnk_blu.png"],"mutagen_generator_assignment":[0,1],"goal":5,"start":4,"action_noise":0.15,"location_history":"[4,5]","action_history":"[1]","mutagen_history":"[1]","location_rts":"[545]","trial_type":"fractal-mutation","trial_index":101,"time_elapsed":3169624,"internal_node_id":"0.0-5.0-47.0"},{"group":"hexagon_bi","fractal_assignment":["../images/ylw_slt.png","../images/cyn_red.png","../images/blu_wht.png","../images/org_blu.png","../images/gry_blk.png","../images/pnk_blu.png"],"mutagen_generator_assignment":[0,1],"goal":2,"start":5,"action_noise":0.15,"location_history":"[5,4,3,4,5,4,3,4,3,2]","action_history":"[1,0,0,1,1,0,0,0,1]","mutagen_history":"[1,0,0,1,1,0,0,0,1]","location_rts":"[664,494,457,383,445,454,378,373,173]","trial_type":"fractal-mutation","trial_index":102,"time_elapsed":3186206,"internal_node_id":"0.0-5.0-48.0"},{"group":"hexagon_bi","fractal_assignment":["../images/ylw_slt.png","../images/cyn_red.png","../images/blu_wht.png","../images/org_blu.png","../images/gry_blk.png","../images/pnk_blu.png"],"mutagen_generator_assignment":[0,1],"goal":1,"start":2,"action_noise":0.15,"location_history":"[2,1]","action_history":"[0]","mutagen_history":"[0]","location_rts":"[580]","trial_type":"fractal-mutation","trial_index":103,"time_elapsed":3191319,"internal_node_id":"0.0-5.0-49.0"},{"view_history":"[{\"page_index\":0,\"viewing_time\":3944}]","rt":3944,"trial_type":"instructions","trial_index":104,"time_elapsed":3196263,"internal_node_id":"0.0-6.0"},{"rt":63420,"responses":"{\"Q0\":\"memory, i guess? But then sometimes the door wasn't the same because the house was \\\"haunted.\\\" It was truly and deeply maddening. \"}","trial_type":"survey-text","trial_index":105,"time_elapsed":3260689,"internal_node_id":"0.0-7.0-0.0"},{"rt":24443,"responses":"{\"Q0\":\"No clue, man.\"}","trial_type":"survey-text","trial_index":106,"time_elapsed":3286133,"internal_node_id":"0.0-7.0-1.0"},{"rt":21372,"responses":"{\"Q0\":\"<img src='../images/diagrams/hexagon_tri.png'>\"}","trial_type":"survey-multi-choice","trial_index":107,"time_elapsed":3308512,"internal_node_id":"0.0-7.0-2.0"},{"rt":23938,"assignments":["../images/ylw_slt.png","../images/pnk_blu.png","../images/blu_wht.png","../images/cyn_red.png","../images/org_blu.png","../images/gry_blk.png"],"trial_type":"drag-drop-on-image","trial_index":108,"time_elapsed":3333455,"internal_node_id":"0.0-7.0-3.0"},{"rt":6877,"responses":"{\"Q0\":\"1\"}","trial_type":"survey-likert","trial_index":109,"time_elapsed":3341335,"internal_node_id":"0.0-7.0-4.0"},{"rt":24269,"responses":"{\"Q0\":\"memory seemed to be involved and also randomness.\"}","trial_type":"survey-text","trial_index":110,"time_elapsed":3366606,"internal_node_id":"0.0-7.0-5.0"},{"rt":6789,"responses":"{\"Q0\":\"No\"}","trial_type":"survey-multi-choice","trial_index":111,"time_elapsed":3374398,"internal_node_id":"0.0-7.0-6.0"},{"rt":8219,"responses":"{\"Q0\":\"During these questions/I wasn't aware until you pointed it out\"}","trial_type":"survey-multi-choice","trial_index":112,"time_elapsed":3383621,"internal_node_id":"0.0-7.0-7.0"},{"rt":2950,"responses":"{\"Q0\":\"\"}","trial_type":"survey-text","trial_index":113,"time_elapsed":3387573,"internal_node_id":"0.0-7.0-8.0"},{"rt":6531,"responses":"{\"Q0\":\"0\"}","trial_type":"survey-likert","trial_index":114,"time_elapsed":3395109,"internal_node_id":"0.0-7.0-9.0"},{"rt":11662,"responses":"{\"Q0\":\"Different structure\"}","trial_type":"survey-multi-choice","trial_index":115,"time_elapsed":3407773,"internal_node_id":"0.0-7.0-10.0"},{"rt":25131,"responses":"{\"Q0\":\"left (black) door = acid, right (white) door = ray\",\"Q1\":\"Not at all confident\"}","trial_type":"survey-multi-choice","trial_index":116,"time_elapsed":3433910,"internal_node_id":"0.0-7.0-11.0"},{"rt":10382,"responses":"{\"Q0\":\"35-45\",\"Q1\":\"Some college\",\"Q2\":\"Male\",\"Q3\":\"White\"}","trial_type":"survey-multi-choice","trial_index":117,"time_elapsed":3445302,"internal_node_id":"0.0-8.0"},{"rt":2493,"responses":"{\"Q0\":\"\"}","trial_type":"survey-text","trial_index":118,"time_elapsed":3448797,"internal_node_id":"0.0-9.0"}]