[{"view_history":"[{\"page_index\":0,\"viewing_time\":2297},{\"page_index\":1,\"viewing_time\":7519}]","rt":9817,"trial_type":"instructions","trial_index":0,"time_elapsed":9818,"internal_node_id":"0.0-0.0"},{"view_history":"[{\"page_index\":0,\"viewing_time\":1556},{\"page_index\":1,\"viewing_time\":2767}]","rt":4324,"trial_type":"instructions","trial_index":1,"time_elapsed":15149,"internal_node_id":"0.0-1.0"},{"group":"hexagon_bi","room_assignment":["grey","red","yellow","green","purple","blue"],"door_color_assignment":["black","white"],"door_generator_assignment":[0,1],"goal":2,"start":1,"action_noise":0.15,"location_history":"[1,2]","action_history":"[0]","door_history":"[0]","location_rts":"[6258]","trial_type":"two-door-navigation","trial_index":2,"time_elapsed":25936,"internal_node_id":"0.0-2.0-0.0"},{"group":"hexagon_bi","room_assignment":["grey","red","yellow","green","purple","blue"],"door_color_assignment":["black","white"],"door_generator_assignment":[0,1],"goal":0,"start":2,"action_noise":0.15,"location_history":"[2,3,2,1,0]","action_history":"[1,1,0,0]","door_history":"[1,1,0,0]","location_rts":"[3288,825,2296,1248]","trial_type":"two-door-navigation","trial_index":3,"time_elapsed":41145,"internal_node_id":"0.0-2.0-1.0"},{"group":"hexagon_bi","room_assignment":["grey","red","yellow","green","purple","blue"],"door_color_assignment":["black","white"],"door_generator_assignment":[0,1],"goal":5,"start":0,"action_noise":0.15,"location_history":"[0,5]","action_history":"[0]","door_history":"[0]","location_rts":"[2364]","trial_type":"two-door-navigation","trial_index":4,"time_elapsed":48023,"internal_node_id":"0.0-2.0-2.0"},{"group":"hexagon_bi","room_assignment":["grey","red","yellow","green","purple","blue"],"door_color_assignment":["black","white"],"door_generator_assignment":[0,1],"goal":1,"start":5,"action_noise":0.15,"location_history":"[5,4,5,4,5,0,1]","action_history":"[1,1,1,0,0,1]","door_history":"[1,1,1,0,0,1]","location_rts":"[2693,1090,1105,437,804,1323]","trial_type":"two-door-navigation","trial_index":5,"time_elapsed":65035,"internal_node_id":"0.0-2.0-3.0"},{"group":"hexagon_bi","room_assignment":["grey","red","yellow","green","purple","blue"],"door_color_assignment":["black","white"],"door_generator_assignment":[0,1],"goal":3,"start":1,"action_noise":0.15,"location_history":"[1,2,1,2,1,0,1,2,1,2,1,0,1,0,5,0,5,4,5,0,5,0,1,2,1,0,1,2,3]","action_history":"[0,0,0,1,1,1,0,1,0,0,1,1,1,0,1,0,0,1,1,0,0,1,0,1,1,0,0,0]","door_history":"[0,0,0,1,1,1,0,1,0,0,1,1,1,0,1,0,0,1,1,0,0,1,0,1,1,0,0,0]","location_rts":"[2622,651,575,563,590,839,630,551,887,583,883,910,562,647,920,1669,851,1914,795,873,504,498,1257,1035,630,1091,543,604]","trial_type":"two-door-navigation","trial_index":6,"time_elapsed":121466,"internal_node_id":"0.0-2.0-4.0"},{"group":"hexagon_bi","room_assignment":["grey","red","yellow","green","purple","blue"],"door_color_assignment":["black","white"],"door_generator_assignment":[0,1],"goal":5,"start":3,"action_noise":0.15,"location_history":"[3,4,5]","action_history":"[0,1]","door_history":"[0,1]","location_rts":"[1425,2204]","trial_type":"two-door-navigation","trial_index":7,"time_elapsed":130613,"internal_node_id":"0.0-2.0-5.0"},{"group":"hexagon_bi","room_assignment":["grey","red","yellow","green","purple","blue"],"door_color_assignment":["black","white"],"door_generator_assignment":[0,1],"goal":4,"start":5,"action_noise":0.15,"location_history":"[5,0,1,0,1,2,3,4]","action_history":"[0,1,1,1,0,0,0]","door_history":"[0,1,1,1,0,0,0]","location_rts":"[1001,1253,563,574,783,745,2516]","trial_type":"two-door-navigation","trial_index":8,"time_elapsed":148619,"internal_node_id":"0.0-2.0-6.0"},{"group":"hexagon_bi","room_assignment":["grey","red","yellow","green","purple","blue"],"door_color_assignment":["black","white"],"door_generator_assignment":[0,1],"goal":0,"start":4,"action_noise":0.15,"location_history":"[4,3,4,3,4,3,2,3,2,3,4,5,0]","action_history":"[0,0,0,0,1,1,0,1,1,0,1,0]","door_history":"[0,0,0,0,1,1,0,1,1,0,1,0]","location_rts":"[553,609,594,1143,1031,684,827,1114,559,1005,1296,1098]","trial_type":"two-door-navigation","trial_index":9,"time_elapsed":174755,"internal_node_id":"0.0-2.0-7.0"},{"group":"hexagon_bi","room_assignment":["grey","red","yellow","green","purple","blue"],"door_color_assignment":["black","white"],"door_generator_assignment":[0,1],"goal":2,"start":0,"action_noise":0.15,"location_history":"[0,5,4,3,2]","action_history":"[0,1,0,1]","door_history":"[0,1,0,1]","location_rts":"[661,904,618,699]","trial_type":"two-door-navigation","trial_index":10,"time_elapsed":185170,"internal_node_id":"0.0-2.0-8.0"},{"group":"hexagon_bi","room_assignment":["grey","red","yellow","green","purple","blue"],"door_color_assignment":["black","white"],"door_generator_assignment":[0,1],"goal":4,"start":2,"action_noise":0.15,"location_history":"[2,1,0,5,4]","action_history":"[0,1,0,1]","door_history":"[0,1,0,1]","location_rts":"[665,716,713,1055]","trial_type":"two-door-navigation","trial_index":11,"time_elapsed":195860,"internal_node_id":"0.0-2.0-9.0"},{"group":"hexagon_bi","room_assignment":["grey","red","yellow","green","purple","blue"],"door_color_assignment":["black","white"],"door_generator_assignment":[0,1],"goal":2,"start":4,"action_noise":0.15,"location_history":"[4,5,0,1,0,1,2]","action_history":"[1,0,1,1,1,0]","door_history":"[1,0,1,1,1,0]","location_rts":"[931,1103,900,1001,553,422]","trial_type":"two-door-navigation","trial_index":12,"time_elapsed":210322,"internal_node_id":"0.0-2.0-10.0"},{"group":"hexagon_bi","room_assignment":["grey","red","yellow","green","purple","blue"],"door_color_assignment":["black","white"],"door_generator_assignment":[0,1],"goal":3,"start":2,"action_noise":0.15,"location_history":"[2,1,0,1,0,1,0,5,0,1,0,5,0,1,2,1,2,1,0,5,0,5,0,1,0,5,4,5,4,3]","action_history":"[0,1,1,0,1,1,0,0,1,1,1,0,0,0,0,0,0,1,0,1,0,1,1,1,0,0,1,1,0]","door_history":"[0,1,1,0,1,1,0,0,1,1,1,0,0,0,0,0,0,1,0,1,0,1,1,1,0,0,1,1,0]","location_rts":"[1215,861,674,1966,1188,747,1104,802,1228,674,842,1710,703,1097,756,562,656,978,1342,1362,997,1190,636,619,1113,474,909,2178,1393]","trial_type":"two-door-navigation","trial_index":13,"time_elapsed":273053,"internal_node_id":"0.0-2.0-11.0"},{"group":"hexagon_bi","room_assignment":["grey","red","yellow","green","purple","blue"],"door_color_assignment":["black","white"],"door_generator_assignment":[0,1],"goal":0,"start":3,"action_noise":0.15,"location_history":"[3,4,3,2,3,2,3,4,3,4,5,0]","action_history":"[0,0,1,1,1,0,0,0,0,1,0]","door_history":"[0,0,1,1,1,0,0,0,0,1,0]","location_rts":"[1475,939,1286,858,1112,637,608,628,832,670,1054]","trial_type":"two-door-navigation","trial_index":14,"time_elapsed":297756,"internal_node_id":"0.0-2.0-12.0"},{"group":"hexagon_bi","room_assignment":["grey","red","yellow","green","purple","blue"],"door_color_assignment":["black","white"],"door_generator_assignment":[0,1],"goal":5,"start":0,"action_noise":0.15,"location_history":"[0,5]","action_history":"[0]","door_history":"[0]","location_rts":"[956]","trial_type":"two-door-navigation","trial_index":15,"time_elapsed":303219,"internal_node_id":"0.0-2.0-13.0"},{"group":"hexagon_bi","room_assignment":["grey","red","yellow","green","purple","blue"],"door_color_assignment":["black","white"],"door_generator_assignment":[0,1],"goal":1,"start":5,"action_noise":0.15,"location_history":"[5,0,5,0,1]","action_history":"[0,0,1,0]","door_history":"[0,0,1,0]","location_rts":"[1548,853,774,1976]","trial_type":"two-door-navigation","trial_index":16,"time_elapsed":315905,"internal_node_id":"0.0-2.0-14.0"},{"group":"hexagon_bi","room_assignment":["grey","red","yellow","green","purple","blue"],"door_color_assignment":["black","white"],"door_generator_assignment":[0,1],"goal":5,"start":1,"action_noise":0.15,"location_history":"[1,2,3,4,3,2,3,2,1,2,3,2,1,2,3,4,3,4,5]","action_history":"[0,1,0,0,1,1,1,0,0,1,1,0,0,1,1,0,0,1]","door_history":"[0,1,0,0,1,1,1,0,0,1,1,0,0,1,1,0,0,1]","location_rts":"[60317,1613,1025,2106,1616,616,930,1004,661,2605,726,3738,2664,1157,754,2367,832,986]","trial_type":"two-door-navigation","trial_index":17,"time_elapsed":423276,"internal_node_id":"0.0-2.0-15.0"},{"group":"hexagon_bi","room_assignment":["grey","red","yellow","green","purple","blue"],"door_color_assignment":["black","white"],"door_generator_assignment":[0,1],"goal":3,"start":5,"action_noise":0.15,"location_history":"[5,0,5,0,5,4,5,0,1,2,3]","action_history":"[1,0,0,0,1,1,0,1,0,1]","door_history":"[1,0,0,0,1,1,0,1,0,1]","location_rts":"[571,960,909,211,753,819,580,1121,857,717]","trial_type":"two-door-navigation","trial_index":18,"time_elapsed":444362,"internal_node_id":"0.0-2.0-16.0"},{"group":"hexagon_bi","room_assignment":["grey","red","yellow","green","purple","blue"],"door_color_assignment":["black","white"],"door_generator_assignment":[0,1],"goal":2,"start":3,"action_noise":0.15,"location_history":"[3,4,5,0,1,2]","action_history":"[0,1,0,1,0]","door_history":"[0,1,0,1,0]","location_rts":"[1415,581,743,974,1647]","trial_type":"two-door-navigation","trial_index":19,"time_elapsed":458270,"internal_node_id":"0.0-2.0-17.0"},{"group":"hexagon_bi","room_assignment":["grey","red","yellow","green","purple","blue"],"door_color_assignment":["black","white"],"door_generator_assignment":[0,1],"goal":1,"start":2,"action_noise":0.15,"location_history":"[2,3,4,3,2,1]","action_history":"[1,1,1,1,0]","door_history":"[1,1,1,1,0]","location_rts":"[2503,1571,1248,619,1168]","trial_type":"two-door-navigation","trial_index":20,"time_elapsed":473928,"internal_node_id":"0.0-2.0-18.0"},{"group":"hexagon_bi","room_assignment":["grey","red","yellow","green","purple","blue"],"door_color_assignment":["black","white"],"door_generator_assignment":[0,1],"goal":4,"start":1,"action_noise":0.15,"location_history":"[1,2,1,2,1,0,1,0,5,0,1,2,1,0,1,2,3,4]","action_history":"[0,0,0,0,1,1,1,0,0,1,0,1,1,1,0,1,0]","door_history":"[0,0,0,0,1,1,1,0,0,1,0,1,1,1,0,1,0]","location_rts":"[1572,3087,595,604,1327,1610,886,4255,7013,1265,1064,973,715,1025,1167,1196,1418]","trial_type":"two-door-navigation","trial_index":21,"time_elapsed":524369,"internal_node_id":"0.0-2.0-19.0"},{"group":"hexagon_bi","room_assignment":["grey","red","yellow","green","purple","blue"],"door_color_assignment":["black","white"],"door_generator_assignment":[0,1],"goal":0,"start":4,"action_noise":0.15,"location_history":"[4,3,4,5,0]","action_history":"[0,1,1,0]","door_history":"[0,1,1,0]","location_rts":"[8529,1179,765,905]","trial_type":"two-door-navigation","trial_index":22,"time_elapsed":543288,"internal_node_id":"0.0-2.0-20.0"},{"group":"hexagon_bi","room_assignment":["grey","red","yellow","green","purple","blue"],"door_color_assignment":["black","white"],"door_generator_assignment":[0,1],"goal":3,"start":0,"action_noise":0.15,"location_history":"[0,1,0,1,0,5,0,5,0,1,0,5,4,5,0,5,0,1,0,5,0,1,2,1,0,5,0,5,0,5,4,5,4,5,4,3]","action_history":"[0,1,1,1,0,0,0,0,1,1,0,1,1,0,0,0,1,1,0,0,0,0,0,0,0,0,0,0,0,1,1,1,0,1,0]","door_history":"[0,1,1,1,0,0,0,0,1,1,0,1,1,0,0,0,1,1,0,0,0,0,0,0,0,0,0,0,0,1,1,1,0,1,0]","location_rts":"[1629,1465,762,736,870,668,655,5557,1309,1832,1359,2196,1103,967,1124,891,891,1273,944,600,648,593,765,565,1195,928,1691,755,632,801,561,658,951,1221,1026]","trial_type":"two-door-navigation","trial_index":23,"time_elapsed":621943,"internal_node_id":"0.0-2.0-21.0"},{"group":"hexagon_bi","room_assignment":["grey","red","yellow","green","purple","blue"],"door_color_assignment":["black","white"],"door_generator_assignment":[0,1],"goal":1,"start":3,"action_noise":0.15,"location_history":"[3,4,5,4,3,4,5,0,1]","action_history":"[0,1,1,0,0,1,0,1]","door_history":"[0,1,1,0,0,1,0,1]","location_rts":"[1304,1194,571,928,759,1516,823,807]","trial_type":"two-door-navigation","trial_index":24,"time_elapsed":641405,"internal_node_id":"0.0-2.0-22.0"},{"group":"hexagon_bi","room_assignment":["grey","red","yellow","green","purple","blue"],"door_color_assignment":["black","white"],"door_generator_assignment":[0,1],"goal":0,"start":1,"action_noise":0.15,"location_history":"[1,0]","action_history":"[1]","door_history":"[1]","location_rts":"[2016]","trial_type":"two-door-navigation","trial_index":25,"time_elapsed":647928,"internal_node_id":"0.0-2.0-23.0"},{"group":"hexagon_bi","room_assignment":["grey","red","yellow","green","purple","blue"],"door_color_assignment":["black","white"],"door_generator_assignment":[0,1],"goal":2,"start":0,"action_noise":0.15,"location_history":"[0,1,0,1,0,1,2]","action_history":"[1,0,0,1,1,1]","door_history":"[1,0,0,1,1,1]","location_rts":"[2994,964,948,745,774,678]","trial_type":"two-door-navigation","trial_index":26,"time_elapsed":664587,"internal_node_id":"0.0-2.0-24.0"},{"group":"hexagon_bi","room_assignment":["grey","red","yellow","green","purple","blue"],"door_color_assignment":["black","white"],"door_generator_assignment":[0,1],"goal":4,"start":2,"action_noise":0.15,"location_history":"[2,3,2,3,4]","action_history":"[1,1,1,0]","door_history":"[1,1,1,0]","location_rts":"[2340,833,582,992]","trial_type":"two-door-navigation","trial_index":27,"time_elapsed":676871,"internal_node_id":"0.0-2.0-25.0"},{"group":"hexagon_bi","room_assignment":["grey","red","yellow","green","purple","blue"],"door_color_assignment":["black","white"],"door_generator_assignment":[0,1],"goal":5,"start":4,"action_noise":0.15,"location_history":"[4,3,4,5]","action_history":"[0,0,1]","door_history":"[0,0,1]","location_rts":"[45699,427,1536]","trial_type":"two-door-navigation","trial_index":28,"time_elapsed":731058,"internal_node_id":"0.0-2.0-26.0"},{"group":"hexagon_bi","room_assignment":["grey","red","yellow","green","purple","blue"],"door_color_assignment":["black","white"],"door_generator_assignment":[0,1],"goal":2,"start":5,"action_noise":0.15,"location_history":"[5,4,5,4,3,2]","action_history":"[1,1,1,0,1]","door_history":"[1,1,1,0,1]","location_rts":"[3492,427,688,361,1215]","trial_type":"two-door-navigation","trial_index":29,"time_elapsed":745788,"internal_node_id":"0.0-2.0-27.0"},{"group":"hexagon_bi","room_assignment":["grey","red","yellow","green","purple","blue"],"door_color_assignment":["black","white"],"door_generator_assignment":[0,1],"goal":3,"start":2,"action_noise":0.15,"location_history":"[2,3]","action_history":"[1]","door_history":"[1]","location_rts":"[3241]","trial_type":"two-door-navigation","trial_index":30,"time_elapsed":753541,"internal_node_id":"0.0-2.0-28.0"},{"group":"hexagon_bi","room_assignment":["grey","red","yellow","green","purple","blue"],"door_color_assignment":["black","white"],"door_generator_assignment":[0,1],"goal":1,"start":3,"action_noise":0.15,"location_history":"[3,2,1]","action_history":"[1,0]","door_history":"[1,0]","location_rts":"[1677,1033]","trial_type":"two-door-navigation","trial_index":31,"time_elapsed":761771,"internal_node_id":"0.0-2.0-29.0"},{"group":"hexagon_bi","room_assignment":["grey","red","yellow","green","purple","blue"],"door_color_assignment":["black","white"],"door_generator_assignment":[0,1],"goal":4,"start":1,"action_noise":0.15,"location_history":"[1,2,3,4]","action_history":"[0,1,0]","door_history":"[0,1,0]","location_rts":"[1977,1628,1128]","trial_type":"two-door-navigation","trial_index":32,"time_elapsed":773038,"internal_node_id":"0.0-2.0-30.0"},{"group":"hexagon_bi","room_assignment":["grey","red","yellow","green","purple","blue"],"door_color_assignment":["black","white"],"door_generator_assignment":[0,1],"goal":5,"start":4,"action_noise":0.15,"location_history":"[4,5]","action_history":"[0]","door_history":"[0]","location_rts":"[2219]","trial_type":"two-door-navigation","trial_index":33,"time_elapsed":779771,"internal_node_id":"0.0-2.0-31.0"},{"group":"hexagon_bi","room_assignment":["grey","red","yellow","green","purple","blue"],"door_color_assignment":["black","white"],"door_generator_assignment":[0,1],"goal":0,"start":5,"action_noise":0.15,"location_history":"[5,0]","action_history":"[0]","door_history":"[0]","location_rts":"[2196]","trial_type":"two-door-navigation","trial_index":34,"time_elapsed":786477,"internal_node_id":"0.0-2.0-32.0"},{"group":"hexagon_bi","room_assignment":["grey","red","yellow","green","purple","blue"],"door_color_assignment":["black","white"],"door_generator_assignment":[0,1],"goal":2,"start":0,"action_noise":0.15,"location_history":"[0,5,0,5,0,5,0,5,4,3,2]","action_history":"[0,0,0,1,0,1,1,1,0,1]","door_history":"[0,0,0,1,0,1,1,1,0,1]","location_rts":"[1828,828,631,725,1332,1920,578,669,1160,1493]","trial_type":"two-door-navigation","trial_index":35,"time_elapsed":811226,"internal_node_id":"0.0-2.0-33.0"},{"group":"hexagon_bi","room_assignment":["grey","red","yellow","green","purple","blue"],"door_color_assignment":["black","white"],"door_generator_assignment":[0,1],"goal":0,"start":2,"action_noise":0.15,"location_history":"[2,1,2,3,4,5,0]","action_history":"[1,0,1,0,1,0]","door_history":"[1,0,1,0,1,0]","location_rts":"[1605,1623,1172,1613,1218,1394]","trial_type":"two-door-navigation","trial_index":36,"time_elapsed":829391,"internal_node_id":"0.0-2.0-34.0"},{"group":"hexagon_bi","room_assignment":["grey","red","yellow","green","purple","blue"],"door_color_assignment":["black","white"],"door_generator_assignment":[0,1],"goal":5,"start":0,"action_noise":0.15,"location_history":"[0,1,2,3,4,5]","action_history":"[1,0,0,0,1]","door_history":"[1,0,0,0,1]","location_rts":"[78197,1041,829,725,1053]","trial_type":"two-door-navigation","trial_index":37,"time_elapsed":919789,"internal_node_id":"0.0-2.0-35.0"},{"group":"hexagon_bi","room_assignment":["grey","red","yellow","green","purple","blue"],"door_color_assignment":["black","white"],"door_generator_assignment":[0,1],"goal":1,"start":5,"action_noise":0.15,"location_history":"[5,4,3,2,1]","action_history":"[1,0,1,0]","door_history":"[1,0,1,0]","location_rts":"[1029,1009,899,988]","trial_type":"two-door-navigation","trial_index":38,"time_elapsed":931244,"internal_node_id":"0.0-2.0-36.0"},{"group":"hexagon_bi","room_assignment":["grey","red","yellow","green","purple","blue"],"door_color_assignment":["black","white"],"door_generator_assignment":[0,1],"goal":4,"start":1,"action_noise":0.15,"location_history":"[1,2,3,4]","action_history":"[0,1,0]","door_history":"[0,1,0]","location_rts":"[2355,540,794]","trial_type":"two-door-navigation","trial_index":39,"time_elapsed":941462,"internal_node_id":"0.0-2.0-37.0"},{"group":"hexagon_bi","room_assignment":["grey","red","yellow","green","purple","blue"],"door_color_assignment":["black","white"],"door_generator_assignment":[0,1],"goal":3,"start":4,"action_noise":0.15,"location_history":"[4,5,4,3]","action_history":"[0,0,1]","door_history":"[0,0,1]","location_rts":"[3020,986,1341]","trial_type":"two-door-navigation","trial_index":40,"time_elapsed":953336,"internal_node_id":"0.0-2.0-38.0"},{"group":"hexagon_bi","room_assignment":["grey","red","yellow","green","purple","blue"],"door_color_assignment":["black","white"],"door_generator_assignment":[0,1],"goal":5,"start":3,"action_noise":0.15,"location_history":"[3,4,3,2,1,0,5]","action_history":"[0,0,0,0,0,0]","door_history":"[0,0,0,0,0,0]","location_rts":"[2072,559,898,964,744,698]","trial_type":"two-door-navigation","trial_index":41,"time_elapsed":968826,"internal_node_id":"0.0-2.0-39.0"},{"group":"hexagon_bi","room_assignment":["grey","red","yellow","green","purple","blue"],"door_color_assignment":["black","white"],"door_generator_assignment":[0,1],"goal":1,"start":5,"action_noise":0.15,"location_history":"[5,4,5,4,5,0,5,4,5,0,1]","action_history":"[1,0,1,1,1,0,1,0,0,0]","door_history":"[1,0,1,1,1,0,1,0,0,0]","location_rts":"[2839,1424,842,581,1171,400,1119,692,846,705]","trial_type":"two-door-navigation","trial_index":42,"time_elapsed":993029,"internal_node_id":"0.0-2.0-40.0"},{"group":"hexagon_bi","room_assignment":["grey","red","yellow","green","purple","blue"],"door_color_assignment":["black","white"],"door_generator_assignment":[0,1],"goal":2,"start":1,"action_noise":0.15,"location_history":"[1,0,1,2]","action_history":"[1,1,0]","door_history":"[1,1,0]","location_rts":"[1340,1297,967]","trial_type":"two-door-navigation","trial_index":43,"time_elapsed":1003156,"internal_node_id":"0.0-2.0-41.0"},{"group":"hexagon_bi","room_assignment":["grey","red","yellow","green","purple","blue"],"door_color_assignment":["black","white"],"door_generator_assignment":[0,1],"goal":4,"start":2,"action_noise":0.15,"location_history":"[2,1,0,5,4]","action_history":"[0,1,0,1]","door_history":"[0,1,0,1]","location_rts":"[2748,1085,1104,675]","trial_type":"two-door-navigation","trial_index":44,"time_elapsed":1016305,"internal_node_id":"0.0-2.0-42.0"},{"group":"hexagon_bi","room_assignment":["grey","red","yellow","green","purple","blue"],"door_color_assignment":["black","white"],"door_generator_assignment":[0,1],"goal":0,"start":4,"action_noise":0.15,"location_history":"[4,5,0]","action_history":"[1,0]","door_history":"[1,0]","location_rts":"[1119,657]","trial_type":"two-door-navigation","trial_index":45,"time_elapsed":1023600,"internal_node_id":"0.0-2.0-43.0"},{"group":"hexagon_bi","room_assignment":["grey","red","yellow","green","purple","blue"],"door_color_assignment":["black","white"],"door_generator_assignment":[0,1],"goal":3,"start":0,"action_noise":0.15,"location_history":"[0,5,4,5,0,1,0,1,0,5,0,5,4,5,4,5,4,5,0,1,0,5,4,5,0,5,0,1,0,5,0,1,0,1,2,3]","action_history":"[0,1,1,0,0,1,1,1,0,0,0,1,1,1,0,1,0,0,1,0,1,1,0,0,0,0,1,1,1,0,1,1,1,0,1]","door_history":"[0,1,1,0,0,1,1,1,0,0,0,1,1,1,0,1,0,0,1,0,1,1,0,0,0,0,1,1,1,0,1,1,1,0,1]","location_rts":"[3558,938,1060,1951,592,649,572,1412,366,742,688,763,650,533,417,550,1140,562,584,1650,968,956,578,1465,585,898,1160,659,762,769,1030,656,953,827,1667]","trial_type":"two-door-navigation","trial_index":46,"time_elapsed":1095743,"internal_node_id":"0.0-2.0-44.0"},{"group":"hexagon_bi","room_assignment":["grey","red","yellow","green","purple","blue"],"door_color_assignment":["black","white"],"door_generator_assignment":[0,1],"goal":0,"start":3,"action_noise":0.15,"location_history":"[3,2,1,0]","action_history":"[1,0,1]","door_history":"[1,0,1]","location_rts":"[1590,1159,908]","trial_type":"two-door-navigation","trial_index":47,"time_elapsed":1105927,"internal_node_id":"0.0-2.0-45.0"},{"group":"hexagon_bi","room_assignment":["grey","red","yellow","green","purple","blue"],"door_color_assignment":["black","white"],"door_generator_assignment":[0,1],"goal":4,"start":0,"action_noise":0.15,"location_history":"[0,1,2,1,0,1,2,3,4]","action_history":"[1,0,0,1,1,0,1,0]","door_history":"[1,0,0,1,1,0,1,0]","location_rts":"[1153,1254,935,909,707,445,1280,676]","trial_type":"two-door-navigation","trial_index":48,"time_elapsed":1124851,"internal_node_id":"0.0-2.0-46.0"},{"group":"hexagon_bi","room_assignment":["grey","red","yellow","green","purple","blue"],"door_color_assignment":["black","white"],"door_generator_assignment":[0,1],"goal":5,"start":4,"action_noise":0.15,"location_history":"[4,5]","action_history":"[0]","door_history":"[0]","location_rts":"[9434]","trial_type":"two-door-navigation","trial_index":49,"time_elapsed":1138798,"internal_node_id":"0.0-2.0-47.0"},{"group":"hexagon_bi","room_assignment":["grey","red","yellow","green","purple","blue"],"door_color_assignment":["black","white"],"door_generator_assignment":[0,1],"goal":2,"start":5,"action_noise":0.15,"location_history":"[5,0,1,0,1,2]","action_history":"[0,0,1,1,0]","door_history":"[0,0,1,1,0]","location_rts":"[3593,6721,845,853,844]","trial_type":"two-door-navigation","trial_index":50,"time_elapsed":1160198,"internal_node_id":"0.0-2.0-48.0"},{"group":"hexagon_bi","room_assignment":["grey","red","yellow","green","purple","blue"],"door_color_assignment":["black","white"],"door_generator_assignment":[0,1],"goal":1,"start":2,"action_noise":0.15,"location_history":"[2,1]","action_history":"[0]","door_history":"[0]","location_rts":"[1230]","trial_type":"two-door-navigation","trial_index":51,"time_elapsed":1165942,"internal_node_id":"0.0-2.0-49.0"},{"view_history":"[{\"page_index\":0,\"viewing_time\":2087}]","rt":2087,"trial_type":"instructions","trial_index":52,"time_elapsed":1169029,"internal_node_id":"0.0-3.0"},{"view_history":"[{\"page_index\":0,\"viewing_time\":1550},{\"page_index\":1,\"viewing_time\":3360}]","rt":4910,"trial_type":"instructions","trial_index":53,"time_elapsed":1174939,"internal_node_id":"0.0-4.0"},{"group":"hexagon_tri","fractal_assignment":["../images/gry_blk.png","../images/org_blu.png","../images/cyn_red.png","../images/blu_wht.png","../images/ylw_slt.png","../images/pnk_blu.png"],"mutagen_generator_assignment":[1,0],"goal":2,"start":1,"action_noise":0.15,"location_history":"[1,5,0,5,4,0,1,3,2]","action_history":"[1,1,0,0,1,0,0,0]","mutagen_history":"[0,0,1,1,0,1,1,1]","location_rts":"[1316,1091,512,445,789,674,513,538]","trial_type":"fractal-mutation","trial_index":54,"time_elapsed":1192656,"internal_node_id":"0.0-5.0-0.0"},{"group":"hexagon_tri","fractal_assignment":["../images/gry_blk.png","../images/org_blu.png","../images/cyn_red.png","../images/blu_wht.png","../images/ylw_slt.png","../images/pnk_blu.png"],"mutagen_generator_assignment":[1,0],"goal":0,"start":2,"action_noise":0.15,"location_history":"[2,3,2,3,4,2,1,5,0]","action_history":"[1,0,1,1,0,0,1,1]","mutagen_history":"[0,1,0,0,1,1,0,0]","location_rts":"[1087,489,414,432,441,542,640,847]","trial_type":"fractal-mutation","trial_index":55,"time_elapsed":1209348,"internal_node_id":"0.0-5.0-1.0"},{"group":"hexagon_tri","fractal_assignment":["../images/gry_blk.png","../images/org_blu.png","../images/cyn_red.png","../images/blu_wht.png","../images/ylw_slt.png","../images/pnk_blu.png"],"mutagen_generator_assignment":[1,0],"goal":5,"start":0,"action_noise":0.15,"location_history":"[0,1,3,4,0,1,3,2,3,2,1,3,4,2,3,4,2,1,5]","action_history":"[1,0,0,0,1,0,0,1,0,0,0,1,1,1,1,0,0,1]","mutagen_history":"[0,1,1,1,0,1,1,0,1,1,1,0,0,0,0,1,1,0]","location_rts":"[618,569,385,530,755,376,577,862,1079,758,562,458,377,618,773,544,700,836]","trial_type":"fractal-mutation","trial_index":56,"time_elapsed":1242810,"internal_node_id":"0.0-5.0-2.0"},{"group":"hexagon_tri","fractal_assignment":["../images/gry_blk.png","../images/org_blu.png","../images/cyn_red.png","../images/blu_wht.png","../images/ylw_slt.png","../images/pnk_blu.png"],"mutagen_generator_assignment":[1,0],"goal":1,"start":5,"action_noise":0.15,"location_history":"[5,4,2,3,2,1]","action_history":"[1,1,1,0,0]","mutagen_history":"[0,0,0,1,1]","location_rts":"[1582,641,1028,572,1018]","trial_type":"fractal-mutation","trial_index":57,"time_elapsed":1256313,"internal_node_id":"0.0-5.0-3.0"},{"group":"hexagon_tri","fractal_assignment":["../images/gry_blk.png","../images/org_blu.png","../images/cyn_red.png","../images/blu_wht.png","../images/ylw_slt.png","../images/pnk_blu.png"],"mutagen_generator_assignment":[1,0],"goal":3,"start":1,"action_noise":0.15,"location_history":"[1,5,4,2,1,3]","action_history":"[1,0,1,0,0]","mutagen_history":"[0,1,0,1,1]","location_rts":"[499,410,407,489,418]","trial_type":"fractal-mutation","trial_index":58,"time_elapsed":1267189,"internal_node_id":"0.0-5.0-4.0"},{"group":"hexagon_tri","fractal_assignment":["../images/gry_blk.png","../images/org_blu.png","../images/cyn_red.png","../images/blu_wht.png","../images/ylw_slt.png","../images/pnk_blu.png"],"mutagen_generator_assignment":[1,0],"goal":5,"start":3,"action_noise":0.15,"location_history":"[3,4,0,1,3,4,0,5]","action_history":"[1,0,1,0,1,0,0]","mutagen_history":"[0,1,0,1,0,1,1]","location_rts":"[705,627,435,481,1572,532,591]","trial_type":"fractal-mutation","trial_index":59,"time_elapsed":1282845,"internal_node_id":"0.0-5.0-5.0"},{"group":"hexagon_tri","fractal_assignment":["../images/gry_blk.png","../images/org_blu.png","../images/cyn_red.png","../images/blu_wht.png","../images/ylw_slt.png","../images/pnk_blu.png"],"mutagen_generator_assignment":[1,0],"goal":4,"start":5,"action_noise":0.15,"location_history":"[5,0,1,3,2,1,5,0,5,0,1,5,0,1,3,2,1,5,4]","action_history":"[1,1,0,0,0,1,1,0,1,1,0,0,1,1,0,0,1,0]","mutagen_history":"[0,0,1,1,1,0,0,1,0,0,1,1,0,0,1,1,0,1]","location_rts":"[669,794,462,586,597,1083,811,805,662,1047,654,503,621,533,698,563,688,821]","trial_type":"fractal-mutation","trial_index":60,"time_elapsed":1317505,"internal_node_id":"0.0-5.0-6.0"},{"group":"hexagon_tri","fractal_assignment":["../images/gry_blk.png","../images/org_blu.png","../images/cyn_red.png","../images/blu_wht.png","../images/ylw_slt.png","../images/pnk_blu.png"],"mutagen_generator_assignment":[1,0],"goal":0,"start":4,"action_noise":0.15,"location_history":"[4,2,3,2,1,5,0]","action_history":"[1,0,0,1,1,1]","mutagen_history":"[0,1,1,0,0,0]","location_rts":"[50833,397,403,492,583,561]","trial_type":"fractal-mutation","trial_index":61,"time_elapsed":1380460,"internal_node_id":"0.0-5.0-7.0"},{"group":"hexagon_tri","fractal_assignment":["../images/gry_blk.png","../images/org_blu.png","../images/cyn_red.png","../images/blu_wht.png","../images/ylw_slt.png","../images/pnk_blu.png"],"mutagen_generator_assignment":[1,0],"goal":2,"start":0,"action_noise":0.15,"location_history":"[0,1,5,4,0,5,4,0,1,3,2]","action_history":"[1,1,0,0,1,0,0,1,1,0]","mutagen_history":"[0,0,1,1,0,1,1,0,0,1]","location_rts":"[31319,295,306,378,369,412,613,494,829,306]","trial_type":"fractal-mutation","trial_index":62,"time_elapsed":1429594,"internal_node_id":"0.0-5.0-8.0"},{"group":"hexagon_tri","fractal_assignment":["../images/gry_blk.png","../images/org_blu.png","../images/cyn_red.png","../images/blu_wht.png","../images/ylw_slt.png","../images/pnk_blu.png"],"mutagen_generator_assignment":[1,0],"goal":4,"start":2,"action_noise":0.15,"location_history":"[2,1,3,2,3,4]","action_history":"[1,0,0,1,1]","mutagen_history":"[0,1,1,0,0]","location_rts":"[25611,880,1113,486,509]","trial_type":"fractal-mutation","trial_index":63,"time_elapsed":1466953,"internal_node_id":"0.0-5.0-9.0"},{"group":"hexagon_tri","fractal_assignment":["../images/gry_blk.png","../images/org_blu.png","../images/cyn_red.png","../images/blu_wht.png","../images/ylw_slt.png","../images/pnk_blu.png"],"mutagen_generator_assignment":[1,0],"goal":2,"start":4,"action_noise":0.15,"location_history":"[4,0,1,5,4,2]","action_history":"[0,0,1,0,1]","mutagen_history":"[1,1,0,1,0]","location_rts":"[2987,983,898,643,565]","trial_type":"fractal-mutation","trial_index":64,"time_elapsed":1481825,"internal_node_id":"0.0-5.0-10.0"},{"group":"hexagon_tri","fractal_assignment":["../images/gry_blk.png","../images/org_blu.png","../images/cyn_red.png","../images/blu_wht.png","../images/ylw_slt.png","../images/pnk_blu.png"],"mutagen_generator_assignment":[1,0],"goal":3,"start":2,"action_noise":0.15,"location_history":"[2,3]","action_history":"[1]","mutagen_history":"[0]","location_rts":"[2812]","trial_type":"fractal-mutation","trial_index":65,"time_elapsed":1489194,"internal_node_id":"0.0-5.0-11.0"},{"group":"hexagon_tri","fractal_assignment":["../images/gry_blk.png","../images/org_blu.png","../images/cyn_red.png","../images/blu_wht.png","../images/ylw_slt.png","../images/pnk_blu.png"],"mutagen_generator_assignment":[1,0],"goal":0,"start":3,"action_noise":0.15,"location_history":"[3,2,3,4,0]","action_history":"[0,1,1,0]","mutagen_history":"[1,0,0,1]","location_rts":"[3862,1386,503,4208]","trial_type":"fractal-mutation","trial_index":66,"time_elapsed":1506895,"internal_node_id":"0.0-5.0-12.0"},{"group":"hexagon_tri","fractal_assignment":["../images/gry_blk.png","../images/org_blu.png","../images/cyn_red.png","../images/blu_wht.png","../images/ylw_slt.png","../images/pnk_blu.png"],"mutagen_generator_assignment":[1,0],"goal":5,"start":0,"action_noise":0.15,"location_history":"[0,5]","action_history":"[1]","mutagen_history":"[0]","location_rts":"[948]","trial_type":"fractal-mutation","trial_index":67,"time_elapsed":1512407,"internal_node_id":"0.0-5.0-13.0"},{"group":"hexagon_tri","fractal_assignment":["../images/gry_blk.png","../images/org_blu.png","../images/cyn_red.png","../images/blu_wht.png","../images/ylw_slt.png","../images/pnk_blu.png"],"mutagen_generator_assignment":[1,0],"goal":1,"start":5,"action_noise":0.15,"location_history":"[5,0,1]","action_history":"[1,1]","mutagen_history":"[0,0]","location_rts":"[1013,590]","trial_type":"fractal-mutation","trial_index":68,"time_elapsed":1519611,"internal_node_id":"0.0-5.0-14.0"},{"group":"hexagon_tri","fractal_assignment":["../images/gry_blk.png","../images/org_blu.png","../images/cyn_red.png","../images/blu_wht.png","../images/ylw_slt.png","../images/pnk_blu.png"],"mutagen_generator_assignment":[1,0],"goal":5,"start":1,"action_noise":0.15,"location_history":"[1,5]","action_history":"[1]","mutagen_history":"[0]","location_rts":"[1463]","trial_type":"fractal-mutation","trial_index":69,"time_elapsed":1525642,"internal_node_id":"0.0-5.0-15.0"},{"group":"hexagon_tri","fractal_assignment":["../images/gry_blk.png","../images/org_blu.png","../images/cyn_red.png","../images/blu_wht.png","../images/ylw_slt.png","../images/pnk_blu.png"],"mutagen_generator_assignment":[1,0],"goal":3,"start":5,"action_noise":0.15,"location_history":"[5,4,2,1,5,0,1,5,4,0,1,3]","action_history":"[0,0,0,1,1,1,1,0,0,1,0]","mutagen_history":"[1,1,1,0,0,0,0,1,1,0,1]","location_rts":"[2494,609,703,910,648,789,615,551,473,413,529]","trial_type":"fractal-mutation","trial_index":70,"time_elapsed":1549479,"internal_node_id":"0.0-5.0-16.0"},{"group":"hexagon_tri","fractal_assignment":["../images/gry_blk.png","../images/org_blu.png","../images/cyn_red.png","../images/blu_wht.png","../images/ylw_slt.png","../images/pnk_blu.png"],"mutagen_generator_assignment":[1,0],"goal":2,"start":3,"action_noise":0.15,"location_history":"[3,4,2]","action_history":"[1,1]","mutagen_history":"[0,0]","location_rts":"[1515,570]","trial_type":"fractal-mutation","trial_index":71,"time_elapsed":1557178,"internal_node_id":"0.0-5.0-17.0"},{"group":"hexagon_tri","fractal_assignment":["../images/gry_blk.png","../images/org_blu.png","../images/cyn_red.png","../images/blu_wht.png","../images/ylw_slt.png","../images/pnk_blu.png"],"mutagen_generator_assignment":[1,0],"goal":1,"start":2,"action_noise":0.15,"location_history":"[2,3,2,3,2,3,4,0,1]","action_history":"[1,1,1,0,1,1,0,1]","mutagen_history":"[0,0,0,1,0,0,1,0]","location_rts":"[2288,459,539,587,728,482,791,521]","trial_type":"fractal-mutation","trial_index":72,"time_elapsed":1575538,"internal_node_id":"0.0-5.0-18.0"},{"group":"hexagon_tri","fractal_assignment":["../images/gry_blk.png","../images/org_blu.png","../images/cyn_red.png","../images/blu_wht.png","../images/ylw_slt.png","../images/pnk_blu.png"],"mutagen_generator_assignment":[1,0],"goal":4,"start":1,"action_noise":0.15,"location_history":"[1,5,4]","action_history":"[1,0]","mutagen_history":"[0,1]","location_rts":"[718,417]","trial_type":"fractal-mutation","trial_index":73,"time_elapsed":1582297,"internal_node_id":"0.0-5.0-19.0"},{"group":"hexagon_tri","fractal_assignment":["../images/gry_blk.png","../images/org_blu.png","../images/cyn_red.png","../images/blu_wht.png","../images/ylw_slt.png","../images/pnk_blu.png"],"mutagen_generator_assignment":[1,0],"goal":0,"start":4,"action_noise":0.15,"location_history":"[4,2,1,3,4,2,3,2,1,5,4,2,3,4,0]","action_history":"[1,0,0,0,1,1,0,1,1,0,1,1,1,0]","mutagen_history":"[0,1,1,1,0,0,1,0,0,1,0,0,0,1]","location_rts":"[898,517,578,697,395,505,691,349,678,778,434,723,1219,723]","trial_type":"fractal-mutation","trial_index":74,"time_elapsed":1609761,"internal_node_id":"0.0-5.0-20.0"},{"group":"hexagon_tri","fractal_assignment":["../images/gry_blk.png","../images/org_blu.png","../images/cyn_red.png","../images/blu_wht.png","../images/ylw_slt.png","../images/pnk_blu.png"],"mutagen_generator_assignment":[1,0],"goal":3,"start":0,"action_noise":0.15,"location_history":"[0,5,4,2,1,5,4,2,3]","action_history":"[1,0,1,0,1,0,1,1]","mutagen_history":"[0,1,0,1,0,1,0,0]","location_rts":"[1667,569,1088,4341,2759,978,623,3168]","trial_type":"fractal-mutation","trial_index":75,"time_elapsed":1636919,"internal_node_id":"0.0-5.0-21.0"},{"group":"hexagon_tri","fractal_assignment":["../images/gry_blk.png","../images/org_blu.png","../images/cyn_red.png","../images/blu_wht.png","../images/ylw_slt.png","../images/pnk_blu.png"],"mutagen_generator_assignment":[1,0],"goal":1,"start":3,"action_noise":0.15,"location_history":"[3,4,0,5,4,2,3,2,1]","action_history":"[0,0,0,1,1,1,0,0]","mutagen_history":"[1,1,1,0,0,0,1,1]","location_rts":"[1016,590,550,728,463,661,533,664]","trial_type":"fractal-mutation","trial_index":76,"time_elapsed":1654085,"internal_node_id":"0.0-5.0-22.0"},{"group":"hexagon_tri","fractal_assignment":["../images/gry_blk.png","../images/org_blu.png","../images/cyn_red.png","../images/blu_wht.png","../images/ylw_slt.png","../images/pnk_blu.png"],"mutagen_generator_assignment":[1,0],"goal":0,"start":1,"action_noise":0.15,"location_history":"[1,5,0]","action_history":"[1,1]","mutagen_history":"[0,0]","location_rts":"[1658,870]","trial_type":"fractal-mutation","trial_index":77,"time_elapsed":1662233,"internal_node_id":"0.0-5.0-23.0"},{"group":"hexagon_tri","fractal_assignment":["../images/gry_blk.png","../images/org_blu.png","../images/cyn_red.png","../images/blu_wht.png","../images/ylw_slt.png","../images/pnk_blu.png"],"mutagen_generator_assignment":[1,0],"goal":2,"start":0,"action_noise":0.15,"location_history":"[0,5,0,5,4,0,1,5,0,5,4,0,1,5,4,2]","action_history":"[0,1,0,0,0,1,1,1,0,0,0,1,1,0,1]","mutagen_history":"[1,0,1,1,1,0,0,0,1,1,1,0,0,1,0]","location_rts":"[1475,733,831,421,522,719,605,463,471,562,618,670,428,498,774]","trial_type":"fractal-mutation","trial_index":78,"time_elapsed":1691452,"internal_node_id":"0.0-5.0-24.0"},{"group":"hexagon_tri","fractal_assignment":["../images/gry_blk.png","../images/org_blu.png","../images/cyn_red.png","../images/blu_wht.png","../images/ylw_slt.png","../images/pnk_blu.png"],"mutagen_generator_assignment":[1,0],"goal":4,"start":2,"action_noise":0.15,"location_history":"[2,3,4]","action_history":"[1,1]","mutagen_history":"[0,0]","location_rts":"[20256,785]","trial_type":"fractal-mutation","trial_index":79,"time_elapsed":1718154,"internal_node_id":"0.0-5.0-25.0"},{"group":"hexagon_tri","fractal_assignment":["../images/gry_blk.png","../images/org_blu.png","../images/cyn_red.png","../images/blu_wht.png","../images/ylw_slt.png","../images/pnk_blu.png"],"mutagen_generator_assignment":[1,0],"goal":5,"start":4,"action_noise":0.15,"location_history":"[4,0,5]","action_history":"[1,0]","mutagen_history":"[0,1]","location_rts":"[561,732]","trial_type":"fractal-mutation","trial_index":80,"time_elapsed":1725073,"internal_node_id":"0.0-5.0-26.0"},{"group":"hexagon_tri","fractal_assignment":["../images/gry_blk.png","../images/org_blu.png","../images/cyn_red.png","../images/blu_wht.png","../images/ylw_slt.png","../images/pnk_blu.png"],"mutagen_generator_assignment":[1,0],"goal":2,"start":5,"action_noise":0.15,"location_history":"[5,0,5,0,5,0,5,0,1,3,4,2]","action_history":"[1,0,0,0,1,0,1,1,0,1,1]","mutagen_history":"[0,1,1,1,0,1,0,0,1,0,0]","location_rts":"[750,430,352,466,439,618,590,521,589,630,745]","trial_type":"fractal-mutation","trial_index":81,"time_elapsed":1746326,"internal_node_id":"0.0-5.0-27.0"},{"group":"hexagon_tri","fractal_assignment":["../images/gry_blk.png","../images/org_blu.png","../images/cyn_red.png","../images/blu_wht.png","../images/ylw_slt.png","../images/pnk_blu.png"],"mutagen_generator_assignment":[1,0],"goal":3,"start":2,"action_noise":0.15,"location_history":"[2,3]","action_history":"[1]","mutagen_history":"[0]","location_rts":"[1616]","trial_type":"fractal-mutation","trial_index":82,"time_elapsed":1752503,"internal_node_id":"0.0-5.0-28.0"},{"group":"hexagon_tri","fractal_assignment":["../images/gry_blk.png","../images/org_blu.png","../images/cyn_red.png","../images/blu_wht.png","../images/ylw_slt.png","../images/pnk_blu.png"],"mutagen_generator_assignment":[1,0],"goal":1,"start":3,"action_noise":0.15,"location_history":"[3,4,2,3,2,3,4,2,1]","action_history":"[1,1,1,0,1,1,1,0]","mutagen_history":"[0,0,0,1,0,0,0,1]","location_rts":"[692,489,441,518,442,468,786,675]","trial_type":"fractal-mutation","trial_index":83,"time_elapsed":1768976,"internal_node_id":"0.0-5.0-29.0"},{"group":"hexagon_tri","fractal_assignment":["../images/gry_blk.png","../images/org_blu.png","../images/cyn_red.png","../images/blu_wht.png","../images/ylw_slt.png","../images/pnk_blu.png"],"mutagen_generator_assignment":[1,0],"goal":4,"start":1,"action_noise":0.15,"location_history":"[1,5,4]","action_history":"[1,1]","mutagen_history":"[0,0]","location_rts":"[766,460]","trial_type":"fractal-mutation","trial_index":84,"time_elapsed":1775811,"internal_node_id":"0.0-5.0-30.0"},{"group":"hexagon_tri","fractal_assignment":["../images/gry_blk.png","../images/org_blu.png","../images/cyn_red.png","../images/blu_wht.png","../images/ylw_slt.png","../images/pnk_blu.png"],"mutagen_generator_assignment":[1,0],"goal":5,"start":4,"action_noise":0.15,"location_history":"[4,2,1,5]","action_history":"[1,0,1]","mutagen_history":"[0,1,0]","location_rts":"[811,384,765]","trial_type":"fractal-mutation","trial_index":85,"time_elapsed":1784451,"internal_node_id":"0.0-5.0-31.0"},{"group":"hexagon_tri","fractal_assignment":["../images/gry_blk.png","../images/org_blu.png","../images/cyn_red.png","../images/blu_wht.png","../images/ylw_slt.png","../images/pnk_blu.png"],"mutagen_generator_assignment":[1,0],"goal":0,"start":5,"action_noise":0.15,"location_history":"[5,0]","action_history":"[1]","mutagen_history":"[0]","location_rts":"[1351]","trial_type":"fractal-mutation","trial_index":86,"time_elapsed":1790358,"internal_node_id":"0.0-5.0-32.0"},{"group":"hexagon_tri","fractal_assignment":["../images/gry_blk.png","../images/org_blu.png","../images/cyn_red.png","../images/blu_wht.png","../images/ylw_slt.png","../images/pnk_blu.png"],"mutagen_generator_assignment":[1,0],"goal":2,"start":0,"action_noise":0.15,"location_history":"[0,5,4,2]","action_history":"[0,0,1]","mutagen_history":"[1,1,0]","location_rts":"[1738,731,499]","trial_type":"fractal-mutation","trial_index":87,"time_elapsed":1799992,"internal_node_id":"0.0-5.0-33.0"},{"group":"hexagon_tri","fractal_assignment":["../images/gry_blk.png","../images/org_blu.png","../images/cyn_red.png","../images/blu_wht.png","../images/ylw_slt.png","../images/pnk_blu.png"],"mutagen_generator_assignment":[1,0],"goal":0,"start":2,"action_noise":0.15,"location_history":"[2,3,2,3,4,0]","action_history":"[1,0,0,1,1]","mutagen_history":"[0,1,1,0,0]","location_rts":"[1088,972,1081,403,636]","trial_type":"fractal-mutation","trial_index":88,"time_elapsed":1812947,"internal_node_id":"0.0-5.0-34.0"},{"group":"hexagon_tri","fractal_assignment":["../images/gry_blk.png","../images/org_blu.png","../images/cyn_red.png","../images/blu_wht.png","../images/ylw_slt.png","../images/pnk_blu.png"],"mutagen_generator_assignment":[1,0],"goal":5,"start":0,"action_noise":0.15,"location_history":"[0,5]","action_history":"[0]","mutagen_history":"[1]","location_rts":"[892]","trial_type":"fractal-mutation","trial_index":89,"time_elapsed":1818401,"internal_node_id":"0.0-5.0-35.0"},{"group":"hexagon_tri","fractal_assignment":["../images/gry_blk.png","../images/org_blu.png","../images/cyn_red.png","../images/blu_wht.png","../images/ylw_slt.png","../images/pnk_blu.png"],"mutagen_generator_assignment":[1,0],"goal":1,"start":5,"action_noise":0.15,"location_history":"[5,0,1]","action_history":"[1,1]","mutagen_history":"[0,0]","location_rts":"[1012,1289]","trial_type":"fractal-mutation","trial_index":90,"time_elapsed":1826317,"internal_node_id":"0.0-5.0-36.0"},{"group":"hexagon_tri","fractal_assignment":["../images/gry_blk.png","../images/org_blu.png","../images/cyn_red.png","../images/blu_wht.png","../images/ylw_slt.png","../images/pnk_blu.png"],"mutagen_generator_assignment":[1,0],"goal":4,"start":1,"action_noise":0.15,"location_history":"[1,5,4]","action_history":"[1,0]","mutagen_history":"[0,1]","location_rts":"[1319,721]","trial_type":"fractal-mutation","trial_index":91,"time_elapsed":1833972,"internal_node_id":"0.0-5.0-37.0"},{"group":"hexagon_tri","fractal_assignment":["../images/gry_blk.png","../images/org_blu.png","../images/cyn_red.png","../images/blu_wht.png","../images/ylw_slt.png","../images/pnk_blu.png"],"mutagen_generator_assignment":[1,0],"goal":3,"start":4,"action_noise":0.15,"location_history":"[4,2,1,3]","action_history":"[1,0,0]","mutagen_history":"[0,1,1]","location_rts":"[898,988,454]","trial_type":"fractal-mutation","trial_index":92,"time_elapsed":1842978,"internal_node_id":"0.0-5.0-38.0"},{"group":"hexagon_tri","fractal_assignment":["../images/gry_blk.png","../images/org_blu.png","../images/cyn_red.png","../images/blu_wht.png","../images/ylw_slt.png","../images/pnk_blu.png"],"mutagen_generator_assignment":[1,0],"goal":5,"start":3,"action_noise":0.15,"location_history":"[3,4,0,1,5]","action_history":"[1,0,1,1]","mutagen_history":"[0,1,0,0]","location_rts":"[1158,492,412,398]","trial_type":"fractal-mutation","trial_index":93,"time_elapsed":1853146,"internal_node_id":"0.0-5.0-39.0"},{"group":"hexagon_tri","fractal_assignment":["../images/gry_blk.png","../images/org_blu.png","../images/cyn_red.png","../images/blu_wht.png","../images/ylw_slt.png","../images/pnk_blu.png"],"mutagen_generator_assignment":[1,0],"goal":1,"start":5,"action_noise":0.15,"location_history":"[5,4,2,3,4,2,1]","action_history":"[1,1,1,1,1,0]","mutagen_history":"[0,0,0,0,0,1]","location_rts":"[2090,907,540,509,549,323]","trial_type":"fractal-mutation","trial_index":94,"time_elapsed":1867905,"internal_node_id":"0.0-5.0-40.0"},{"group":"hexagon_tri","fractal_assignment":["../images/gry_blk.png","../images/org_blu.png","../images/cyn_red.png","../images/blu_wht.png","../images/ylw_slt.png","../images/pnk_blu.png"],"mutagen_generator_assignment":[1,0],"goal":2,"start":1,"action_noise":0.15,"location_history":"[1,5,0,1,3,4,2]","action_history":"[1,1,1,0,1,1]","mutagen_history":"[0,0,0,1,0,0]","location_rts":"[1083,768,574,422,479,436]","trial_type":"fractal-mutation","trial_index":95,"time_elapsed":1881488,"internal_node_id":"0.0-5.0-41.0"},{"group":"hexagon_tri","fractal_assignment":["../images/gry_blk.png","../images/org_blu.png","../images/cyn_red.png","../images/blu_wht.png","../images/ylw_slt.png","../images/pnk_blu.png"],"mutagen_generator_assignment":[1,0],"goal":4,"start":2,"action_noise":0.15,"location_history":"[2,3,2,3,4]","action_history":"[1,0,1,1]","mutagen_history":"[0,1,0,0]","location_rts":"[881,481,534,387]","trial_type":"fractal-mutation","trial_index":96,"time_elapsed":1891489,"internal_node_id":"0.0-5.0-42.0"},{"group":"hexagon_tri","fractal_assignment":["../images/gry_blk.png","../images/org_blu.png","../images/cyn_red.png","../images/blu_wht.png","../images/ylw_slt.png","../images/pnk_blu.png"],"mutagen_generator_assignment":[1,0],"goal":0,"start":4,"action_noise":0.15,"location_history":"[4,2,1,3,4,0]","action_history":"[1,0,0,1,1]","mutagen_history":"[0,1,1,0,0]","location_rts":"[732,380,459,515,468]","trial_type":"fractal-mutation","trial_index":97,"time_elapsed":1902842,"internal_node_id":"0.0-5.0-43.0"},{"group":"hexagon_tri","fractal_assignment":["../images/gry_blk.png","../images/org_blu.png","../images/cyn_red.png","../images/blu_wht.png","../images/ylw_slt.png","../images/pnk_blu.png"],"mutagen_generator_assignment":[1,0],"goal":3,"start":0,"action_noise":0.15,"location_history":"[0,1,3]","action_history":"[1,0]","mutagen_history":"[0,1]","location_rts":"[1135,400]","trial_type":"fractal-mutation","trial_index":98,"time_elapsed":1909988,"internal_node_id":"0.0-5.0-44.0"},{"group":"hexagon_tri","fractal_assignment":["../images/gry_blk.png","../images/org_blu.png","../images/cyn_red.png","../images/blu_wht.png","../images/ylw_slt.png","../images/pnk_blu.png"],"mutagen_generator_assignment":[1,0],"goal":0,"start":3,"action_noise":0.15,"location_history":"[3,4,2,1,3,2,1,3,2,1,5,0]","action_history":"[1,1,0,1,0,0,0,0,0,1,1]","mutagen_history":"[0,0,1,0,1,1,1,1,1,0,0]","location_rts":"[1123,608,603,507,733,463,439,488,517,485,431]","trial_type":"fractal-mutation","trial_index":99,"time_elapsed":1931440,"internal_node_id":"0.0-5.0-45.0"},{"group":"hexagon_tri","fractal_assignment":["../images/gry_blk.png","../images/org_blu.png","../images/cyn_red.png","../images/blu_wht.png","../images/ylw_slt.png","../images/pnk_blu.png"],"mutagen_generator_assignment":[1,0],"goal":4,"start":0,"action_noise":0.15,"location_history":"[0,1,3,2,3,4]","action_history":"[1,0,0,1,1]","mutagen_history":"[0,1,1,0,0]","location_rts":"[746,1037,495,609,587]","trial_type":"fractal-mutation","trial_index":100,"time_elapsed":1943685,"internal_node_id":"0.0-5.0-46.0"},{"group":"hexagon_tri","fractal_assignment":["../images/gry_blk.png","../images/org_blu.png","../images/cyn_red.png","../images/blu_wht.png","../images/ylw_slt.png","../images/pnk_blu.png"],"mutagen_generator_assignment":[1,0],"goal":5,"start":4,"action_noise":0.15,"location_history":"[4,2,1,3,4,2,1,5]","action_history":"[1,0,0,1,1,0,1]","mutagen_history":"[0,1,1,0,0,1,0]","location_rts":"[504,414,421,479,701,1039,1550]","trial_type":"fractal-mutation","trial_index":101,"time_elapsed":1959691,"internal_node_id":"0.0-5.0-47.0"},{"group":"hexagon_tri","fractal_assignment":["../images/gry_blk.png","../images/org_blu.png","../images/cyn_red.png","../images/blu_wht.png","../images/ylw_slt.png","../images/pnk_blu.png"],"mutagen_generator_assignment":[1,0],"goal":2,"start":5,"action_noise":0.15,"location_history":"[5,0,5,4,0,1,3,2]","action_history":"[1,0,0,1,1,0,0]","mutagen_history":"[0,1,1,0,0,1,1]","location_rts":"[744,522,512,823,377,641,548]","trial_type":"fractal-mutation","trial_index":102,"time_elapsed":1974757,"internal_node_id":"0.0-5.0-48.0"},{"group":"hexagon_tri","fractal_assignment":["../images/gry_blk.png","../images/org_blu.png","../images/cyn_red.png","../images/blu_wht.png","../images/ylw_slt.png","../images/pnk_blu.png"],"mutagen_generator_assignment":[1,0],"goal":1,"start":2,"action_noise":0.15,"location_history":"[2,3,4,0,5,4,0,5,0,1]","action_history":"[1,1,0,0,1,1,0,1,1]","mutagen_history":"[0,0,1,1,0,0,1,0,0]","location_rts":"[554,688,532,390,476,458,482,684,492]","trial_type":"fractal-mutation","trial_index":103,"time_elapsed":1992535,"internal_node_id":"0.0-5.0-49.0"},{"view_history":"[{\"page_index\":0,\"viewing_time\":2705}]","rt":2709,"trial_type":"instructions","trial_index":104,"time_elapsed":1996247,"internal_node_id":"0.0-6.0"},{"rt":16098,"responses":"{\"Q0\":\"memory\"}","trial_type":"survey-text","trial_index":105,"time_elapsed":2013353,"internal_node_id":"0.0-7.0-0.0"},{"rt":20879,"responses":"{\"Q0\":\"pattern memory\"}","trial_type":"survey-text","trial_index":106,"time_elapsed":2035231,"internal_node_id":"0.0-7.0-1.0"},{"rt":18343,"responses":"{\"Q0\":\"<img src='../images/diagrams/hexagon_tri.png'>\"}","trial_type":"survey-multi-choice","trial_index":107,"time_elapsed":2054586,"internal_node_id":"0.0-7.0-2.0"},{"rt":28438,"assignments":["../images/gry_blk.png","../images/cyn_red.png","../images/pnk_blu.png","../images/blu_wht.png","../images/org_blu.png","../images/ylw_slt.png"],"trial_type":"drag-drop-on-image","trial_index":108,"time_elapsed":2084029,"internal_node_id":"0.0-7.0-3.0"},{"rt":6556,"responses":"{\"Q0\":\"2\"}","trial_type":"survey-likert","trial_index":109,"time_elapsed":2091596,"internal_node_id":"0.0-7.0-4.0"},{"rt":24687,"responses":"{\"Q0\":\"had to go a certain way to get to where you needed to be\"}","trial_type":"survey-text","trial_index":110,"time_elapsed":2117283,"internal_node_id":"0.0-7.0-5.0"},{"rt":6835,"responses":"{\"Q0\":\"Yes\"}","trial_type":"survey-multi-choice","trial_index":111,"time_elapsed":2125126,"internal_node_id":"0.0-7.0-6.0"},{"rt":11736,"responses":"{\"Q0\":\"During session 1\"}","trial_type":"survey-multi-choice","trial_index":112,"time_elapsed":2137871,"internal_node_id":"0.0-7.0-7.0"},{"rt":21226,"responses":"{\"Q0\":\"\"}","trial_type":"survey-text","trial_index":113,"time_elapsed":2160100,"internal_node_id":"0.0-7.0-8.0"},{"rt":7329,"responses":"{\"Q0\":\"0\"}","trial_type":"survey-likert","trial_index":114,"time_elapsed":2168435,"internal_node_id":"0.0-7.0-9.0"},{"rt":14465,"responses":"{\"Q0\":\"Same structure\"}","trial_type":"survey-multi-choice","trial_index":115,"time_elapsed":2183902,"internal_node_id":"0.0-7.0-10.0"},{"rt":29744,"responses":"{\"Q0\":\"left (black) door = acid, right (white) door = ray\",\"Q1\":\"Slightly confident\"}","trial_type":"survey-multi-choice","trial_index":116,"time_elapsed":2214660,"internal_node_id":"0.0-7.0-11.0"},{"rt":17037,"responses":"{\"Q0\":\"35-45\",\"Q1\":\"Some college\",\"Q2\":\"Female\",\"Q3\":\"White\"}","trial_type":"survey-multi-choice","trial_index":117,"time_elapsed":2232714,"internal_node_id":"0.0-8.0"},{"rt":4395,"responses":"{\"Q0\":\"no\"}","trial_type":"survey-text","trial_index":118,"time_elapsed":2238112,"internal_node_id":"0.0-9.0"}]