[{"view_history":"[{\"page_index\":0,\"viewing_time\":3006},{\"page_index\":1,\"viewing_time\":3040}]","rt":6047,"trial_type":"instructions","trial_index":0,"time_elapsed":6048,"internal_node_id":"0.0-0.0"},{"view_history":"[{\"page_index\":0,\"viewing_time\":2619},{\"page_index\":1,\"viewing_time\":1457}]","rt":4077,"trial_type":"instructions","trial_index":1,"time_elapsed":11127,"internal_node_id":"0.0-1.0"},{"group":"hexagon_tri","room_assignment":["blue","red","green","purple","yellow","grey"],"door_color_assignment":["black","white"],"door_generator_assignment":[0,1],"goal":2,"start":1,"action_noise":0.15,"location_history":"[1,3,4,0,5,4,2]","action_history":"[0,1,0,0,0,1]","door_history":"[0,1,0,0,0,1]","location_rts":"[1793,542,476,287,368,282]","trial_type":"two-door-navigation","trial_index":2,"time_elapsed":24553,"internal_node_id":"0.0-2.0-0.0"},{"group":"hexagon_tri","room_assignment":["blue","red","green","purple","yellow","grey"],"door_color_assignment":["black","white"],"door_generator_assignment":[0,1],"goal":0,"start":2,"action_noise":0.15,"location_history":"[2,1,3,2,3,2,3,2,1,5,0]","action_history":"[0,0,0,1,1,1,0,0,1,1]","door_history":"[0,0,0,1,1,1,0,0,1,1]","location_rts":"[2877,764,712,823,441,425,518,410,825,374]","trial_type":"two-door-navigation","trial_index":3,"time_elapsed":46439,"internal_node_id":"0.0-2.0-1.0"},{"group":"hexagon_tri","room_assignment":["blue","red","green","purple","yellow","grey"],"door_color_assignment":["black","white"],"door_generator_assignment":[0,1],"goal":5,"start":0,"action_noise":0.15,"location_history":"[0,5]","action_history":"[0]","door_history":"[0]","location_rts":"[2147]","trial_type":"two-door-navigation","trial_index":4,"time_elapsed":53112,"internal_node_id":"0.0-2.0-2.0"},{"group":"hexagon_tri","room_assignment":["blue","red","green","purple","yellow","grey"],"door_color_assignment":["black","white"],"door_generator_assignment":[0,1],"goal":1,"start":5,"action_noise":0.15,"location_history":"[5,0,5,0,1]","action_history":"[1,0,1,1]","door_history":"[1,0,1,1]","location_rts":"[1474,715,508,498]","trial_type":"two-door-navigation","trial_index":5,"time_elapsed":63896,"internal_node_id":"0.0-2.0-3.0"},{"group":"hexagon_tri","room_assignment":["blue","red","green","purple","yellow","grey"],"door_color_assignment":["black","white"],"door_generator_assignment":[0,1],"goal":3,"start":1,"action_noise":0.15,"location_history":"[1,3]","action_history":"[0]","door_history":"[0]","location_rts":"[20499]","trial_type":"two-door-navigation","trial_index":6,"time_elapsed":88923,"internal_node_id":"0.0-2.0-4.0"},{"group":"hexagon_tri","room_assignment":["blue","red","green","purple","yellow","grey"],"door_color_assignment":["black","white"],"door_generator_assignment":[0,1],"goal":5,"start":3,"action_noise":0.15,"location_history":"[3,2,1,3,2,3,4,0,5]","action_history":"[1,0,0,0,1,1,0,0]","door_history":"[1,0,0,0,1,1,0,0]","location_rts":"[1554,1136,388,607,553,390,455,573]","trial_type":"two-door-navigation","trial_index":7,"time_elapsed":106248,"internal_node_id":"0.0-2.0-5.0"},{"group":"hexagon_tri","room_assignment":["blue","red","green","purple","yellow","grey"],"door_color_assignment":["black","white"],"door_generator_assignment":[0,1],"goal":4,"start":5,"action_noise":0.15,"location_history":"[5,4]","action_history":"[0]","door_history":"[0]","location_rts":"[752]","trial_type":"two-door-navigation","trial_index":8,"time_elapsed":111523,"internal_node_id":"0.0-2.0-6.0"},{"group":"hexagon_tri","room_assignment":["blue","red","green","purple","yellow","grey"],"door_color_assignment":["black","white"],"door_generator_assignment":[0,1],"goal":0,"start":4,"action_noise":0.15,"location_history":"[4,0]","action_history":"[0]","door_history":"[0]","location_rts":"[2331]","trial_type":"two-door-navigation","trial_index":9,"time_elapsed":118383,"internal_node_id":"0.0-2.0-7.0"},{"group":"hexagon_tri","room_assignment":["blue","red","green","purple","yellow","grey"],"door_color_assignment":["black","white"],"door_generator_assignment":[0,1],"goal":2,"start":0,"action_noise":0.15,"location_history":"[0,1,3,2]","action_history":"[1,0,0]","door_history":"[1,0,0]","location_rts":"[1449,366,530]","trial_type":"two-door-navigation","trial_index":10,"time_elapsed":127308,"internal_node_id":"0.0-2.0-8.0"},{"group":"hexagon_tri","room_assignment":["blue","red","green","purple","yellow","grey"],"door_color_assignment":["black","white"],"door_generator_assignment":[0,1],"goal":4,"start":2,"action_noise":0.15,"location_history":"[2,3,4]","action_history":"[1,1]","door_history":"[1,1]","location_rts":"[1360,695]","trial_type":"two-door-navigation","trial_index":11,"time_elapsed":134910,"internal_node_id":"0.0-2.0-9.0"},{"group":"hexagon_tri","room_assignment":["blue","red","green","purple","yellow","grey"],"door_color_assignment":["black","white"],"door_generator_assignment":[0,1],"goal":2,"start":4,"action_noise":0.15,"location_history":"[4,0,1,3,4,0,5,4,2]","action_history":"[0,1,0,1,0,0,0,0]","door_history":"[0,1,0,1,0,0,0,0]","location_rts":"[1757,1120,906,603,647,306,320,410]","trial_type":"two-door-navigation","trial_index":12,"time_elapsed":152662,"internal_node_id":"0.0-2.0-10.0"},{"group":"hexagon_tri","room_assignment":["blue","red","green","purple","yellow","grey"],"door_color_assignment":["black","white"],"door_generator_assignment":[0,1],"goal":3,"start":2,"action_noise":0.15,"location_history":"[2,1,3]","action_history":"[0,0]","door_history":"[0,0]","location_rts":"[1540,548]","trial_type":"two-door-navigation","trial_index":13,"time_elapsed":160297,"internal_node_id":"0.0-2.0-11.0"},{"group":"hexagon_tri","room_assignment":["blue","red","green","purple","yellow","grey"],"door_color_assignment":["black","white"],"door_generator_assignment":[0,1],"goal":0,"start":3,"action_noise":0.15,"location_history":"[3,2,3,2,1,3,2,1,5,0]","action_history":"[0,1,0,0,0,0,0,1,1]","door_history":"[0,1,0,0,0,0,0,1,1]","location_rts":"[963,681,609,404,350,440,359,329,267]","trial_type":"two-door-navigation","trial_index":14,"time_elapsed":177420,"internal_node_id":"0.0-2.0-12.0"},{"group":"hexagon_tri","room_assignment":["blue","red","green","purple","yellow","grey"],"door_color_assignment":["black","white"],"door_generator_assignment":[0,1],"goal":5,"start":0,"action_noise":0.15,"location_history":"[0,5]","action_history":"[0]","door_history":"[0]","location_rts":"[800]","trial_type":"two-door-navigation","trial_index":15,"time_elapsed":182745,"internal_node_id":"0.0-2.0-13.0"},{"group":"hexagon_tri","room_assignment":["blue","red","green","purple","yellow","grey"],"door_color_assignment":["black","white"],"door_generator_assignment":[0,1],"goal":1,"start":5,"action_noise":0.15,"location_history":"[5,0,1]","action_history":"[1,1]","door_history":"[1,1]","location_rts":"[1281,337]","trial_type":"two-door-navigation","trial_index":16,"time_elapsed":189926,"internal_node_id":"0.0-2.0-14.0"},{"group":"hexagon_tri","room_assignment":["blue","red","green","purple","yellow","grey"],"door_color_assignment":["black","white"],"door_generator_assignment":[0,1],"goal":5,"start":1,"action_noise":0.15,"location_history":"[1,5]","action_history":"[1]","door_history":"[1]","location_rts":"[1912]","trial_type":"two-door-navigation","trial_index":17,"time_elapsed":196362,"internal_node_id":"0.0-2.0-15.0"},{"group":"hexagon_tri","room_assignment":["blue","red","green","purple","yellow","grey"],"door_color_assignment":["black","white"],"door_generator_assignment":[0,1],"goal":3,"start":5,"action_noise":0.15,"location_history":"[5,4,0,1,3]","action_history":"[0,0,1,0]","door_history":"[0,0,1,0]","location_rts":"[881,432,973,689]","trial_type":"two-door-navigation","trial_index":18,"time_elapsed":206922,"internal_node_id":"0.0-2.0-16.0"},{"group":"hexagon_tri","room_assignment":["blue","red","green","purple","yellow","grey"],"door_color_assignment":["black","white"],"door_generator_assignment":[0,1],"goal":2,"start":3,"action_noise":0.15,"location_history":"[3,2]","action_history":"[0]","door_history":"[0]","location_rts":"[626]","trial_type":"two-door-navigation","trial_index":19,"time_elapsed":212072,"internal_node_id":"0.0-2.0-17.0"},{"group":"hexagon_tri","room_assignment":["blue","red","green","purple","yellow","grey"],"door_color_assignment":["black","white"],"door_generator_assignment":[0,1],"goal":1,"start":2,"action_noise":0.15,"location_history":"[2,1]","action_history":"[0]","door_history":"[0]","location_rts":"[1385]","trial_type":"two-door-navigation","trial_index":20,"time_elapsed":217986,"internal_node_id":"0.0-2.0-18.0"},{"group":"hexagon_tri","room_assignment":["blue","red","green","purple","yellow","grey"],"door_color_assignment":["black","white"],"door_generator_assignment":[0,1],"goal":4,"start":1,"action_noise":0.15,"location_history":"[1,5,4]","action_history":"[1,0]","door_history":"[1,0]","location_rts":"[966,2425]","trial_type":"two-door-navigation","trial_index":21,"time_elapsed":226929,"internal_node_id":"0.0-2.0-19.0"},{"group":"hexagon_tri","room_assignment":["blue","red","green","purple","yellow","grey"],"door_color_assignment":["black","white"],"door_generator_assignment":[0,1],"goal":0,"start":4,"action_noise":0.15,"location_history":"[4,0]","action_history":"[0]","door_history":"[0]","location_rts":"[1456]","trial_type":"two-door-navigation","trial_index":22,"time_elapsed":232914,"internal_node_id":"0.0-2.0-20.0"},{"group":"hexagon_tri","room_assignment":["blue","red","green","purple","yellow","grey"],"door_color_assignment":["black","white"],"door_generator_assignment":[0,1],"goal":3,"start":0,"action_noise":0.15,"location_history":"[0,1,3]","action_history":"[1,0]","door_history":"[1,0]","location_rts":"[1528,426]","trial_type":"two-door-navigation","trial_index":23,"time_elapsed":240411,"internal_node_id":"0.0-2.0-21.0"},{"group":"hexagon_tri","room_assignment":["blue","red","green","purple","yellow","grey"],"door_color_assignment":["black","white"],"door_generator_assignment":[0,1],"goal":1,"start":3,"action_noise":0.15,"location_history":"[3,2,3,4,0,5,4,2,1]","action_history":"[0,1,1,0,0,0,1,0]","door_history":"[0,1,1,0,0,0,1,0]","location_rts":"[1724,621,459,530,422,581,1002,496]","trial_type":"two-door-navigation","trial_index":24,"time_elapsed":257920,"internal_node_id":"0.0-2.0-22.0"},{"group":"hexagon_tri","room_assignment":["blue","red","green","purple","yellow","grey"],"door_color_assignment":["black","white"],"door_generator_assignment":[0,1],"goal":0,"start":1,"action_noise":0.15,"location_history":"[1,5,4,2,1,5,0]","action_history":"[1,0,0,0,1,0]","door_history":"[1,0,0,0,1,0]","location_rts":"[891,470,844,1418,635,410]","trial_type":"two-door-navigation","trial_index":25,"time_elapsed":272219,"internal_node_id":"0.0-2.0-23.0"},{"group":"hexagon_tri","room_assignment":["blue","red","green","purple","yellow","grey"],"door_color_assignment":["black","white"],"door_generator_assignment":[0,1],"goal":2,"start":0,"action_noise":0.15,"location_history":"[0,1,3,4,0,1,3,2]","action_history":"[1,0,0,0,1,0,0]","door_history":"[1,0,0,0,1,0,0]","location_rts":"[148026,380,410,493,339,543,478]","trial_type":"two-door-navigation","trial_index":26,"time_elapsed":434190,"internal_node_id":"0.0-2.0-24.0"},{"group":"hexagon_tri","room_assignment":["blue","red","green","purple","yellow","grey"],"door_color_assignment":["black","white"],"door_generator_assignment":[0,1],"goal":4,"start":2,"action_noise":0.15,"location_history":"[2,1,5,4]","action_history":"[1,1,0]","door_history":"[1,1,0]","location_rts":"[636,1090,363]","trial_type":"two-door-navigation","trial_index":27,"time_elapsed":442845,"internal_node_id":"0.0-2.0-25.0"},{"group":"hexagon_tri","room_assignment":["blue","red","green","purple","yellow","grey"],"door_color_assignment":["black","white"],"door_generator_assignment":[0,1],"goal":5,"start":4,"action_noise":0.15,"location_history":"[4,0,5]","action_history":"[0,0]","door_history":"[0,0]","location_rts":"[1229,363]","trial_type":"two-door-navigation","trial_index":28,"time_elapsed":449982,"internal_node_id":"0.0-2.0-26.0"},{"group":"hexagon_tri","room_assignment":["blue","red","green","purple","yellow","grey"],"door_color_assignment":["black","white"],"door_generator_assignment":[0,1],"goal":2,"start":5,"action_noise":0.15,"location_history":"[5,0,1,5,0,1,3,2]","action_history":"[1,0,1,1,1,0,0]","door_history":"[1,0,1,1,1,0,0]","location_rts":"[1970,663,592,1057,441,337,402]","trial_type":"two-door-navigation","trial_index":29,"time_elapsed":466085,"internal_node_id":"0.0-2.0-27.0"},{"group":"hexagon_tri","room_assignment":["blue","red","green","purple","yellow","grey"],"door_color_assignment":["black","white"],"door_generator_assignment":[0,1],"goal":3,"start":2,"action_noise":0.15,"location_history":"[2,3]","action_history":"[1]","door_history":"[1]","location_rts":"[608]","trial_type":"two-door-navigation","trial_index":30,"time_elapsed":471216,"internal_node_id":"0.0-2.0-28.0"},{"group":"hexagon_tri","room_assignment":["blue","red","green","purple","yellow","grey"],"door_color_assignment":["black","white"],"door_generator_assignment":[0,1],"goal":1,"start":3,"action_noise":0.15,"location_history":"[3,4,2,1]","action_history":"[0,1,0]","door_history":"[0,1,0]","location_rts":"[2149,840,482]","trial_type":"two-door-navigation","trial_index":31,"time_elapsed":481255,"internal_node_id":"0.0-2.0-29.0"},{"group":"hexagon_tri","room_assignment":["blue","red","green","purple","yellow","grey"],"door_color_assignment":["black","white"],"door_generator_assignment":[0,1],"goal":4,"start":1,"action_noise":0.15,"location_history":"[1,5,4]","action_history":"[0,1]","door_history":"[0,1]","location_rts":"[1383,383]","trial_type":"two-door-navigation","trial_index":32,"time_elapsed":488569,"internal_node_id":"0.0-2.0-30.0"},{"group":"hexagon_tri","room_assignment":["blue","red","green","purple","yellow","grey"],"door_color_assignment":["black","white"],"door_generator_assignment":[0,1],"goal":5,"start":4,"action_noise":0.15,"location_history":"[4,2,1,3,4,2,1,5]","action_history":"[1,0,0,0,0,0,0]","door_history":"[1,0,0,0,0,0,0]","location_rts":"[765,1084,973,1441,6253,369,562]","trial_type":"two-door-navigation","trial_index":33,"time_elapsed":510661,"internal_node_id":"0.0-2.0-31.0"},{"group":"hexagon_tri","room_assignment":["blue","red","green","purple","yellow","grey"],"door_color_assignment":["black","white"],"door_generator_assignment":[0,1],"goal":0,"start":5,"action_noise":0.15,"location_history":"[5,4,0]","action_history":"[0,0]","door_history":"[0,0]","location_rts":"[1490,987]","trial_type":"two-door-navigation","trial_index":34,"time_elapsed":518683,"internal_node_id":"0.0-2.0-32.0"},{"group":"hexagon_tri","room_assignment":["blue","red","green","purple","yellow","grey"],"door_color_assignment":["black","white"],"door_generator_assignment":[0,1],"goal":2,"start":0,"action_noise":0.15,"location_history":"[0,1,5,4,0,5,4,2]","action_history":"[1,0,0,0,0,0,1]","door_history":"[1,0,0,0,0,0,1]","location_rts":"[1038,327,282,321,340,941,203]","trial_type":"two-door-navigation","trial_index":35,"time_elapsed":532784,"internal_node_id":"0.0-2.0-33.0"},{"group":"hexagon_tri","room_assignment":["blue","red","green","purple","yellow","grey"],"door_color_assignment":["black","white"],"door_generator_assignment":[0,1],"goal":0,"start":2,"action_noise":0.15,"location_history":"[2,3,4,2,1,3,2,1,5,0]","action_history":"[1,1,0,0,0,0,0,0,1]","door_history":"[1,1,0,0,0,0,0,0,1]","location_rts":"[2008,920,385,1669,597,803,964,590,489]","trial_type":"two-door-navigation","trial_index":36,"time_elapsed":553898,"internal_node_id":"0.0-2.0-34.0"},{"group":"hexagon_tri","room_assignment":["blue","red","green","purple","yellow","grey"],"door_color_assignment":["black","white"],"door_generator_assignment":[0,1],"goal":5,"start":0,"action_noise":0.15,"location_history":"[0,5]","action_history":"[0]","door_history":"[0]","location_rts":"[1451]","trial_type":"two-door-navigation","trial_index":37,"time_elapsed":559882,"internal_node_id":"0.0-2.0-35.0"},{"group":"hexagon_tri","room_assignment":["blue","red","green","purple","yellow","grey"],"door_color_assignment":["black","white"],"door_generator_assignment":[0,1],"goal":1,"start":5,"action_noise":0.15,"location_history":"[5,4,2,1]","action_history":"[0,1,0]","door_history":"[0,1,0]","location_rts":"[790,356,357]","trial_type":"two-door-navigation","trial_index":38,"time_elapsed":567950,"internal_node_id":"0.0-2.0-36.0"},{"group":"hexagon_tri","room_assignment":["blue","red","green","purple","yellow","grey"],"door_color_assignment":["black","white"],"door_generator_assignment":[0,1],"goal":4,"start":1,"action_noise":0.15,"location_history":"[1,5,0,1,5,4]","action_history":"[1,1,1,1,0]","door_history":"[1,1,1,1,0]","location_rts":"[1449,848,1206,1034,425]","trial_type":"two-door-navigation","trial_index":39,"time_elapsed":581516,"internal_node_id":"0.0-2.0-37.0"},{"group":"hexagon_tri","room_assignment":["blue","red","green","purple","yellow","grey"],"door_color_assignment":["black","white"],"door_generator_assignment":[0,1],"goal":3,"start":4,"action_noise":0.15,"location_history":"[4,2,3]","action_history":"[1,0]","door_history":"[1,0]","location_rts":"[953,394]","trial_type":"two-door-navigation","trial_index":40,"time_elapsed":588405,"internal_node_id":"0.0-2.0-38.0"},{"group":"hexagon_tri","room_assignment":["blue","red","green","purple","yellow","grey"],"door_color_assignment":["black","white"],"door_generator_assignment":[0,1],"goal":5,"start":3,"action_noise":0.15,"location_history":"[3,2,1,3,2,3,4,2,1,3,2,1,5]","action_history":"[0,0,0,0,1,1,0,0,0,0,0,1]","door_history":"[0,0,0,0,1,1,0,0,0,0,0,1]","location_rts":"[1272,650,473,684,233,859,561,399,311,490,926,405]","trial_type":"two-door-navigation","trial_index":41,"time_elapsed":611425,"internal_node_id":"0.0-2.0-39.0"},{"group":"hexagon_tri","room_assignment":["blue","red","green","purple","yellow","grey"],"door_color_assignment":["black","white"],"door_generator_assignment":[0,1],"goal":1,"start":5,"action_noise":0.15,"location_history":"[5,4,2,1]","action_history":"[0,1,1]","door_history":"[0,1,1]","location_rts":"[1739,436,372]","trial_type":"two-door-navigation","trial_index":42,"time_elapsed":620539,"internal_node_id":"0.0-2.0-40.0"},{"group":"hexagon_tri","room_assignment":["blue","red","green","purple","yellow","grey"],"door_color_assignment":["black","white"],"door_generator_assignment":[0,1],"goal":2,"start":1,"action_noise":0.15,"location_history":"[1,5,0,1,5,4,0,5,4,0,1,3,2]","action_history":"[0,1,1,1,0,1,0,0,0,1,0,0]","door_history":"[0,1,1,1,0,1,0,0,0,1,0,0]","location_rts":"[2220,448,553,380,239,20848,237,319,337,457,239,383]","trial_type":"two-door-navigation","trial_index":43,"time_elapsed":662977,"internal_node_id":"0.0-2.0-41.0"},{"group":"hexagon_tri","room_assignment":["blue","red","green","purple","yellow","grey"],"door_color_assignment":["black","white"],"door_generator_assignment":[0,1],"goal":4,"start":2,"action_noise":0.15,"location_history":"[2,3,2,1,5,4]","action_history":"[1,0,0,1,1]","door_history":"[1,0,0,1,1]","location_rts":"[1148,323,334,326,411]","trial_type":"two-door-navigation","trial_index":44,"time_elapsed":674130,"internal_node_id":"0.0-2.0-42.0"},{"group":"hexagon_tri","room_assignment":["blue","red","green","purple","yellow","grey"],"door_color_assignment":["black","white"],"door_generator_assignment":[0,1],"goal":0,"start":4,"action_noise":0.15,"location_history":"[4,2,1,3,4,0]","action_history":"[1,0,0,1,0]","door_history":"[1,0,0,1,0]","location_rts":"[5686,922,418,1117,1020]","trial_type":"two-door-navigation","trial_index":45,"time_elapsed":691901,"internal_node_id":"0.0-2.0-43.0"},{"group":"hexagon_tri","room_assignment":["blue","red","green","purple","yellow","grey"],"door_color_assignment":["black","white"],"door_generator_assignment":[0,1],"goal":3,"start":0,"action_noise":0.15,"location_history":"[0,5,4,2,3]","action_history":"[0,1,1,0]","door_history":"[0,1,1,0]","location_rts":"[615,295,298,331]","trial_type":"two-door-navigation","trial_index":46,"time_elapsed":701027,"internal_node_id":"0.0-2.0-44.0"},{"group":"hexagon_tri","room_assignment":["blue","red","green","purple","yellow","grey"],"door_color_assignment":["black","white"],"door_generator_assignment":[0,1],"goal":0,"start":3,"action_noise":0.15,"location_history":"[3,2,3,4,0]","action_history":"[0,1,1,0]","door_history":"[0,1,1,0]","location_rts":"[660,807,333,1169]","trial_type":"two-door-navigation","trial_index":47,"time_elapsed":711582,"internal_node_id":"0.0-2.0-45.0"},{"group":"hexagon_tri","room_assignment":["blue","red","green","purple","yellow","grey"],"door_color_assignment":["black","white"],"door_generator_assignment":[0,1],"goal":4,"start":0,"action_noise":0.15,"location_history":"[0,1,3,2,3,4]","action_history":"[1,0,0,1,0]","door_history":"[1,0,0,1,0]","location_rts":"[794,453,389,326,352]","trial_type":"two-door-navigation","trial_index":48,"time_elapsed":722502,"internal_node_id":"0.0-2.0-46.0"},{"group":"hexagon_tri","room_assignment":["blue","red","green","purple","yellow","grey"],"door_color_assignment":["black","white"],"door_generator_assignment":[0,1],"goal":5,"start":4,"action_noise":0.15,"location_history":"[4,2,1,3,2,3,4,0,5]","action_history":"[1,0,0,0,1,1,0,0]","door_history":"[1,0,0,0,1,1,0,0]","location_rts":"[439,896,242,279,788,859,317,261]","trial_type":"two-door-navigation","trial_index":49,"time_elapsed":738253,"internal_node_id":"0.0-2.0-47.0"},{"group":"hexagon_tri","room_assignment":["blue","red","green","purple","yellow","grey"],"door_color_assignment":["black","white"],"door_generator_assignment":[0,1],"goal":2,"start":5,"action_noise":0.15,"location_history":"[5,0,5,4,2]","action_history":"[1,1,0,1]","door_history":"[1,1,0,1]","location_rts":"[1289,847,323,471]","trial_type":"two-door-navigation","trial_index":50,"time_elapsed":748770,"internal_node_id":"0.0-2.0-48.0"},{"group":"hexagon_tri","room_assignment":["blue","red","green","purple","yellow","grey"],"door_color_assignment":["black","white"],"door_generator_assignment":[0,1],"goal":1,"start":2,"action_noise":0.15,"location_history":"[2,3,2,1]","action_history":"[1,0,0]","door_history":"[1,0,0]","location_rts":"[2477,285,333]","trial_type":"two-door-navigation","trial_index":51,"time_elapsed":758429,"internal_node_id":"0.0-2.0-49.0"},{"view_history":"[{\"page_index\":0,\"viewing_time\":827}]","rt":828,"trial_type":"instructions","trial_index":52,"time_elapsed":760257,"internal_node_id":"0.0-3.0"},{"view_history":"[{\"page_index\":0,\"viewing_time\":1051},{\"page_index\":1,\"viewing_time\":1922}]","rt":2973,"trial_type":"instructions","trial_index":53,"time_elapsed":764230,"internal_node_id":"0.0-4.0"},{"group":"hexagon_tri","fractal_assignment":["../images/cyn_red.png","../images/gry_blk.png","../images/ylw_slt.png","../images/org_blu.png","../images/blu_wht.png","../images/pnk_blu.png"],"mutagen_generator_assignment":[1,0],"goal":2,"start":1,"action_noise":0.15,"location_history":"[1,5,0,5,4,2]","action_history":"[1,1,1,0,1]","mutagen_history":"[0,0,0,1,0]","location_rts":"[1869,117,593,330,414]","trial_type":"fractal-mutation","trial_index":54,"time_elapsed":776364,"internal_node_id":"0.0-5.0-0.0"},{"group":"hexagon_tri","fractal_assignment":["../images/cyn_red.png","../images/gry_blk.png","../images/ylw_slt.png","../images/org_blu.png","../images/blu_wht.png","../images/pnk_blu.png"],"mutagen_generator_assignment":[1,0],"goal":0,"start":2,"action_noise":0.15,"location_history":"[2,1,3,2,1,5,0]","action_history":"[1,0,0,0,1,1]","mutagen_history":"[0,1,1,1,0,0]","location_rts":"[1046,298,455,393,438,395]","trial_type":"fractal-mutation","trial_index":55,"time_elapsed":789260,"internal_node_id":"0.0-5.0-1.0"},{"group":"hexagon_tri","fractal_assignment":["../images/cyn_red.png","../images/gry_blk.png","../images/ylw_slt.png","../images/org_blu.png","../images/blu_wht.png","../images/pnk_blu.png"],"mutagen_generator_assignment":[1,0],"goal":5,"start":0,"action_noise":0.15,"location_history":"[0,5]","action_history":"[0]","mutagen_history":"[1]","location_rts":"[430]","trial_type":"fractal-mutation","trial_index":56,"time_elapsed":794261,"internal_node_id":"0.0-5.0-2.0"},{"group":"hexagon_tri","fractal_assignment":["../images/cyn_red.png","../images/gry_blk.png","../images/ylw_slt.png","../images/org_blu.png","../images/blu_wht.png","../images/pnk_blu.png"],"mutagen_generator_assignment":[1,0],"goal":1,"start":5,"action_noise":0.15,"location_history":"[5,0,5,0,1]","action_history":"[1,0,1,1]","mutagen_history":"[0,1,0,0]","location_rts":"[955,506,388,329]","trial_type":"fractal-mutation","trial_index":57,"time_elapsed":804154,"internal_node_id":"0.0-5.0-3.0"},{"group":"hexagon_tri","fractal_assignment":["../images/cyn_red.png","../images/gry_blk.png","../images/ylw_slt.png","../images/org_blu.png","../images/blu_wht.png","../images/pnk_blu.png"],"mutagen_generator_assignment":[1,0],"goal":3,"start":1,"action_noise":0.15,"location_history":"[1,5,4,2,1,5,0,5,0,5,0,1,3]","action_history":"[1,0,1,0,0,0,0,1,0,1,1,0]","mutagen_history":"[0,1,0,1,1,1,1,0,1,0,0,1]","location_rts":"[477,721,421,568,904,604,460,475,239,457,404,684]","trial_type":"fractal-mutation","trial_index":58,"time_elapsed":826869,"internal_node_id":"0.0-5.0-4.0"},{"group":"hexagon_tri","fractal_assignment":["../images/cyn_red.png","../images/gry_blk.png","../images/ylw_slt.png","../images/org_blu.png","../images/blu_wht.png","../images/pnk_blu.png"],"mutagen_generator_assignment":[1,0],"goal":5,"start":3,"action_noise":0.15,"location_history":"[3,2,1,3,2,1,3,4,2,3,4,2,1,3,4,0,5]","action_history":"[0,1,0,0,0,0,1,1,1,1,1,0,0,1,0,0]","mutagen_history":"[1,0,1,1,1,1,0,0,0,0,0,1,1,0,1,1]","location_rts":"[1569,419,417,587,415,769,415,493,483,426,291,536,572,522,292,448]","trial_type":"fractal-mutation","trial_index":59,"time_elapsed":856299,"internal_node_id":"0.0-5.0-5.0"},{"group":"hexagon_tri","fractal_assignment":["../images/cyn_red.png","../images/gry_blk.png","../images/ylw_slt.png","../images/org_blu.png","../images/blu_wht.png","../images/pnk_blu.png"],"mutagen_generator_assignment":[1,0],"goal":4,"start":5,"action_noise":0.15,"location_history":"[5,4]","action_history":"[0]","mutagen_history":"[1]","location_rts":"[1944]","trial_type":"fractal-mutation","trial_index":60,"time_elapsed":862876,"internal_node_id":"0.0-5.0-6.0"},{"group":"hexagon_tri","fractal_assignment":["../images/cyn_red.png","../images/gry_blk.png","../images/ylw_slt.png","../images/org_blu.png","../images/blu_wht.png","../images/pnk_blu.png"],"mutagen_generator_assignment":[1,0],"goal":0,"start":4,"action_noise":0.15,"location_history":"[4,0]","action_history":"[0]","mutagen_history":"[1]","location_rts":"[614]","trial_type":"fractal-mutation","trial_index":61,"time_elapsed":868124,"internal_node_id":"0.0-5.0-7.0"},{"group":"hexagon_tri","fractal_assignment":["../images/cyn_red.png","../images/gry_blk.png","../images/ylw_slt.png","../images/org_blu.png","../images/blu_wht.png","../images/pnk_blu.png"],"mutagen_generator_assignment":[1,0],"goal":2,"start":0,"action_noise":0.15,"location_history":"[0,1,5,4,0,1,3,4,2]","action_history":"[1,1,1,0,1,0,1,1]","mutagen_history":"[0,0,0,1,0,1,0,0]","location_rts":"[1041,857,513,676,397,387,524,427]","trial_type":"fractal-mutation","trial_index":62,"time_elapsed":884865,"internal_node_id":"0.0-5.0-8.0"},{"group":"hexagon_tri","fractal_assignment":["../images/cyn_red.png","../images/gry_blk.png","../images/ylw_slt.png","../images/org_blu.png","../images/blu_wht.png","../images/pnk_blu.png"],"mutagen_generator_assignment":[1,0],"goal":4,"start":2,"action_noise":0.15,"location_history":"[2,1,3,4]","action_history":"[0,1,1]","mutagen_history":"[1,0,0]","location_rts":"[802,613,372]","trial_type":"fractal-mutation","trial_index":63,"time_elapsed":893312,"internal_node_id":"0.0-5.0-9.0"},{"group":"hexagon_tri","fractal_assignment":["../images/cyn_red.png","../images/gry_blk.png","../images/ylw_slt.png","../images/org_blu.png","../images/blu_wht.png","../images/pnk_blu.png"],"mutagen_generator_assignment":[1,0],"goal":2,"start":4,"action_noise":0.15,"location_history":"[4,0,1,5,0,1,3,2]","action_history":"[0,1,1,1,1,1,0]","mutagen_history":"[1,0,0,0,0,0,1]","location_rts":"[380,369,296,260,412,555,257]","trial_type":"fractal-mutation","trial_index":64,"time_elapsed":906729,"internal_node_id":"0.0-5.0-10.0"},{"group":"hexagon_tri","fractal_assignment":["../images/cyn_red.png","../images/gry_blk.png","../images/ylw_slt.png","../images/org_blu.png","../images/blu_wht.png","../images/pnk_blu.png"],"mutagen_generator_assignment":[1,0],"goal":3,"start":2,"action_noise":0.15,"location_history":"[2,1,3]","action_history":"[0,0]","mutagen_history":"[1,1]","location_rts":"[1840,803]","trial_type":"fractal-mutation","trial_index":65,"time_elapsed":915015,"internal_node_id":"0.0-5.0-11.0"},{"group":"hexagon_tri","fractal_assignment":["../images/cyn_red.png","../images/gry_blk.png","../images/ylw_slt.png","../images/org_blu.png","../images/blu_wht.png","../images/pnk_blu.png"],"mutagen_generator_assignment":[1,0],"goal":0,"start":3,"action_noise":0.15,"location_history":"[3,4,0]","action_history":"[1,0]","mutagen_history":"[0,1]","location_rts":"[819,344]","trial_type":"fractal-mutation","trial_index":66,"time_elapsed":921846,"internal_node_id":"0.0-5.0-12.0"},{"group":"hexagon_tri","fractal_assignment":["../images/cyn_red.png","../images/gry_blk.png","../images/ylw_slt.png","../images/org_blu.png","../images/blu_wht.png","../images/pnk_blu.png"],"mutagen_generator_assignment":[1,0],"goal":5,"start":0,"action_noise":0.15,"location_history":"[0,1,3,2,3,2,1,5]","action_history":"[1,0,0,1,0,0,0]","mutagen_history":"[0,1,1,0,1,1,1]","location_rts":"[450,389,365,1391,432,424,533]","trial_type":"fractal-mutation","trial_index":67,"time_elapsed":936826,"internal_node_id":"0.0-5.0-13.0"},{"group":"hexagon_tri","fractal_assignment":["../images/cyn_red.png","../images/gry_blk.png","../images/ylw_slt.png","../images/org_blu.png","../images/blu_wht.png","../images/pnk_blu.png"],"mutagen_generator_assignment":[1,0],"goal":1,"start":5,"action_noise":0.15,"location_history":"[5,0,1]","action_history":"[1,0]","mutagen_history":"[0,1]","location_rts":"[1397,531]","trial_type":"fractal-mutation","trial_index":68,"time_elapsed":944377,"internal_node_id":"0.0-5.0-14.0"},{"group":"hexagon_tri","fractal_assignment":["../images/cyn_red.png","../images/gry_blk.png","../images/ylw_slt.png","../images/org_blu.png","../images/blu_wht.png","../images/pnk_blu.png"],"mutagen_generator_assignment":[1,0],"goal":5,"start":1,"action_noise":0.15,"location_history":"[1,3,4,0,1,3,2,1,5]","action_history":"[0,1,0,1,1,0,0,0]","mutagen_history":"[1,0,1,0,0,1,1,1]","location_rts":"[399,397,762,6301,550,513,396,567]","trial_type":"fractal-mutation","trial_index":69,"time_elapsed":966523,"internal_node_id":"0.0-5.0-15.0"},{"group":"hexagon_tri","fractal_assignment":["../images/cyn_red.png","../images/gry_blk.png","../images/ylw_slt.png","../images/org_blu.png","../images/blu_wht.png","../images/pnk_blu.png"],"mutagen_generator_assignment":[1,0],"goal":3,"start":5,"action_noise":0.15,"location_history":"[5,4,2,1,3]","action_history":"[0,1,1,0]","mutagen_history":"[1,0,0,1]","location_rts":"[450,471,457,360]","trial_type":"fractal-mutation","trial_index":70,"time_elapsed":976157,"internal_node_id":"0.0-5.0-16.0"},{"group":"hexagon_tri","fractal_assignment":["../images/cyn_red.png","../images/gry_blk.png","../images/ylw_slt.png","../images/org_blu.png","../images/blu_wht.png","../images/pnk_blu.png"],"mutagen_generator_assignment":[1,0],"goal":2,"start":3,"action_noise":0.15,"location_history":"[3,2]","action_history":"[0]","mutagen_history":"[1]","location_rts":"[602]","trial_type":"fractal-mutation","trial_index":71,"time_elapsed":981413,"internal_node_id":"0.0-5.0-17.0"},{"group":"hexagon_tri","fractal_assignment":["../images/cyn_red.png","../images/gry_blk.png","../images/ylw_slt.png","../images/org_blu.png","../images/blu_wht.png","../images/pnk_blu.png"],"mutagen_generator_assignment":[1,0],"goal":1,"start":2,"action_noise":0.15,"location_history":"[2,3,2,1]","action_history":"[1,0,0]","mutagen_history":"[0,1,1]","location_rts":"[834,668,566]","trial_type":"fractal-mutation","trial_index":72,"time_elapsed":990320,"internal_node_id":"0.0-5.0-18.0"},{"group":"hexagon_tri","fractal_assignment":["../images/cyn_red.png","../images/gry_blk.png","../images/ylw_slt.png","../images/org_blu.png","../images/blu_wht.png","../images/pnk_blu.png"],"mutagen_generator_assignment":[1,0],"goal":4,"start":1,"action_noise":0.15,"location_history":"[1,5,4]","action_history":"[1,0]","mutagen_history":"[0,1]","location_rts":"[820,479]","trial_type":"fractal-mutation","trial_index":73,"time_elapsed":997276,"internal_node_id":"0.0-5.0-19.0"},{"group":"hexagon_tri","fractal_assignment":["../images/cyn_red.png","../images/gry_blk.png","../images/ylw_slt.png","../images/org_blu.png","../images/blu_wht.png","../images/pnk_blu.png"],"mutagen_generator_assignment":[1,0],"goal":0,"start":4,"action_noise":0.15,"location_history":"[4,2,1,3,2,3,4,0]","action_history":"[1,0,0,0,1,1,0]","mutagen_history":"[0,1,1,1,0,0,1]","location_rts":"[712,463,393,756,367,594,548]","trial_type":"fractal-mutation","trial_index":74,"time_elapsed":1012284,"internal_node_id":"0.0-5.0-20.0"},{"group":"hexagon_tri","fractal_assignment":["../images/cyn_red.png","../images/gry_blk.png","../images/ylw_slt.png","../images/org_blu.png","../images/blu_wht.png","../images/pnk_blu.png"],"mutagen_generator_assignment":[1,0],"goal":3,"start":0,"action_noise":0.15,"location_history":"[0,1,3]","action_history":"[1,0]","mutagen_history":"[0,1]","location_rts":"[1103,1004]","trial_type":"fractal-mutation","trial_index":75,"time_elapsed":1020074,"internal_node_id":"0.0-5.0-21.0"},{"group":"hexagon_tri","fractal_assignment":["../images/cyn_red.png","../images/gry_blk.png","../images/ylw_slt.png","../images/org_blu.png","../images/blu_wht.png","../images/pnk_blu.png"],"mutagen_generator_assignment":[1,0],"goal":1,"start":3,"action_noise":0.15,"location_history":"[3,4,0,5,0,1]","action_history":"[1,0,0,1,1]","mutagen_history":"[0,1,1,0,0]","location_rts":"[1720,598,574,432,502]","trial_type":"fractal-mutation","trial_index":76,"time_elapsed":1032924,"internal_node_id":"0.0-5.0-22.0"},{"group":"hexagon_tri","fractal_assignment":["../images/cyn_red.png","../images/gry_blk.png","../images/ylw_slt.png","../images/org_blu.png","../images/blu_wht.png","../images/pnk_blu.png"],"mutagen_generator_assignment":[1,0],"goal":0,"start":1,"action_noise":0.15,"location_history":"[1,5,0]","action_history":"[0,1]","mutagen_history":"[1,0]","location_rts":"[2919,842]","trial_type":"fractal-mutation","trial_index":77,"time_elapsed":1042341,"internal_node_id":"0.0-5.0-23.0"},{"group":"hexagon_tri","fractal_assignment":["../images/cyn_red.png","../images/gry_blk.png","../images/ylw_slt.png","../images/org_blu.png","../images/blu_wht.png","../images/pnk_blu.png"],"mutagen_generator_assignment":[1,0],"goal":2,"start":0,"action_noise":0.15,"location_history":"[0,5,4,2]","action_history":"[1,0,1]","mutagen_history":"[0,1,0]","location_rts":"[995,539,349]","trial_type":"fractal-mutation","trial_index":78,"time_elapsed":1050975,"internal_node_id":"0.0-5.0-24.0"},{"group":"hexagon_tri","fractal_assignment":["../images/cyn_red.png","../images/gry_blk.png","../images/ylw_slt.png","../images/org_blu.png","../images/blu_wht.png","../images/pnk_blu.png"],"mutagen_generator_assignment":[1,0],"goal":4,"start":2,"action_noise":0.15,"location_history":"[2,3,4]","action_history":"[0,1]","mutagen_history":"[1,0]","location_rts":"[1152,587]","trial_type":"fractal-mutation","trial_index":79,"time_elapsed":1058370,"internal_node_id":"0.0-5.0-25.0"},{"group":"hexagon_tri","fractal_assignment":["../images/cyn_red.png","../images/gry_blk.png","../images/ylw_slt.png","../images/org_blu.png","../images/blu_wht.png","../images/pnk_blu.png"],"mutagen_generator_assignment":[1,0],"goal":5,"start":4,"action_noise":0.15,"location_history":"[4,0,1,5]","action_history":"[0,1,0]","mutagen_history":"[1,0,1]","location_rts":"[377,382,338]","trial_type":"fractal-mutation","trial_index":80,"time_elapsed":1066261,"internal_node_id":"0.0-5.0-26.0"},{"group":"hexagon_tri","fractal_assignment":["../images/cyn_red.png","../images/gry_blk.png","../images/ylw_slt.png","../images/org_blu.png","../images/blu_wht.png","../images/pnk_blu.png"],"mutagen_generator_assignment":[1,0],"goal":2,"start":5,"action_noise":0.15,"location_history":"[5,0,5,0,1,5,0,5,4,0,5,4,2]","action_history":"[1,0,0,1,1,1,0,0,0,0,1,1]","mutagen_history":"[0,1,1,0,0,0,1,1,1,1,0,0]","location_rts":"[668,465,516,441,438,704,321,258,450,445,289,285]","trial_type":"fractal-mutation","trial_index":81,"time_elapsed":1088190,"internal_node_id":"0.0-5.0-27.0"},{"group":"hexagon_tri","fractal_assignment":["../images/cyn_red.png","../images/gry_blk.png","../images/ylw_slt.png","../images/org_blu.png","../images/blu_wht.png","../images/pnk_blu.png"],"mutagen_generator_assignment":[1,0],"goal":3,"start":2,"action_noise":0.15,"location_history":"[2,1,5,0,1,3]","action_history":"[0,1,1,1,0]","mutagen_history":"[1,0,0,0,1]","location_rts":"[1177,941,619,636,454]","trial_type":"fractal-mutation","trial_index":82,"time_elapsed":1100828,"internal_node_id":"0.0-5.0-28.0"},{"group":"hexagon_tri","fractal_assignment":["../images/cyn_red.png","../images/gry_blk.png","../images/ylw_slt.png","../images/org_blu.png","../images/blu_wht.png","../images/pnk_blu.png"],"mutagen_generator_assignment":[1,0],"goal":1,"start":3,"action_noise":0.15,"location_history":"[3,2,1]","action_history":"[0,0]","mutagen_history":"[1,1]","location_rts":"[436,747]","trial_type":"fractal-mutation","trial_index":83,"time_elapsed":1107749,"internal_node_id":"0.0-5.0-29.0"},{"group":"hexagon_tri","fractal_assignment":["../images/cyn_red.png","../images/gry_blk.png","../images/ylw_slt.png","../images/org_blu.png","../images/blu_wht.png","../images/pnk_blu.png"],"mutagen_generator_assignment":[1,0],"goal":4,"start":1,"action_noise":0.15,"location_history":"[1,5,4]","action_history":"[1,0]","mutagen_history":"[0,1]","location_rts":"[833,486]","trial_type":"fractal-mutation","trial_index":84,"time_elapsed":1114717,"internal_node_id":"0.0-5.0-30.0"},{"group":"hexagon_tri","fractal_assignment":["../images/cyn_red.png","../images/gry_blk.png","../images/ylw_slt.png","../images/org_blu.png","../images/blu_wht.png","../images/pnk_blu.png"],"mutagen_generator_assignment":[1,0],"goal":5,"start":4,"action_noise":0.15,"location_history":"[4,2,1,3,2,3,2,1,5]","action_history":"[1,0,0,0,1,0,0,1]","mutagen_history":"[0,1,1,1,0,1,1,0]","location_rts":"[1267,411,340,419,455,342,377,403]","trial_type":"fractal-mutation","trial_index":85,"time_elapsed":1131102,"internal_node_id":"0.0-5.0-31.0"},{"group":"hexagon_tri","fractal_assignment":["../images/cyn_red.png","../images/gry_blk.png","../images/ylw_slt.png","../images/org_blu.png","../images/blu_wht.png","../images/pnk_blu.png"],"mutagen_generator_assignment":[1,0],"goal":0,"start":5,"action_noise":0.15,"location_history":"[5,0]","action_history":"[1]","mutagen_history":"[0]","location_rts":"[735]","trial_type":"fractal-mutation","trial_index":86,"time_elapsed":1136432,"internal_node_id":"0.0-5.0-32.0"},{"group":"hexagon_tri","fractal_assignment":["../images/cyn_red.png","../images/gry_blk.png","../images/ylw_slt.png","../images/org_blu.png","../images/blu_wht.png","../images/pnk_blu.png"],"mutagen_generator_assignment":[1,0],"goal":2,"start":0,"action_noise":0.15,"location_history":"[0,1,3,4,2]","action_history":"[1,0,1,1]","mutagen_history":"[0,1,0,0]","location_rts":"[1079,633,688,302]","trial_type":"fractal-mutation","trial_index":87,"time_elapsed":1147124,"internal_node_id":"0.0-5.0-33.0"},{"group":"hexagon_tri","fractal_assignment":["../images/cyn_red.png","../images/gry_blk.png","../images/ylw_slt.png","../images/org_blu.png","../images/blu_wht.png","../images/pnk_blu.png"],"mutagen_generator_assignment":[1,0],"goal":0,"start":2,"action_noise":0.15,"location_history":"[2,1,5,0]","action_history":"[0,1,1]","mutagen_history":"[1,0,0]","location_rts":"[975,513,445]","trial_type":"fractal-mutation","trial_index":88,"time_elapsed":1155823,"internal_node_id":"0.0-5.0-34.0"},{"group":"hexagon_tri","fractal_assignment":["../images/cyn_red.png","../images/gry_blk.png","../images/ylw_slt.png","../images/org_blu.png","../images/blu_wht.png","../images/pnk_blu.png"],"mutagen_generator_assignment":[1,0],"goal":5,"start":0,"action_noise":0.15,"location_history":"[0,1,3,2,3,2,1,3,4,2,3,4,2,1,3,2,3,2,1,3,4,0,5]","action_history":"[1,0,0,1,0,0,0,1,1,1,1,1,0,0,0,1,0,0,0,1,0,0]","mutagen_history":"[0,1,1,0,1,1,1,0,0,0,0,0,1,1,1,0,1,1,1,0,1,1]","location_rts":"[333,361,395,498,418,322,369,423,492,470,416,327,387,501,505,487,250,358,376,434,241,453]","trial_type":"fractal-mutation","trial_index":89,"time_elapsed":1192603,"internal_node_id":"0.0-5.0-35.0"},{"group":"hexagon_tri","fractal_assignment":["../images/cyn_red.png","../images/gry_blk.png","../images/ylw_slt.png","../images/org_blu.png","../images/blu_wht.png","../images/pnk_blu.png"],"mutagen_generator_assignment":[1,0],"goal":1,"start":5,"action_noise":0.15,"location_history":"[5,0,5,0,1]","action_history":"[1,0,1,1]","mutagen_history":"[0,1,0,0]","location_rts":"[937,806,677,457]","trial_type":"fractal-mutation","trial_index":90,"time_elapsed":1203399,"internal_node_id":"0.0-5.0-36.0"},{"group":"hexagon_tri","fractal_assignment":["../images/cyn_red.png","../images/gry_blk.png","../images/ylw_slt.png","../images/org_blu.png","../images/blu_wht.png","../images/pnk_blu.png"],"mutagen_generator_assignment":[1,0],"goal":4,"start":1,"action_noise":0.15,"location_history":"[1,3,4]","action_history":"[0,1]","mutagen_history":"[1,0]","location_rts":"[797,543]","trial_type":"fractal-mutation","trial_index":91,"time_elapsed":1210472,"internal_node_id":"0.0-5.0-37.0"},{"group":"hexagon_tri","fractal_assignment":["../images/cyn_red.png","../images/gry_blk.png","../images/ylw_slt.png","../images/org_blu.png","../images/blu_wht.png","../images/pnk_blu.png"],"mutagen_generator_assignment":[1,0],"goal":3,"start":4,"action_noise":0.15,"location_history":"[4,0,1,5,4,0,1,5,4,0,1,3]","action_history":"[0,1,1,0,0,1,1,1,1,1,0]","mutagen_history":"[1,0,0,1,1,0,0,0,0,0,1]","location_rts":"[494,641,454,525,411,425,353,371,301,372,411]","trial_type":"fractal-mutation","trial_index":92,"time_elapsed":1230787,"internal_node_id":"0.0-5.0-38.0"},{"group":"hexagon_tri","fractal_assignment":["../images/cyn_red.png","../images/gry_blk.png","../images/ylw_slt.png","../images/org_blu.png","../images/blu_wht.png","../images/pnk_blu.png"],"mutagen_generator_assignment":[1,0],"goal":5,"start":3,"action_noise":0.15,"location_history":"[3,4,0,5]","action_history":"[1,0,0]","mutagen_history":"[0,1,1]","location_rts":"[1050,475,449]","trial_type":"fractal-mutation","trial_index":93,"time_elapsed":1239641,"internal_node_id":"0.0-5.0-39.0"},{"group":"hexagon_tri","fractal_assignment":["../images/cyn_red.png","../images/gry_blk.png","../images/ylw_slt.png","../images/org_blu.png","../images/blu_wht.png","../images/pnk_blu.png"],"mutagen_generator_assignment":[1,0],"goal":1,"start":5,"action_noise":0.15,"location_history":"[5,0,5,0,1]","action_history":"[1,1,0,1]","mutagen_history":"[0,0,1,0]","location_rts":"[862,431,451,252]","trial_type":"fractal-mutation","trial_index":94,"time_elapsed":1249527,"internal_node_id":"0.0-5.0-40.0"},{"group":"hexagon_tri","fractal_assignment":["../images/cyn_red.png","../images/gry_blk.png","../images/ylw_slt.png","../images/org_blu.png","../images/blu_wht.png","../images/pnk_blu.png"],"mutagen_generator_assignment":[1,0],"goal":2,"start":1,"action_noise":0.15,"location_history":"[1,5,0,1,5,0,1,3,2]","action_history":"[1,0,1,1,1,1,0,0]","mutagen_history":"[0,1,0,0,0,0,1,1]","location_rts":"[888,426,352,258,366,496,449,522]","trial_type":"fractal-mutation","trial_index":95,"time_elapsed":1265689,"internal_node_id":"0.0-5.0-41.0"},{"group":"hexagon_tri","fractal_assignment":["../images/cyn_red.png","../images/gry_blk.png","../images/ylw_slt.png","../images/org_blu.png","../images/blu_wht.png","../images/pnk_blu.png"],"mutagen_generator_assignment":[1,0],"goal":4,"start":2,"action_noise":0.15,"location_history":"[2,3,2,1,3,2,3,4]","action_history":"[1,0,0,0,0,0,1]","mutagen_history":"[0,1,1,1,1,1,0]","location_rts":"[668,459,584,443,395,433,860]","trial_type":"fractal-mutation","trial_index":96,"time_elapsed":1280876,"internal_node_id":"0.0-5.0-42.0"},{"group":"hexagon_tri","fractal_assignment":["../images/cyn_red.png","../images/gry_blk.png","../images/ylw_slt.png","../images/org_blu.png","../images/blu_wht.png","../images/pnk_blu.png"],"mutagen_generator_assignment":[1,0],"goal":0,"start":4,"action_noise":0.15,"location_history":"[4,2,3,4,0]","action_history":"[1,1,1,0]","mutagen_history":"[0,0,0,1]","location_rts":"[743,1057,365,458]","trial_type":"fractal-mutation","trial_index":97,"time_elapsed":1291331,"internal_node_id":"0.0-5.0-43.0"},{"group":"hexagon_tri","fractal_assignment":["../images/cyn_red.png","../images/gry_blk.png","../images/ylw_slt.png","../images/org_blu.png","../images/blu_wht.png","../images/pnk_blu.png"],"mutagen_generator_assignment":[1,0],"goal":3,"start":0,"action_noise":0.15,"location_history":"[0,1,3]","action_history":"[1,0]","mutagen_history":"[0,1]","location_rts":"[1418,356]","trial_type":"fractal-mutation","trial_index":98,"time_elapsed":1298843,"internal_node_id":"0.0-5.0-44.0"},{"group":"hexagon_tri","fractal_assignment":["../images/cyn_red.png","../images/gry_blk.png","../images/ylw_slt.png","../images/org_blu.png","../images/blu_wht.png","../images/pnk_blu.png"],"mutagen_generator_assignment":[1,0],"goal":0,"start":3,"action_noise":0.15,"location_history":"[3,2,3,2,1,5,4,0]","action_history":"[0,1,0,0,0,0,0]","mutagen_history":"[1,0,1,1,1,1,1]","location_rts":"[344,336,360,188,374,488,554]","trial_type":"fractal-mutation","trial_index":99,"time_elapsed":1312870,"internal_node_id":"0.0-5.0-45.0"},{"group":"hexagon_tri","fractal_assignment":["../images/cyn_red.png","../images/gry_blk.png","../images/ylw_slt.png","../images/org_blu.png","../images/blu_wht.png","../images/pnk_blu.png"],"mutagen_generator_assignment":[1,0],"goal":4,"start":0,"action_noise":0.15,"location_history":"[0,1,3,2,1,5,4]","action_history":"[1,1,1,1,1,1]","mutagen_history":"[0,0,0,0,0,0]","location_rts":"[692,764,800,434,549,519]","trial_type":"fractal-mutation","trial_index":100,"time_elapsed":1326626,"internal_node_id":"0.0-5.0-46.0"},{"group":"hexagon_tri","fractal_assignment":["../images/cyn_red.png","../images/gry_blk.png","../images/ylw_slt.png","../images/org_blu.png","../images/blu_wht.png","../images/pnk_blu.png"],"mutagen_generator_assignment":[1,0],"goal":5,"start":4,"action_noise":0.15,"location_history":"[4,2,1,3,2,1,5]","action_history":"[1,0,0,0,0,1]","mutagen_history":"[0,1,1,1,1,0]","location_rts":"[903,222,456,323,386,450]","trial_type":"fractal-mutation","trial_index":101,"time_elapsed":1339596,"internal_node_id":"0.0-5.0-47.0"},{"group":"hexagon_tri","fractal_assignment":["../images/cyn_red.png","../images/gry_blk.png","../images/ylw_slt.png","../images/org_blu.png","../images/blu_wht.png","../images/pnk_blu.png"],"mutagen_generator_assignment":[1,0],"goal":2,"start":5,"action_noise":0.15,"location_history":"[5,0,5,4,2]","action_history":"[1,0,0,1]","mutagen_history":"[0,1,1,0]","location_rts":"[830,389,439,266]","trial_type":"fractal-mutation","trial_index":102,"time_elapsed":1349417,"internal_node_id":"0.0-5.0-48.0"},{"group":"hexagon_tri","fractal_assignment":["../images/cyn_red.png","../images/gry_blk.png","../images/ylw_slt.png","../images/org_blu.png","../images/blu_wht.png","../images/pnk_blu.png"],"mutagen_generator_assignment":[1,0],"goal":1,"start":2,"action_noise":0.15,"location_history":"[2,1]","action_history":"[0]","mutagen_history":"[1]","location_rts":"[407]","trial_type":"fractal-mutation","trial_index":103,"time_elapsed":1354456,"internal_node_id":"0.0-5.0-49.0"},{"view_history":"[{\"page_index\":0,\"viewing_time\":2538}]","rt":2538,"trial_type":"instructions","trial_index":104,"time_elapsed":1357996,"internal_node_id":"0.0-6.0"},{"rt":10460,"responses":"{\"Q0\":\"How we learned over time\"}","trial_type":"survey-text","trial_index":105,"time_elapsed":1369464,"internal_node_id":"0.0-7.0-0.0"},{"rt":12893,"responses":"{\"Q0\":\"How we recognized paterns\"}","trial_type":"survey-text","trial_index":106,"time_elapsed":1383360,"internal_node_id":"0.0-7.0-1.0"},{"rt":11442,"responses":"{\"Q0\":\"<img src='../images/diagrams/hexagon_tri.png'>\"}","trial_type":"survey-multi-choice","trial_index":107,"time_elapsed":1395815,"internal_node_id":"0.0-7.0-2.0"},{"rt":33120,"assignments":["../images/cyn_red.png","../images/org_blu.png","../images/pnk_blu.png","../images/gry_blk.png","../images/blu_wht.png","../images/ylw_slt.png"],"trial_type":"drag-drop-on-image","trial_index":108,"time_elapsed":1429939,"internal_node_id":"0.0-7.0-3.0"},{"rt":5241,"responses":"{\"Q0\":\"2\"}","trial_type":"survey-likert","trial_index":109,"time_elapsed":1436186,"internal_node_id":"0.0-7.0-4.0"},{"rt":20275,"responses":"{\"Q0\":\"There was a specific pathe that was simular\"}","trial_type":"survey-text","trial_index":110,"time_elapsed":1457463,"internal_node_id":"0.0-7.0-5.0"},{"rt":3633,"responses":"{\"Q0\":\"No\"}","trial_type":"survey-multi-choice","trial_index":111,"time_elapsed":1462101,"internal_node_id":"0.0-7.0-6.0"},{"rt":9000,"responses":"{\"Q0\":\"Between sessions 2 and 3\"}","trial_type":"survey-multi-choice","trial_index":112,"time_elapsed":1472106,"internal_node_id":"0.0-7.0-7.0"},{"rt":22167,"responses":"{\"Q0\":\"The door matched a little to the slides\"}","trial_type":"survey-text","trial_index":113,"time_elapsed":1495274,"internal_node_id":"0.0-7.0-8.0"},{"rt":6016,"responses":"{\"Q0\":\"2\"}","trial_type":"survey-likert","trial_index":114,"time_elapsed":1502297,"internal_node_id":"0.0-7.0-9.0"},{"rt":6781,"responses":"{\"Q0\":\"Same structure\"}","trial_type":"survey-multi-choice","trial_index":115,"time_elapsed":1510081,"internal_node_id":"0.0-7.0-10.0"},{"rt":20636,"responses":"{\"Q0\":\"left (black) door = acid, right (white) door = ray\",\"Q1\":\"Pretty confident\"}","trial_type":"survey-multi-choice","trial_index":116,"time_elapsed":1531729,"internal_node_id":"0.0-7.0-11.0"},{"rt":7713,"responses":"{\"Q0\":\"35-45\",\"Q1\":\"Associates or other two-year degree\",\"Q2\":\"Male\",\"Q3\":\"White\"}","trial_type":"survey-multi-choice","trial_index":117,"time_elapsed":1540469,"internal_node_id":"0.0-8.0"},{"rt":5570,"responses":"{\"Q0\":\"Thank you\"}","trial_type":"survey-text","trial_index":118,"time_elapsed":1547041,"internal_node_id":"0.0-9.0"}]