[{"view_history":"[{\"page_index\":0,\"viewing_time\":1443},{\"page_index\":1,\"viewing_time\":6159}]","rt":7602,"trial_type":"instructions","trial_index":0,"time_elapsed":7602,"internal_node_id":"0.0-0.0"},{"view_history":"[{\"page_index\":0,\"viewing_time\":1765},{\"page_index\":1,\"viewing_time\":9336}]","rt":11102,"trial_type":"instructions","trial_index":1,"time_elapsed":19706,"internal_node_id":"0.0-1.0"},{"group":"square cycles (cube, non-group)","room_assignment":["grey","green","blue","yellow","pink","brown","purple","red"],"door_color_assignment":["black","white"],"door_generator_assignment":[1,0],"goal":6,"start":3,"action_noise":0.1,"location_history":"[3,0,4,5,1,2,6]","action_history":"[1,1,1,1,0,1]","door_history":"[0,0,0,0,1,0]","location_rts":"[715,389,475,377,342,416]","trial_type":"two-door-navigation","trial_index":2,"time_elapsed":32036,"internal_node_id":"0.0-2.0-0.0"},{"group":"square cycles (cube, non-group)","room_assignment":["grey","green","blue","yellow","pink","brown","purple","red"],"door_color_assignment":["black","white"],"door_generator_assignment":[1,0],"goal":1,"start":6,"action_noise":0.1,"location_history":"[6,7,6,5,1]","action_history":"[1,0,0,1]","door_history":"[0,1,1,0]","location_rts":"[795,608,902,353]","trial_type":"two-door-navigation","trial_index":3,"time_elapsed":42265,"internal_node_id":"0.0-2.0-1.0"},{"group":"square cycles (cube, non-group)","room_assignment":["grey","green","blue","yellow","pink","brown","purple","red"],"door_color_assignment":["black","white"],"door_generator_assignment":[1,0],"goal":2,"start":1,"action_noise":0.1,"location_history":"[1,2]","action_history":"[0]","door_history":"[1]","location_rts":"[454]","trial_type":"two-door-navigation","trial_index":4,"time_elapsed":47244,"internal_node_id":"0.0-2.0-2.0"},{"group":"square cycles (cube, non-group)","room_assignment":["grey","green","blue","yellow","pink","brown","purple","red"],"door_color_assignment":["black","white"],"door_generator_assignment":[1,0],"goal":0,"start":2,"action_noise":0.1,"location_history":"[2,6,7,3,2,6,7,6,5,1,2,3,0]","action_history":"[1,0,0,1,1,1,0,0,0,0,0,0]","door_history":"[0,1,1,0,0,0,1,1,1,1,1,1]","location_rts":"[1060,1207,573,752,763,710,510,446,740,270,469,421]","trial_type":"two-door-navigation","trial_index":5,"time_elapsed":70878,"internal_node_id":"0.0-2.0-3.0"},{"group":"square cycles (cube, non-group)","room_assignment":["grey","green","blue","yellow","pink","brown","purple","red"],"door_color_assignment":["black","white"],"door_generator_assignment":[1,0],"goal":7,"start":0,"action_noise":0.1,"location_history":"[0,4,5,1,0,4,7]","action_history":"[1,1,1,0,1,1]","door_history":"[0,0,0,1,0,0]","location_rts":"[729,636,613,509,734,888]","trial_type":"two-door-navigation","trial_index":6,"time_elapsed":84600,"internal_node_id":"0.0-2.0-4.0"},{"group":"square cycles (cube, non-group)","room_assignment":["grey","green","blue","yellow","pink","brown","purple","red"],"door_color_assignment":["black","white"],"door_generator_assignment":[1,0],"goal":5,"start":7,"action_noise":0.1,"location_history":"[7,6,7,3,2,3,0,1,2,3,2,6,5]","action_history":"[0,1,1,1,0,0,0,0,1,1,1,0]","door_history":"[1,0,0,0,1,1,1,1,0,0,0,1]","location_rts":"[943,681,326,676,279,361,545,385,601,720,629,478]","trial_type":"two-door-navigation","trial_index":7,"time_elapsed":106927,"internal_node_id":"0.0-2.0-5.0"},{"group":"square cycles (cube, non-group)","room_assignment":["grey","green","blue","yellow","pink","brown","purple","red"],"door_color_assignment":["black","white"],"door_generator_assignment":[1,0],"goal":4,"start":5,"action_noise":0.1,"location_history":"[5,1,0,4]","action_history":"[1,0,1]","door_history":"[0,1,0]","location_rts":"[440,1304,833]","trial_type":"two-door-navigation","trial_index":8,"time_elapsed":116055,"internal_node_id":"0.0-2.0-6.0"},{"group":"square cycles (cube, non-group)","room_assignment":["grey","green","blue","yellow","pink","brown","purple","red"],"door_color_assignment":["black","white"],"door_generator_assignment":[1,0],"goal":2,"start":4,"action_noise":0.1,"location_history":"[4,5,1,2]","action_history":"[1,1,0]","door_history":"[0,0,1]","location_rts":"[1839,414,751]","trial_type":"two-door-navigation","trial_index":9,"time_elapsed":125614,"internal_node_id":"0.0-2.0-7.0"},{"group":"square cycles (cube, non-group)","room_assignment":["grey","green","blue","yellow","pink","brown","purple","red"],"door_color_assignment":["black","white"],"door_generator_assignment":[1,0],"goal":3,"start":2,"action_noise":0.1,"location_history":"[2,6,7,6,5,4,5,1,2,6,7,3]","action_history":"[1,1,0,0,1,1,1,0,1,1,0]","door_history":"[0,0,1,1,0,0,0,1,0,0,1]","location_rts":"[648,539,423,560,834,480,414,945,929,477,848]","trial_type":"two-door-navigation","trial_index":10,"time_elapsed":147402,"internal_node_id":"0.0-2.0-8.0"},{"group":"square cycles (cube, non-group)","room_assignment":["grey","green","blue","yellow","pink","brown","purple","red"],"door_color_assignment":["black","white"],"door_generator_assignment":[1,0],"goal":7,"start":3,"action_noise":0.1,"location_history":"[3,2,6,7]","action_history":"[1,1,1]","door_history":"[0,0,0]","location_rts":"[1029,526,681]","trial_type":"two-door-navigation","trial_index":11,"time_elapsed":156188,"internal_node_id":"0.0-2.0-9.0"},{"group":"square cycles (cube, non-group)","room_assignment":["grey","green","blue","yellow","pink","brown","purple","red"],"door_color_assignment":["black","white"],"door_generator_assignment":[1,0],"goal":0,"start":7,"action_noise":0.1,"location_history":"[7,3,2,6,5,4,5,1,2,6,5,1,2,6,5,4,7,6,5,1,2,6,7,6,7,6,5,1,2,6,7,6,5,4,5,1,2,6,5,1,2,6,7,3,2,6,7,3,2,6,7,3,0]","action_history":"[1,1,1,1,0,0,1,0,1,0,1,0,1,0,0,0,0,0,1,0,1,1,0,0,0,0,1,0,1,1,0,0,0,1,1,0,0,0,1,0,1,1,1,1,1,1,1,1,1,1,1,1]","door_history":"[0,0,0,0,1,1,0,1,0,1,0,1,0,1,1,1,1,1,0,1,0,0,1,1,1,1,0,1,0,0,1,1,1,0,0,1,1,1,0,1,0,0,0,0,0,0,0,0,0,0,0,0]","location_rts":"[331,414,514,573,572,574,751,848,862,820,995,759,869,1271,528,424,492,478,708,738,701,531,450,444,418,335,480,886,656,839,379,456,544,1065,433,731,353,367,285,750,618,655,344,128,30,144,115,93,82,71,73,22]","trial_type":"two-door-navigation","trial_index":12,"time_elapsed":239558,"internal_node_id":"0.0-2.0-10.0"},{"group":"square cycles (cube, non-group)","room_assignment":["grey","green","blue","yellow","pink","brown","purple","red"],"door_color_assignment":["black","white"],"door_generator_assignment":[1,0],"goal":1,"start":0,"action_noise":0.1,"location_history":"[0,4,5,1]","action_history":"[1,1,1]","door_history":"[0,0,0]","location_rts":"[1159,414,424]","trial_type":"two-door-navigation","trial_index":13,"time_elapsed":248110,"internal_node_id":"0.0-2.0-11.0"},{"group":"square cycles (cube, non-group)","room_assignment":["grey","green","blue","yellow","pink","brown","purple","red"],"door_color_assignment":["black","white"],"door_generator_assignment":[1,0],"goal":6,"start":1,"action_noise":0.1,"location_history":"[1,2,6]","action_history":"[0,1]","door_history":"[1,0]","location_rts":"[978,642]","trial_type":"two-door-navigation","trial_index":14,"time_elapsed":255264,"internal_node_id":"0.0-2.0-12.0"},{"group":"square cycles (cube, non-group)","room_assignment":["grey","green","blue","yellow","pink","brown","purple","red"],"door_color_assignment":["black","white"],"door_generator_assignment":[1,0],"goal":4,"start":6,"action_noise":0.1,"location_history":"[6,7,6,5,1,2,6,7,6,5,1,2,6,7,3,2,6,5,4]","action_history":"[1,0,0,1,0,1,1,0,0,1,0,1,1,1,1,1,0,1]","door_history":"[0,1,1,0,1,0,0,1,1,0,1,0,0,0,0,0,1,0]","location_rts":"[1152,2323,859,1550,724,686,673,925,532,840,957,576,751,427,586,448,986,1019]","trial_type":"two-door-navigation","trial_index":15,"time_elapsed":293093,"internal_node_id":"0.0-2.0-13.0"},{"group":"square cycles (cube, non-group)","room_assignment":["grey","green","blue","yellow","pink","brown","purple","red"],"door_color_assignment":["black","white"],"door_generator_assignment":[1,0],"goal":5,"start":4,"action_noise":0.1,"location_history":"[4,5]","action_history":"[1]","door_history":"[0]","location_rts":"[843]","trial_type":"two-door-navigation","trial_index":16,"time_elapsed":298455,"internal_node_id":"0.0-2.0-14.0"},{"group":"square cycles (cube, non-group)","room_assignment":["grey","green","blue","yellow","pink","brown","purple","red"],"door_color_assignment":["black","white"],"door_generator_assignment":[1,0],"goal":4,"start":5,"action_noise":0.1,"location_history":"[5,1,2,6,5,1,2,6,7,6,5,1,2,6,7,6,7,3,2,6,5,1,2,6,5,1,2,6,7,6,5,1,2,3,0,4]","action_history":"[1,0,1,0,1,0,1,1,0,0,1,0,1,1,0,1,0,1,1,1,1,0,1,0,1,0,1,1,1,0,0,0,0,0,1]","door_history":"[0,1,0,1,0,1,0,0,1,1,0,1,0,0,1,0,1,0,0,0,0,1,0,1,0,1,0,0,0,1,1,1,1,1,0]","location_rts":"[559,727,722,771,962,774,1112,702,805,510,953,940,749,616,1078,1025,1088,1423,454,514,525,690,633,475,698,745,983,482,342,308,264,363,424,506,371]","trial_type":"two-door-navigation","trial_index":17,"time_elapsed":361840,"internal_node_id":"0.0-2.0-15.0"},{"group":"square cycles (cube, non-group)","room_assignment":["grey","green","blue","yellow","pink","brown","purple","red"],"door_color_assignment":["black","white"],"door_generator_assignment":[1,0],"goal":0,"start":4,"action_noise":0.1,"location_history":"[4,5,4,5,1,2,3,0]","action_history":"[1,1,1,1,0,1,0]","door_history":"[0,0,0,0,1,0,1]","location_rts":"[905,575,464,408,519,745,852]","trial_type":"two-door-navigation","trial_index":18,"time_elapsed":376924,"internal_node_id":"0.0-2.0-16.0"},{"group":"square cycles (cube, non-group)","room_assignment":["grey","green","blue","yellow","pink","brown","purple","red"],"door_color_assignment":["black","white"],"door_generator_assignment":[1,0],"goal":7,"start":0,"action_noise":0.1,"location_history":"[0,4,5,1,2,6,7]","action_history":"[1,1,1,0,1,1]","door_history":"[0,0,0,1,0,0]","location_rts":"[506,1233,431,391,862,573]","trial_type":"two-door-navigation","trial_index":19,"time_elapsed":390526,"internal_node_id":"0.0-2.0-17.0"},{"group":"square cycles (cube, non-group)","room_assignment":["grey","green","blue","yellow","pink","brown","purple","red"],"door_color_assignment":["black","white"],"door_generator_assignment":[1,0],"goal":2,"start":7,"action_noise":0.1,"location_history":"[7,3,2]","action_history":"[1,1]","door_history":"[0,0]","location_rts":"[435,459]","trial_type":"two-door-navigation","trial_index":20,"time_elapsed":396952,"internal_node_id":"0.0-2.0-18.0"},{"group":"square cycles (cube, non-group)","room_assignment":["grey","green","blue","yellow","pink","brown","purple","red"],"door_color_assignment":["black","white"],"door_generator_assignment":[1,0],"goal":1,"start":2,"action_noise":0.1,"location_history":"[2,3,0,4,5,1]","action_history":"[0,0,1,1,1]","door_history":"[1,1,0,0,0]","location_rts":"[351,318,513,497,438]","trial_type":"two-door-navigation","trial_index":21,"time_elapsed":407654,"internal_node_id":"0.0-2.0-19.0"},{"group":"square cycles (cube, non-group)","room_assignment":["grey","green","blue","yellow","pink","brown","purple","red"],"door_color_assignment":["black","white"],"door_generator_assignment":[1,0],"goal":3,"start":1,"action_noise":0.1,"location_history":"[1,2,6,5,1,2,6,7,3]","action_history":"[0,1,0,1,0,1,0,0]","door_history":"[1,0,1,0,1,0,1,1]","location_rts":"[722,2528,1501,1351,807,489,1136,776]","trial_type":"two-door-navigation","trial_index":22,"time_elapsed":428599,"internal_node_id":"0.0-2.0-20.0"},{"group":"square cycles (cube, non-group)","room_assignment":["grey","green","blue","yellow","pink","brown","purple","red"],"door_color_assignment":["black","white"],"door_generator_assignment":[1,0],"goal":6,"start":3,"action_noise":0.1,"location_history":"[3,2,6]","action_history":"[1,1]","door_history":"[0,0]","location_rts":"[1113,471]","trial_type":"two-door-navigation","trial_index":23,"time_elapsed":435719,"internal_node_id":"0.0-2.0-21.0"},{"group":"square cycles (cube, non-group)","room_assignment":["grey","green","blue","yellow","pink","brown","purple","red"],"door_color_assignment":["black","white"],"door_generator_assignment":[1,0],"goal":5,"start":6,"action_noise":0.1,"location_history":"[6,5]","action_history":"[0]","door_history":"[1]","location_rts":"[843]","trial_type":"two-door-navigation","trial_index":24,"time_elapsed":441078,"internal_node_id":"0.0-2.0-22.0"},{"group":"square cycles (cube, non-group)","room_assignment":["grey","green","blue","yellow","pink","brown","purple","red"],"door_color_assignment":["black","white"],"door_generator_assignment":[1,0],"goal":3,"start":5,"action_noise":0.1,"location_history":"[5,1,2,3]","action_history":"[1,0,0]","door_history":"[0,1,1]","location_rts":"[3763,1467,512]","trial_type":"two-door-navigation","trial_index":25,"time_elapsed":453375,"internal_node_id":"0.0-2.0-23.0"},{"group":"square cycles (cube, non-group)","room_assignment":["grey","green","blue","yellow","pink","brown","purple","red"],"door_color_assignment":["black","white"],"door_generator_assignment":[1,0],"goal":0,"start":3,"action_noise":0.1,"location_history":"[3,2,3,2,6,5,4,5,4,5,1,2,6,5,1,0]","action_history":"[1,0,1,1,0,1,1,1,1,1,0,1,0,1,0]","door_history":"[0,1,0,0,1,0,0,0,0,0,1,0,1,0,1]","location_rts":"[1332,2670,990,447,735,889,711,482,474,432,793,798,755,891,833]","trial_type":"two-door-navigation","trial_index":26,"time_elapsed":485360,"internal_node_id":"0.0-2.0-24.0"},{"group":"square cycles (cube, non-group)","room_assignment":["grey","green","blue","yellow","pink","brown","purple","red"],"door_color_assignment":["black","white"],"door_generator_assignment":[1,0],"goal":7,"start":0,"action_noise":0.1,"location_history":"[0,4,5,1,2,6,5,1,2,6,5,1,2,6,7]","action_history":"[1,1,1,0,1,0,1,0,1,1,1,0,1,1]","door_history":"[0,0,0,1,0,1,0,1,0,0,0,1,0,0]","location_rts":"[808,449,430,769,800,690,688,635,574,549,449,939,760,591]","trial_type":"two-door-navigation","trial_index":27,"time_elapsed":512224,"internal_node_id":"0.0-2.0-25.0"},{"group":"square cycles (cube, non-group)","room_assignment":["grey","green","blue","yellow","pink","brown","purple","red"],"door_color_assignment":["black","white"],"door_generator_assignment":[1,0],"goal":2,"start":7,"action_noise":0.1,"location_history":"[7,3,2]","action_history":"[0,1]","door_history":"[1,0]","location_rts":"[1272,990]","trial_type":"two-door-navigation","trial_index":28,"time_elapsed":520031,"internal_node_id":"0.0-2.0-26.0"},{"group":"square cycles (cube, non-group)","room_assignment":["grey","green","blue","yellow","pink","brown","purple","red"],"door_color_assignment":["black","white"],"door_generator_assignment":[1,0],"goal":1,"start":2,"action_noise":0.1,"location_history":"[2,3,0,1]","action_history":"[1,0,0]","door_history":"[0,1,1]","location_rts":"[945,600,399]","trial_type":"two-door-navigation","trial_index":29,"time_elapsed":528527,"internal_node_id":"0.0-2.0-27.0"},{"group":"square cycles (cube, non-group)","room_assignment":["grey","green","blue","yellow","pink","brown","purple","red"],"door_color_assignment":["black","white"],"door_generator_assignment":[1,0],"goal":5,"start":1,"action_noise":0.1,"location_history":"[1,2,6,7,6,7,6,5]","action_history":"[0,1,1,0,1,0,0]","door_history":"[1,0,0,1,0,1,1]","location_rts":"[945,400,586,650,953,794,630]","trial_type":"two-door-navigation","trial_index":30,"time_elapsed":544108,"internal_node_id":"0.0-2.0-28.0"},{"group":"square cycles (cube, non-group)","room_assignment":["grey","green","blue","yellow","pink","brown","purple","red"],"door_color_assignment":["black","white"],"door_generator_assignment":[1,0],"goal":4,"start":5,"action_noise":0.1,"location_history":"[5,1,2,6,5,1,2,6,7,6,5,1,2,6,7,6,5,4]","action_history":"[1,0,1,0,1,0,1,1,0,0,1,0,1,1,0,0,0]","door_history":"[0,1,0,1,0,1,0,0,1,1,0,1,0,0,1,1,1]","location_rts":"[693,547,814,1144,474,976,495,517,926,672,1032,777,457,458,878,342,425]","trial_type":"two-door-navigation","trial_index":31,"time_elapsed":576512,"internal_node_id":"0.0-2.0-29.0"},{"group":"square cycles (cube, non-group)","room_assignment":["grey","green","blue","yellow","pink","brown","purple","red"],"door_color_assignment":["black","white"],"door_generator_assignment":[1,0],"goal":6,"start":4,"action_noise":0.1,"location_history":"[4,5,1,2,6]","action_history":"[1,1,0,1]","door_history":"[0,0,1,0]","location_rts":"[1064,374,722,855]","trial_type":"two-door-navigation","trial_index":32,"time_elapsed":587096,"internal_node_id":"0.0-2.0-30.0"},{"group":"square cycles (cube, non-group)","room_assignment":["grey","green","blue","yellow","pink","brown","purple","red"],"door_color_assignment":["black","white"],"door_generator_assignment":[1,0],"goal":4,"start":6,"action_noise":0.1,"location_history":"[6,7,6,5,4]","action_history":"[1,0,0,0]","door_history":"[0,1,1,1]","location_rts":"[415,841,487,320]","trial_type":"two-door-navigation","trial_index":33,"time_elapsed":596728,"internal_node_id":"0.0-2.0-31.0"},{"group":"square cycles (cube, non-group)","room_assignment":["grey","green","blue","yellow","pink","brown","purple","red"],"door_color_assignment":["black","white"],"door_generator_assignment":[1,0],"goal":2,"start":4,"action_noise":0.1,"location_history":"[4,5,1,2]","action_history":"[1,1,0]","door_history":"[0,0,1]","location_rts":"[542,437,639]","trial_type":"two-door-navigation","trial_index":34,"time_elapsed":604904,"internal_node_id":"0.0-2.0-32.0"},{"group":"square cycles (cube, non-group)","room_assignment":["grey","green","blue","yellow","pink","brown","purple","red"],"door_color_assignment":["black","white"],"door_generator_assignment":[1,0],"goal":0,"start":2,"action_noise":0.1,"location_history":"[2,6,5,1,2,6,7,6,5,1,2,6,7,3,2,6,7,6,5,4,7,6,5,4,7,6,7,6,7,3,2,3,2,6,7,6,7,3,2,6,7,6,5,1,2,6,7,6,5,4,7,6,7,3,2,3,2,6,7,3,2,3,0]","action_history":"[1,0,1,0,1,1,0,0,1,0,1,1,1,1,1,1,0,0,0,0,0,0,0,0,0,1,1,1,1,1,0,1,1,1,0,1,1,1,1,1,0,0,1,0,1,1,0,0,0,0,0,1,1,1,0,1,1,1,1,1,0,0]","door_history":"[0,1,0,1,0,0,1,1,0,1,0,0,0,0,0,0,1,1,1,1,1,1,1,1,1,0,0,0,0,0,1,0,0,0,1,0,0,0,0,0,1,1,0,1,0,0,1,1,1,1,1,0,0,0,1,0,0,0,0,0,1,1]","location_rts":"[3705,893,526,777,848,1608,1046,538,953,1030,817,510,344,354,591,433,346,302,697,332,437,414,408,590,935,556,426,382,341,649,376,299,342,395,296,503,415,477,432,446,344,385,941,367,799,474,298,280,224,259,206,325,197,158,176,88,64,178,101,32,85,24]","trial_type":"two-door-navigation","trial_index":35,"time_elapsed":703225,"internal_node_id":"0.0-2.0-33.0"},{"group":"square cycles (cube, non-group)","room_assignment":["grey","green","blue","yellow","pink","brown","purple","red"],"door_color_assignment":["black","white"],"door_generator_assignment":[1,0],"goal":5,"start":0,"action_noise":0.1,"location_history":"[0,4,5]","action_history":"[1,1]","door_history":"[0,0]","location_rts":"[559,254]","trial_type":"two-door-navigation","trial_index":36,"time_elapsed":709575,"internal_node_id":"0.0-2.0-34.0"},{"group":"square cycles (cube, non-group)","room_assignment":["grey","green","blue","yellow","pink","brown","purple","red"],"door_color_assignment":["black","white"],"door_generator_assignment":[1,0],"goal":1,"start":5,"action_noise":0.1,"location_history":"[5,1]","action_history":"[1]","door_history":"[0]","location_rts":"[408]","trial_type":"two-door-navigation","trial_index":37,"time_elapsed":714505,"internal_node_id":"0.0-2.0-35.0"},{"group":"square cycles (cube, non-group)","room_assignment":["grey","green","blue","yellow","pink","brown","purple","red"],"door_color_assignment":["black","white"],"door_generator_assignment":[1,0],"goal":7,"start":1,"action_noise":0.1,"location_history":"[1,2,6,7]","action_history":"[0,1,1]","door_history":"[1,0,0]","location_rts":"[493,645,571]","trial_type":"two-door-navigation","trial_index":38,"time_elapsed":722767,"internal_node_id":"0.0-2.0-36.0"},{"group":"square cycles (cube, non-group)","room_assignment":["grey","green","blue","yellow","pink","brown","purple","red"],"door_color_assignment":["black","white"],"door_generator_assignment":[1,0],"goal":3,"start":7,"action_noise":0.1,"location_history":"[7,6,7,3]","action_history":"[0,1,0]","door_history":"[1,0,1]","location_rts":"[792,898,1055]","trial_type":"two-door-navigation","trial_index":39,"time_elapsed":732071,"internal_node_id":"0.0-2.0-37.0"},{"group":"square cycles (cube, non-group)","room_assignment":["grey","green","blue","yellow","pink","brown","purple","red"],"door_color_assignment":["black","white"],"door_generator_assignment":[1,0],"goal":6,"start":3,"action_noise":0.1,"location_history":"[3,0,1,0,4,5,1,2,6]","action_history":"[1,0,0,1,1,1,0,1]","door_history":"[0,1,1,0,0,0,1,0]","location_rts":"[600,421,304,349,346,493,866,863]","trial_type":"two-door-navigation","trial_index":40,"time_elapsed":747953,"internal_node_id":"0.0-2.0-38.0"},{"group":"square cycles (cube, non-group)","room_assignment":["grey","green","blue","yellow","pink","brown","purple","red"],"door_color_assignment":["black","white"],"door_generator_assignment":[1,0],"goal":2,"start":6,"action_noise":0.1,"location_history":"[6,7,6,7,6,7,6,7,3,2]","action_history":"[1,0,1,0,0,0,1,1,0]","door_history":"[0,1,0,1,1,1,0,0,1]","location_rts":"[1758,464,918,372,392,529,477,302,518]","trial_type":"two-door-navigation","trial_index":41,"time_elapsed":766344,"internal_node_id":"0.0-2.0-39.0"},{"group":"square cycles (cube, non-group)","room_assignment":["grey","green","blue","yellow","pink","brown","purple","red"],"door_color_assignment":["black","white"],"door_generator_assignment":[1,0],"goal":1,"start":2,"action_noise":0.1,"location_history":"[2,6,5,4,7,3,2,6,5,1]","action_history":"[1,1,0,0,0,1,1,0,1]","door_history":"[0,0,1,1,1,0,0,1,0]","location_rts":"[725,406,71,266,295,369,407,1078,966]","trial_type":"two-door-navigation","trial_index":42,"time_elapsed":783583,"internal_node_id":"0.0-2.0-40.0"},{"group":"square cycles (cube, non-group)","room_assignment":["grey","green","blue","yellow","pink","brown","purple","red"],"door_color_assignment":["black","white"],"door_generator_assignment":[1,0],"goal":0,"start":1,"action_noise":0.1,"location_history":"[1,2,6,7,6,5,1,2,6,7,6,5,4,7,6,5,4,5,1,0]","action_history":"[0,1,1,0,0,1,0,1,1,0,0,0,0,0,1,1,1,1,0]","door_history":"[1,0,0,1,1,0,1,0,0,1,1,1,1,1,0,0,0,0,1]","location_rts":"[832,877,540,856,591,727,743,519,601,557,334,405,413,769,613,294,328,345,745]","trial_type":"two-door-navigation","trial_index":43,"time_elapsed":817509,"internal_node_id":"0.0-2.0-41.0"},{"group":"square cycles (cube, non-group)","room_assignment":["grey","green","blue","yellow","pink","brown","purple","red"],"door_color_assignment":["black","white"],"door_generator_assignment":[1,0],"goal":4,"start":0,"action_noise":0.1,"location_history":"[0,4]","action_history":"[1]","door_history":"[0]","location_rts":"[682]","trial_type":"two-door-navigation","trial_index":44,"time_elapsed":822713,"internal_node_id":"0.0-2.0-42.0"},{"group":"square cycles (cube, non-group)","room_assignment":["grey","green","blue","yellow","pink","brown","purple","red"],"door_color_assignment":["black","white"],"door_generator_assignment":[1,0],"goal":6,"start":4,"action_noise":0.1,"location_history":"[4,5,1,2,6]","action_history":"[1,1,0,1]","door_history":"[0,0,1,0]","location_rts":"[303,423,530,1047]","trial_type":"two-door-navigation","trial_index":45,"time_elapsed":832581,"internal_node_id":"0.0-2.0-43.0"},{"group":"square cycles (cube, non-group)","room_assignment":["grey","green","blue","yellow","pink","brown","purple","red"],"door_color_assignment":["black","white"],"door_generator_assignment":[1,0],"goal":3,"start":6,"action_noise":0.1,"location_history":"[6,7,6,7,6,5,4,5,1,2,6,5,1,2,6,7,6,5,1,2,6,7,6,7,6,5,1,2,6,7,6,7,3]","action_history":"[1,0,1,0,0,1,1,1,0,1,0,1,0,1,1,0,0,1,0,1,1,0,0,0,0,1,0,1,1,1,1,1]","door_history":"[0,1,0,1,1,0,0,0,1,0,1,0,1,0,0,1,1,0,1,0,0,1,1,1,1,0,1,0,0,0,0,0]","location_rts":"[681,438,485,293,230,506,342,358,435,799,502,906,720,840,1181,831,527,878,613,605,535,691,465,740,347,863,628,629,529,362,386,302]","trial_type":"two-door-navigation","trial_index":46,"time_elapsed":887271,"internal_node_id":"0.0-2.0-44.0"},{"group":"square cycles (cube, non-group)","room_assignment":["grey","green","blue","yellow","pink","brown","purple","red"],"door_color_assignment":["black","white"],"door_generator_assignment":[1,0],"goal":7,"start":3,"action_noise":0.1,"location_history":"[3,2,3,2,6,7]","action_history":"[1,0,1,1,1]","door_history":"[0,1,0,0,0]","location_rts":"[6087,405,992,349,634]","trial_type":"two-door-navigation","trial_index":47,"time_elapsed":904325,"internal_node_id":"0.0-2.0-45.0"},{"group":"square cycles (cube, non-group)","room_assignment":["grey","green","blue","yellow","pink","brown","purple","red"],"door_color_assignment":["black","white"],"door_generator_assignment":[1,0],"goal":5,"start":7,"action_noise":0.1,"location_history":"[7,6,7,3,0,4,5]","action_history":"[0,1,0,0,1,1]","door_history":"[1,0,1,1,0,0]","location_rts":"[960,824,1283,272,297,325]","trial_type":"two-door-navigation","trial_index":48,"time_elapsed":917888,"internal_node_id":"0.0-2.0-46.0"},{"group":"square cycles (cube, non-group)","room_assignment":["grey","green","blue","yellow","pink","brown","purple","red"],"door_color_assignment":["black","white"],"door_generator_assignment":[1,0],"goal":1,"start":5,"action_noise":0.1,"location_history":"[5,1]","action_history":"[1]","door_history":"[0]","location_rts":"[1223]","trial_type":"two-door-navigation","trial_index":49,"time_elapsed":923628,"internal_node_id":"0.0-2.0-47.0"},{"group":"square cycles (cube, non-group)","room_assignment":["grey","green","blue","yellow","pink","brown","purple","red"],"door_color_assignment":["black","white"],"door_generator_assignment":[1,0],"goal":6,"start":1,"action_noise":0.1,"location_history":"[1,2,3,0,4,5,1,2,6]","action_history":"[0,1,0,1,1,1,0,1]","door_history":"[1,0,1,0,0,0,1,0]","location_rts":"[1048,576,936,336,274,286,1216,391]","trial_type":"two-door-navigation","trial_index":50,"time_elapsed":940335,"internal_node_id":"0.0-2.0-48.0"},{"group":"square cycles (cube, non-group)","room_assignment":["grey","green","blue","yellow","pink","brown","purple","red"],"door_color_assignment":["black","white"],"door_generator_assignment":[1,0],"goal":0,"start":6,"action_noise":0.1,"location_history":"[6,7,3,2,3,0]","action_history":"[1,1,1,1,0]","door_history":"[0,0,0,0,1]","location_rts":"[791,404,353,457,715]","trial_type":"two-door-navigation","trial_index":51,"time_elapsed":951634,"internal_node_id":"0.0-2.0-49.0"},{"view_history":"[{\"page_index\":0,\"viewing_time\":1757}]","rt":1757,"trial_type":"instructions","trial_index":52,"time_elapsed":954392,"internal_node_id":"0.0-3.0"},{"view_history":"[{\"page_index\":0,\"viewing_time\":1959},{\"page_index\":1,\"viewing_time\":6184}]","rt":8143,"trial_type":"instructions","trial_index":53,"time_elapsed":963535,"internal_node_id":"0.0-4.0"},{"group":"square cycles (cube, non-group)","fractal_assignment":["../images/ylw_pnk.png","../images/ylw_slt.png","../images/gry_blk.png","../images/cyn_red.png","../images/grn_red.png","../images/pnk_blu.png","../images/blu_wht.png","../images/org_blu.png"],"mutagen_generator_assignment":[1,0],"goal":6,"start":3,"action_noise":0.1,"location_history":"[3,2,6]","action_history":"[1,1]","mutagen_history":"[0,0]","location_rts":"[1724,573]","trial_type":"fractal-mutation","trial_index":54,"time_elapsed":971395,"internal_node_id":"0.0-5.0-0.0"},{"group":"square cycles (cube, non-group)","fractal_assignment":["../images/ylw_pnk.png","../images/ylw_slt.png","../images/gry_blk.png","../images/cyn_red.png","../images/grn_red.png","../images/pnk_blu.png","../images/blu_wht.png","../images/org_blu.png"],"mutagen_generator_assignment":[1,0],"goal":1,"start":6,"action_noise":0.1,"location_history":"[6,5,1]","action_history":"[0,1]","mutagen_history":"[1,0]","location_rts":"[505,384]","trial_type":"fractal-mutation","trial_index":55,"time_elapsed":977865,"internal_node_id":"0.0-5.0-1.0"},{"group":"square cycles (cube, non-group)","fractal_assignment":["../images/ylw_pnk.png","../images/ylw_slt.png","../images/gry_blk.png","../images/cyn_red.png","../images/grn_red.png","../images/pnk_blu.png","../images/blu_wht.png","../images/org_blu.png"],"mutagen_generator_assignment":[1,0],"goal":2,"start":1,"action_noise":0.1,"location_history":"[1,0,1,2]","action_history":"[1,0,0]","mutagen_history":"[0,1,1]","location_rts":"[428,635,254]","trial_type":"fractal-mutation","trial_index":56,"time_elapsed":985795,"internal_node_id":"0.0-5.0-2.0"},{"group":"square cycles (cube, non-group)","fractal_assignment":["../images/ylw_pnk.png","../images/ylw_slt.png","../images/gry_blk.png","../images/cyn_red.png","../images/grn_red.png","../images/pnk_blu.png","../images/blu_wht.png","../images/org_blu.png"],"mutagen_generator_assignment":[1,0],"goal":0,"start":2,"action_noise":0.1,"location_history":"[2,3,2,6,7,3,0]","action_history":"[0,1,1,1,1,0]","mutagen_history":"[1,0,0,0,0,1]","location_rts":"[1274,373,330,409,473,355]","trial_type":"fractal-mutation","trial_index":57,"time_elapsed":998669,"internal_node_id":"0.0-5.0-3.0"},{"group":"square cycles (cube, non-group)","fractal_assignment":["../images/ylw_pnk.png","../images/ylw_slt.png","../images/gry_blk.png","../images/cyn_red.png","../images/grn_red.png","../images/pnk_blu.png","../images/blu_wht.png","../images/org_blu.png"],"mutagen_generator_assignment":[1,0],"goal":7,"start":0,"action_noise":0.1,"location_history":"[0,4,7]","action_history":"[1,0]","mutagen_history":"[0,1]","location_rts":"[463,701]","trial_type":"fractal-mutation","trial_index":58,"time_elapsed":1005406,"internal_node_id":"0.0-5.0-4.0"},{"group":"square cycles (cube, non-group)","fractal_assignment":["../images/ylw_pnk.png","../images/ylw_slt.png","../images/gry_blk.png","../images/cyn_red.png","../images/grn_red.png","../images/pnk_blu.png","../images/blu_wht.png","../images/org_blu.png"],"mutagen_generator_assignment":[1,0],"goal":5,"start":7,"action_noise":0.1,"location_history":"[7,6,5]","action_history":"[1,0]","mutagen_history":"[0,1]","location_rts":"[1869,766]","trial_type":"fractal-mutation","trial_index":59,"time_elapsed":1013608,"internal_node_id":"0.0-5.0-5.0"},{"group":"square cycles (cube, non-group)","fractal_assignment":["../images/ylw_pnk.png","../images/ylw_slt.png","../images/gry_blk.png","../images/cyn_red.png","../images/grn_red.png","../images/pnk_blu.png","../images/blu_wht.png","../images/org_blu.png"],"mutagen_generator_assignment":[1,0],"goal":4,"start":5,"action_noise":0.1,"location_history":"[5,1,2,3,2,6,7,3,0,1,0,4]","action_history":"[1,0,0,1,1,1,1,0,0,1,1]","mutagen_history":"[0,1,1,0,0,0,0,1,1,0,0]","location_rts":"[821,625,139,272,318,7083,833,4428,826,570,308]","trial_type":"fractal-mutation","trial_index":60,"time_elapsed":1044688,"internal_node_id":"0.0-5.0-6.0"},{"group":"square cycles (cube, non-group)","fractal_assignment":["../images/ylw_pnk.png","../images/ylw_slt.png","../images/gry_blk.png","../images/cyn_red.png","../images/grn_red.png","../images/pnk_blu.png","../images/blu_wht.png","../images/org_blu.png"],"mutagen_generator_assignment":[1,0],"goal":2,"start":4,"action_noise":0.1,"location_history":"[4,7,6,5,4,7,3,2]","action_history":"[0,0,0,0,0,1,1]","mutagen_history":"[1,1,1,1,1,0,0]","location_rts":"[4620,548,627,669,780,1015,903]","trial_type":"fractal-mutation","trial_index":61,"time_elapsed":1064606,"internal_node_id":"0.0-5.0-7.0"},{"group":"square cycles (cube, non-group)","fractal_assignment":["../images/ylw_pnk.png","../images/ylw_slt.png","../images/gry_blk.png","../images/cyn_red.png","../images/grn_red.png","../images/pnk_blu.png","../images/blu_wht.png","../images/org_blu.png"],"mutagen_generator_assignment":[1,0],"goal":3,"start":2,"action_noise":0.1,"location_history":"[2,6,5,4,5,1,2,6,7,3]","action_history":"[1,0,0,1,1,1,1,1,1]","mutagen_history":"[0,1,1,0,0,0,0,0,0]","location_rts":"[1755183,829,317,528,581,621,325,384,432]","trial_type":"fractal-mutation","trial_index":62,"time_elapsed":2836575,"internal_node_id":"0.0-5.0-8.0"},{"group":"square cycles (cube, non-group)","fractal_assignment":["../images/ylw_pnk.png","../images/ylw_slt.png","../images/gry_blk.png","../images/cyn_red.png","../images/grn_red.png","../images/pnk_blu.png","../images/blu_wht.png","../images/org_blu.png"],"mutagen_generator_assignment":[1,0],"goal":7,"start":3,"action_noise":0.1,"location_history":"[3,2,6,7]","action_history":"[1,1,1]","mutagen_history":"[0,0,0]","location_rts":"[7821,349,325]","trial_type":"fractal-mutation","trial_index":63,"time_elapsed":2851654,"internal_node_id":"0.0-5.0-9.0"},{"group":"square cycles (cube, non-group)","fractal_assignment":["../images/ylw_pnk.png","../images/ylw_slt.png","../images/gry_blk.png","../images/cyn_red.png","../images/grn_red.png","../images/pnk_blu.png","../images/blu_wht.png","../images/org_blu.png"],"mutagen_generator_assignment":[1,0],"goal":0,"start":7,"action_noise":0.1,"location_history":"[7,6,7,3,2,3,0]","action_history":"[1,1,1,1,0,0]","mutagen_history":"[0,0,0,0,1,1]","location_rts":"[333,839,1868,2240,319,587]","trial_type":"fractal-mutation","trial_index":64,"time_elapsed":2867515,"internal_node_id":"0.0-5.0-10.0"},{"group":"square cycles (cube, non-group)","fractal_assignment":["../images/ylw_pnk.png","../images/ylw_slt.png","../images/gry_blk.png","../images/cyn_red.png","../images/grn_red.png","../images/pnk_blu.png","../images/blu_wht.png","../images/org_blu.png"],"mutagen_generator_assignment":[1,0],"goal":1,"start":0,"action_noise":0.1,"location_history":"[0,4,7,6,5,1]","action_history":"[0,0,0,1,1]","mutagen_history":"[1,1,1,0,0]","location_rts":"[2522,452,553,373,402]","trial_type":"fractal-mutation","trial_index":65,"time_elapsed":2880487,"internal_node_id":"0.0-5.0-11.0"},{"group":"square cycles (cube, non-group)","fractal_assignment":["../images/ylw_pnk.png","../images/ylw_slt.png","../images/gry_blk.png","../images/cyn_red.png","../images/grn_red.png","../images/pnk_blu.png","../images/blu_wht.png","../images/org_blu.png"],"mutagen_generator_assignment":[1,0],"goal":6,"start":1,"action_noise":0.1,"location_history":"[1,0,1,2,3,0,1,2,3,2,6]","action_history":"[1,0,0,0,0,0,0,1,1,1]","mutagen_history":"[0,1,1,1,1,1,1,0,0,0]","location_rts":"[413,448,280,434,451,395,600,373,406,336]","trial_type":"fractal-mutation","trial_index":66,"time_elapsed":2898478,"internal_node_id":"0.0-5.0-12.0"},{"group":"square cycles (cube, non-group)","fractal_assignment":["../images/ylw_pnk.png","../images/ylw_slt.png","../images/gry_blk.png","../images/cyn_red.png","../images/grn_red.png","../images/pnk_blu.png","../images/blu_wht.png","../images/org_blu.png"],"mutagen_generator_assignment":[1,0],"goal":4,"start":6,"action_noise":0.1,"location_history":"[6,7,6,7,3,2,3,0,4]","action_history":"[1,0,1,1,1,0,0,1]","mutagen_history":"[0,1,0,0,0,1,1,0]","location_rts":"[343,309,398,173,607,255,278,1054]","trial_type":"fractal-mutation","trial_index":67,"time_elapsed":2913653,"internal_node_id":"0.0-5.0-13.0"},{"group":"square cycles (cube, non-group)","fractal_assignment":["../images/ylw_pnk.png","../images/ylw_slt.png","../images/gry_blk.png","../images/cyn_red.png","../images/grn_red.png","../images/pnk_blu.png","../images/blu_wht.png","../images/org_blu.png"],"mutagen_generator_assignment":[1,0],"goal":5,"start":4,"action_noise":0.1,"location_history":"[4,5]","action_history":"[1]","mutagen_history":"[0]","location_rts":"[440]","trial_type":"fractal-mutation","trial_index":68,"time_elapsed":2918622,"internal_node_id":"0.0-5.0-14.0"},{"group":"square cycles (cube, non-group)","fractal_assignment":["../images/ylw_pnk.png","../images/ylw_slt.png","../images/gry_blk.png","../images/cyn_red.png","../images/grn_red.png","../images/pnk_blu.png","../images/blu_wht.png","../images/org_blu.png"],"mutagen_generator_assignment":[1,0],"goal":4,"start":5,"action_noise":0.1,"location_history":"[5,1,0,1,0,4]","action_history":"[1,1,0,1,1]","mutagen_history":"[0,0,1,0,0]","location_rts":"[1102,358,384,145,88]","trial_type":"fractal-mutation","trial_index":69,"time_elapsed":2929348,"internal_node_id":"0.0-5.0-15.0"},{"group":"square cycles (cube, non-group)","fractal_assignment":["../images/ylw_pnk.png","../images/ylw_slt.png","../images/gry_blk.png","../images/cyn_red.png","../images/grn_red.png","../images/pnk_blu.png","../images/blu_wht.png","../images/org_blu.png"],"mutagen_generator_assignment":[1,0],"goal":0,"start":4,"action_noise":0.1,"location_history":"[4,5,4,7,6,7,3,0]","action_history":"[1,0,0,1,1,1,1]","mutagen_history":"[0,1,1,0,0,0,0]","location_rts":"[536,212,170,618,417,456,472]","trial_type":"fractal-mutation","trial_index":70,"time_elapsed":2942964,"internal_node_id":"0.0-5.0-16.0"},{"group":"square cycles (cube, non-group)","fractal_assignment":["../images/ylw_pnk.png","../images/ylw_slt.png","../images/gry_blk.png","../images/cyn_red.png","../images/grn_red.png","../images/pnk_blu.png","../images/blu_wht.png","../images/org_blu.png"],"mutagen_generator_assignment":[1,0],"goal":7,"start":0,"action_noise":0.1,"location_history":"[0,1,0,1,0,4,5,1,2,6,7]","action_history":"[1,1,0,1,1,1,1,0,1,1]","mutagen_history":"[0,0,1,0,0,0,0,1,0,0]","location_rts":"[480,1895,721,319,267,368,445,387,368,392]","trial_type":"fractal-mutation","trial_index":71,"time_elapsed":2962389,"internal_node_id":"0.0-5.0-17.0"},{"group":"square cycles (cube, non-group)","fractal_assignment":["../images/ylw_pnk.png","../images/ylw_slt.png","../images/gry_blk.png","../images/cyn_red.png","../images/grn_red.png","../images/pnk_blu.png","../images/blu_wht.png","../images/org_blu.png"],"mutagen_generator_assignment":[1,0],"goal":2,"start":7,"action_noise":0.1,"location_history":"[7,3,2]","action_history":"[1,1]","mutagen_history":"[0,0]","location_rts":"[398,412]","trial_type":"fractal-mutation","trial_index":72,"time_elapsed":2968761,"internal_node_id":"0.0-5.0-18.0"},{"group":"square cycles (cube, non-group)","fractal_assignment":["../images/ylw_pnk.png","../images/ylw_slt.png","../images/gry_blk.png","../images/cyn_red.png","../images/grn_red.png","../images/pnk_blu.png","../images/blu_wht.png","../images/org_blu.png"],"mutagen_generator_assignment":[1,0],"goal":1,"start":2,"action_noise":0.1,"location_history":"[2,6,7,6,7,3,2,6,7,6,7,3,0,4,5,1]","action_history":"[1,1,0,1,1,1,1,1,0,1,1,0,1,1,1]","mutagen_history":"[0,0,1,0,0,0,0,0,1,0,0,1,0,0,0]","location_rts":"[667,532,488,434,592,381,460,646,522,356,341,696,472,95,364]","trial_type":"fractal-mutation","trial_index":73,"time_elapsed":2994754,"internal_node_id":"0.0-5.0-19.0"},{"group":"square cycles (cube, non-group)","fractal_assignment":["../images/ylw_pnk.png","../images/ylw_slt.png","../images/gry_blk.png","../images/cyn_red.png","../images/grn_red.png","../images/pnk_blu.png","../images/blu_wht.png","../images/org_blu.png"],"mutagen_generator_assignment":[1,0],"goal":3,"start":1,"action_noise":0.1,"location_history":"[1,2,6,7,3]","action_history":"[0,1,1,1]","mutagen_history":"[1,0,0,0]","location_rts":"[913,375,286,388]","trial_type":"fractal-mutation","trial_index":74,"time_elapsed":3004342,"internal_node_id":"0.0-5.0-20.0"},{"group":"square cycles (cube, non-group)","fractal_assignment":["../images/ylw_pnk.png","../images/ylw_slt.png","../images/gry_blk.png","../images/cyn_red.png","../images/grn_red.png","../images/pnk_blu.png","../images/blu_wht.png","../images/org_blu.png"],"mutagen_generator_assignment":[1,0],"goal":6,"start":3,"action_noise":0.1,"location_history":"[3,2,6]","action_history":"[1,1]","mutagen_history":"[0,0]","location_rts":"[295,396]","trial_type":"fractal-mutation","trial_index":75,"time_elapsed":3010593,"internal_node_id":"0.0-5.0-21.0"},{"group":"square cycles (cube, non-group)","fractal_assignment":["../images/ylw_pnk.png","../images/ylw_slt.png","../images/gry_blk.png","../images/cyn_red.png","../images/grn_red.png","../images/pnk_blu.png","../images/blu_wht.png","../images/org_blu.png"],"mutagen_generator_assignment":[1,0],"goal":5,"start":6,"action_noise":0.1,"location_history":"[6,7,3,0,1,0,4,5]","action_history":"[1,1,0,0,1,1,1]","mutagen_history":"[0,0,1,1,0,0,0]","location_rts":"[434,560,407,437,340,407,311]","trial_type":"fractal-mutation","trial_index":76,"time_elapsed":3024214,"internal_node_id":"0.0-5.0-22.0"},{"group":"square cycles (cube, non-group)","fractal_assignment":["../images/ylw_pnk.png","../images/ylw_slt.png","../images/gry_blk.png","../images/cyn_red.png","../images/grn_red.png","../images/pnk_blu.png","../images/blu_wht.png","../images/org_blu.png"],"mutagen_generator_assignment":[1,0],"goal":3,"start":5,"action_noise":0.1,"location_history":"[5,1,0,1,2,3]","action_history":"[1,1,0,1,1]","mutagen_history":"[0,0,1,0,0]","location_rts":"[997,390,367,459,389]","trial_type":"fractal-mutation","trial_index":77,"time_elapsed":3035471,"internal_node_id":"0.0-5.0-23.0"},{"group":"square cycles (cube, non-group)","fractal_assignment":["../images/ylw_pnk.png","../images/ylw_slt.png","../images/gry_blk.png","../images/cyn_red.png","../images/grn_red.png","../images/pnk_blu.png","../images/blu_wht.png","../images/org_blu.png"],"mutagen_generator_assignment":[1,0],"goal":0,"start":3,"action_noise":0.1,"location_history":"[3,2,6,5,1,0]","action_history":"[1,1,0,1,1]","mutagen_history":"[0,0,1,0,0]","location_rts":"[14708,668,1151,666,629]","trial_type":"fractal-mutation","trial_index":78,"time_elapsed":3061929,"internal_node_id":"0.0-5.0-24.0"},{"group":"square cycles (cube, non-group)","fractal_assignment":["../images/ylw_pnk.png","../images/ylw_slt.png","../images/gry_blk.png","../images/cyn_red.png","../images/grn_red.png","../images/pnk_blu.png","../images/blu_wht.png","../images/org_blu.png"],"mutagen_generator_assignment":[1,0],"goal":7,"start":0,"action_noise":0.1,"location_history":"[0,4,5,1,0,1,0,4,5,4,5,1,2,6,7]","action_history":"[1,1,1,1,0,1,1,1,0,1,1,0,1,1]","mutagen_history":"[0,0,0,0,1,0,0,0,1,0,0,1,0,0]","location_rts":"[580,480,299,475,685,421,1244,333,500,88,266,504,515,338]","trial_type":"fractal-mutation","trial_index":79,"time_elapsed":3086506,"internal_node_id":"0.0-5.0-25.0"},{"group":"square cycles (cube, non-group)","fractal_assignment":["../images/ylw_pnk.png","../images/ylw_slt.png","../images/gry_blk.png","../images/cyn_red.png","../images/grn_red.png","../images/pnk_blu.png","../images/blu_wht.png","../images/org_blu.png"],"mutagen_generator_assignment":[1,0],"goal":2,"start":7,"action_noise":0.1,"location_history":"[7,3,2]","action_history":"[1,1]","mutagen_history":"[0,0]","location_rts":"[570,411]","trial_type":"fractal-mutation","trial_index":80,"time_elapsed":3093031,"internal_node_id":"0.0-5.0-26.0"},{"group":"square cycles (cube, non-group)","fractal_assignment":["../images/ylw_pnk.png","../images/ylw_slt.png","../images/gry_blk.png","../images/cyn_red.png","../images/grn_red.png","../images/pnk_blu.png","../images/blu_wht.png","../images/org_blu.png"],"mutagen_generator_assignment":[1,0],"goal":1,"start":2,"action_noise":0.1,"location_history":"[2,6,5,4,5,1]","action_history":"[1,0,0,1,1]","mutagen_history":"[0,1,1,0,0]","location_rts":"[947,312,207,780,521]","trial_type":"fractal-mutation","trial_index":81,"time_elapsed":3104448,"internal_node_id":"0.0-5.0-27.0"},{"group":"square cycles (cube, non-group)","fractal_assignment":["../images/ylw_pnk.png","../images/ylw_slt.png","../images/gry_blk.png","../images/cyn_red.png","../images/grn_red.png","../images/pnk_blu.png","../images/blu_wht.png","../images/org_blu.png"],"mutagen_generator_assignment":[1,0],"goal":5,"start":1,"action_noise":0.1,"location_history":"[1,0,1,2,6,7,3,2,6,7,6,7,3,0,4,5]","action_history":"[1,1,0,1,1,1,1,1,1,0,1,1,0,1,1]","mutagen_history":"[0,0,1,0,0,0,0,0,0,1,0,0,1,0,0]","location_rts":"[1003,668,383,368,319,333,440,410,449,379,507,168,508,452,151]","trial_type":"fractal-mutation","trial_index":82,"time_elapsed":3129905,"internal_node_id":"0.0-5.0-28.0"},{"group":"square cycles (cube, non-group)","fractal_assignment":["../images/ylw_pnk.png","../images/ylw_slt.png","../images/gry_blk.png","../images/cyn_red.png","../images/grn_red.png","../images/pnk_blu.png","../images/blu_wht.png","../images/org_blu.png"],"mutagen_generator_assignment":[1,0],"goal":4,"start":5,"action_noise":0.1,"location_history":"[5,4]","action_history":"[0]","mutagen_history":"[1]","location_rts":"[1571]","trial_type":"fractal-mutation","trial_index":83,"time_elapsed":3136019,"internal_node_id":"0.0-5.0-29.0"},{"group":"square cycles (cube, non-group)","fractal_assignment":["../images/ylw_pnk.png","../images/ylw_slt.png","../images/gry_blk.png","../images/cyn_red.png","../images/grn_red.png","../images/pnk_blu.png","../images/blu_wht.png","../images/org_blu.png"],"mutagen_generator_assignment":[1,0],"goal":6,"start":4,"action_noise":0.1,"location_history":"[4,5,4,5,1,0,1,0,4,7,3,2,6]","action_history":"[0,1,1,1,1,0,1,1,0,1,1,1]","mutagen_history":"[1,0,0,0,0,1,0,0,1,0,0,0]","location_rts":"[1448,498,378,708,533,698,506,429,532,460,425,537]","trial_type":"fractal-mutation","trial_index":84,"time_elapsed":3158983,"internal_node_id":"0.0-5.0-30.0"},{"group":"square cycles (cube, non-group)","fractal_assignment":["../images/ylw_pnk.png","../images/ylw_slt.png","../images/gry_blk.png","../images/cyn_red.png","../images/grn_red.png","../images/pnk_blu.png","../images/blu_wht.png","../images/org_blu.png"],"mutagen_generator_assignment":[1,0],"goal":4,"start":6,"action_noise":0.1,"location_history":"[6,7,3,0,4]","action_history":"[1,1,0,1]","mutagen_history":"[0,0,1,0]","location_rts":"[876,978,397,798]","trial_type":"fractal-mutation","trial_index":85,"time_elapsed":3169653,"internal_node_id":"0.0-5.0-31.0"},{"group":"square cycles (cube, non-group)","fractal_assignment":["../images/ylw_pnk.png","../images/ylw_slt.png","../images/gry_blk.png","../images/cyn_red.png","../images/grn_red.png","../images/pnk_blu.png","../images/blu_wht.png","../images/org_blu.png"],"mutagen_generator_assignment":[1,0],"goal":2,"start":4,"action_noise":0.1,"location_history":"[4,7,3,2]","action_history":"[0,1,1]","mutagen_history":"[1,0,0]","location_rts":"[326,294,386]","trial_type":"fractal-mutation","trial_index":86,"time_elapsed":3177256,"internal_node_id":"0.0-5.0-32.0"},{"group":"square cycles (cube, non-group)","fractal_assignment":["../images/ylw_pnk.png","../images/ylw_slt.png","../images/gry_blk.png","../images/cyn_red.png","../images/grn_red.png","../images/pnk_blu.png","../images/blu_wht.png","../images/org_blu.png"],"mutagen_generator_assignment":[1,0],"goal":0,"start":2,"action_noise":0.1,"location_history":"[2,6,7,3,2,6,7,3,2,6,5,4,5,4,7,3,2,3,0]","action_history":"[1,0,1,1,1,1,0,1,1,1,0,1,0,0,1,1,1,1]","mutagen_history":"[0,1,0,0,0,0,1,0,0,0,1,0,1,1,0,0,0,0]","location_rts":"[380,315,552,401,581,505,900,457,571,464,679,428,214,289,597,425,580,410]","trial_type":"fractal-mutation","trial_index":87,"time_elapsed":3207998,"internal_node_id":"0.0-5.0-33.0"},{"group":"square cycles (cube, non-group)","fractal_assignment":["../images/ylw_pnk.png","../images/ylw_slt.png","../images/gry_blk.png","../images/cyn_red.png","../images/grn_red.png","../images/pnk_blu.png","../images/blu_wht.png","../images/org_blu.png"],"mutagen_generator_assignment":[1,0],"goal":5,"start":0,"action_noise":0.1,"location_history":"[0,4,5]","action_history":"[1,1]","mutagen_history":"[0,0]","location_rts":"[380,283]","trial_type":"fractal-mutation","trial_index":88,"time_elapsed":3214208,"internal_node_id":"0.0-5.0-34.0"},{"group":"square cycles (cube, non-group)","fractal_assignment":["../images/ylw_pnk.png","../images/ylw_slt.png","../images/gry_blk.png","../images/cyn_red.png","../images/grn_red.png","../images/pnk_blu.png","../images/blu_wht.png","../images/org_blu.png"],"mutagen_generator_assignment":[1,0],"goal":1,"start":5,"action_noise":0.1,"location_history":"[5,1]","action_history":"[1]","mutagen_history":"[0]","location_rts":"[442]","trial_type":"fractal-mutation","trial_index":89,"time_elapsed":3219177,"internal_node_id":"0.0-5.0-35.0"},{"group":"square cycles (cube, non-group)","fractal_assignment":["../images/ylw_pnk.png","../images/ylw_slt.png","../images/gry_blk.png","../images/cyn_red.png","../images/grn_red.png","../images/pnk_blu.png","../images/blu_wht.png","../images/org_blu.png"],"mutagen_generator_assignment":[1,0],"goal":7,"start":1,"action_noise":0.1,"location_history":"[1,0,1,2,3,2,6,5,4,5,1,0,4,5,4,7]","action_history":"[1,0,1,1,1,1,0,1,1,1,1,1,1,0,0]","mutagen_history":"[0,1,0,0,0,0,1,0,0,0,0,0,0,1,1]","location_rts":"[376,415,318,218,466,686,517,652,731,668,363,1117,342,408,852]","trial_type":"fractal-mutation","trial_index":90,"time_elapsed":3246239,"internal_node_id":"0.0-5.0-36.0"},{"group":"square cycles (cube, non-group)","fractal_assignment":["../images/ylw_pnk.png","../images/ylw_slt.png","../images/gry_blk.png","../images/cyn_red.png","../images/grn_red.png","../images/pnk_blu.png","../images/blu_wht.png","../images/org_blu.png"],"mutagen_generator_assignment":[1,0],"goal":3,"start":7,"action_noise":0.1,"location_history":"[7,3]","action_history":"[1]","mutagen_history":"[0]","location_rts":"[1099]","trial_type":"fractal-mutation","trial_index":91,"time_elapsed":3251863,"internal_node_id":"0.0-5.0-37.0"},{"group":"square cycles (cube, non-group)","fractal_assignment":["../images/ylw_pnk.png","../images/ylw_slt.png","../images/gry_blk.png","../images/cyn_red.png","../images/grn_red.png","../images/pnk_blu.png","../images/blu_wht.png","../images/org_blu.png"],"mutagen_generator_assignment":[1,0],"goal":6,"start":3,"action_noise":0.1,"location_history":"[3,0,1,2,6]","action_history":"[1,0,1,1]","mutagen_history":"[0,1,0,0]","location_rts":"[668,878,365,564]","trial_type":"fractal-mutation","trial_index":92,"time_elapsed":3261958,"internal_node_id":"0.0-5.0-38.0"},{"group":"square cycles (cube, non-group)","fractal_assignment":["../images/ylw_pnk.png","../images/ylw_slt.png","../images/gry_blk.png","../images/cyn_red.png","../images/grn_red.png","../images/pnk_blu.png","../images/blu_wht.png","../images/org_blu.png"],"mutagen_generator_assignment":[1,0],"goal":2,"start":6,"action_noise":0.1,"location_history":"[6,5,1,0,1,0,4,7,3,0,1,0,1,2]","action_history":"[1,1,1,0,1,1,1,1,1,0,1,1,1]","mutagen_history":"[0,0,0,1,0,0,0,0,0,1,0,0,0]","location_rts":"[2250,527,1453,876,471,732,515,497,492,461,506,447,511]","trial_type":"fractal-mutation","trial_index":93,"time_elapsed":3288559,"internal_node_id":"0.0-5.0-39.0"},{"group":"square cycles (cube, non-group)","fractal_assignment":["../images/ylw_pnk.png","../images/ylw_slt.png","../images/gry_blk.png","../images/cyn_red.png","../images/grn_red.png","../images/pnk_blu.png","../images/blu_wht.png","../images/org_blu.png"],"mutagen_generator_assignment":[1,0],"goal":1,"start":2,"action_noise":0.1,"location_history":"[2,6,5,1]","action_history":"[1,0,1]","mutagen_history":"[0,1,0]","location_rts":"[785,429,580]","trial_type":"fractal-mutation","trial_index":94,"time_elapsed":3296950,"internal_node_id":"0.0-5.0-40.0"},{"group":"square cycles (cube, non-group)","fractal_assignment":["../images/ylw_pnk.png","../images/ylw_slt.png","../images/gry_blk.png","../images/cyn_red.png","../images/grn_red.png","../images/pnk_blu.png","../images/blu_wht.png","../images/org_blu.png"],"mutagen_generator_assignment":[1,0],"goal":0,"start":1,"action_noise":0.1,"location_history":"[1,0]","action_history":"[1]","mutagen_history":"[0]","location_rts":"[674]","trial_type":"fractal-mutation","trial_index":95,"time_elapsed":3302157,"internal_node_id":"0.0-5.0-41.0"},{"group":"square cycles (cube, non-group)","fractal_assignment":["../images/ylw_pnk.png","../images/ylw_slt.png","../images/gry_blk.png","../images/cyn_red.png","../images/grn_red.png","../images/pnk_blu.png","../images/blu_wht.png","../images/org_blu.png"],"mutagen_generator_assignment":[1,0],"goal":4,"start":0,"action_noise":0.1,"location_history":"[0,1,0,4]","action_history":"[0,1,1]","mutagen_history":"[1,0,0]","location_rts":"[1379,483,471]","trial_type":"fractal-mutation","trial_index":96,"time_elapsed":3311082,"internal_node_id":"0.0-5.0-42.0"},{"group":"square cycles (cube, non-group)","fractal_assignment":["../images/ylw_pnk.png","../images/ylw_slt.png","../images/gry_blk.png","../images/cyn_red.png","../images/grn_red.png","../images/pnk_blu.png","../images/blu_wht.png","../images/org_blu.png"],"mutagen_generator_assignment":[1,0],"goal":6,"start":4,"action_noise":0.1,"location_history":"[4,7,3,0,4,5,4,7,3,2,3,0,1,0,4,5,1,0,4,5,1,2,6]","action_history":"[1,1,0,1,1,0,1,1,1,0,0,0,1,1,1,1,1,1,1,1,0,1]","mutagen_history":"[0,0,1,0,0,1,0,0,0,1,1,1,0,0,0,0,0,0,0,0,1,0]","location_rts":"[1495,1102,495,587,557,588,638,486,407,437,631,425,508,533,628,565,460,601,689,693,589,586]","trial_type":"fractal-mutation","trial_index":97,"time_elapsed":3350951,"internal_node_id":"0.0-5.0-43.0"},{"group":"square cycles (cube, non-group)","fractal_assignment":["../images/ylw_pnk.png","../images/ylw_slt.png","../images/gry_blk.png","../images/cyn_red.png","../images/grn_red.png","../images/pnk_blu.png","../images/blu_wht.png","../images/org_blu.png"],"mutagen_generator_assignment":[1,0],"goal":3,"start":6,"action_noise":0.1,"location_history":"[6,7,3]","action_history":"[1,1]","mutagen_history":"[0,0]","location_rts":"[1537,1165]","trial_type":"fractal-mutation","trial_index":98,"time_elapsed":3359212,"internal_node_id":"0.0-5.0-44.0"},{"group":"square cycles (cube, non-group)","fractal_assignment":["../images/ylw_pnk.png","../images/ylw_slt.png","../images/gry_blk.png","../images/cyn_red.png","../images/grn_red.png","../images/pnk_blu.png","../images/blu_wht.png","../images/org_blu.png"],"mutagen_generator_assignment":[1,0],"goal":7,"start":3,"action_noise":0.1,"location_history":"[3,2,3,2,6,7]","action_history":"[1,0,1,1,1]","mutagen_history":"[0,1,0,0,0]","location_rts":"[1517,625,425,530,746]","trial_type":"fractal-mutation","trial_index":99,"time_elapsed":3371715,"internal_node_id":"0.0-5.0-45.0"},{"group":"square cycles (cube, non-group)","fractal_assignment":["../images/ylw_pnk.png","../images/ylw_slt.png","../images/gry_blk.png","../images/cyn_red.png","../images/grn_red.png","../images/pnk_blu.png","../images/blu_wht.png","../images/org_blu.png"],"mutagen_generator_assignment":[1,0],"goal":5,"start":7,"action_noise":0.1,"location_history":"[7,3,0,1,0,4,5]","action_history":"[1,1,0,1,1,1]","mutagen_history":"[0,0,1,0,0,0]","location_rts":"[421,396,416,447,329,303]","trial_type":"fractal-mutation","trial_index":100,"time_elapsed":3383699,"internal_node_id":"0.0-5.0-46.0"},{"group":"square cycles (cube, non-group)","fractal_assignment":["../images/ylw_pnk.png","../images/ylw_slt.png","../images/gry_blk.png","../images/cyn_red.png","../images/grn_red.png","../images/pnk_blu.png","../images/blu_wht.png","../images/org_blu.png"],"mutagen_generator_assignment":[1,0],"goal":1,"start":5,"action_noise":0.1,"location_history":"[5,1]","action_history":"[1]","mutagen_history":"[0]","location_rts":"[566]","trial_type":"fractal-mutation","trial_index":101,"time_elapsed":3388794,"internal_node_id":"0.0-5.0-47.0"},{"group":"square cycles (cube, non-group)","fractal_assignment":["../images/ylw_pnk.png","../images/ylw_slt.png","../images/gry_blk.png","../images/cyn_red.png","../images/grn_red.png","../images/pnk_blu.png","../images/blu_wht.png","../images/org_blu.png"],"mutagen_generator_assignment":[1,0],"goal":6,"start":1,"action_noise":0.1,"location_history":"[1,0,1,0,1,0,4,5,1,0,4,7,3,2,6]","action_history":"[1,0,1,1,1,1,1,1,1,1,1,1,1,1]","mutagen_history":"[0,1,0,0,0,0,0,0,0,0,0,0,0,0]","location_rts":"[1160,792,804,376,1703,569,1067,833,394,508,609,499,337,1487]","trial_type":"fractal-mutation","trial_index":102,"time_elapsed":3417814,"internal_node_id":"0.0-5.0-48.0"},{"group":"square cycles (cube, non-group)","fractal_assignment":["../images/ylw_pnk.png","../images/ylw_slt.png","../images/gry_blk.png","../images/cyn_red.png","../images/grn_red.png","../images/pnk_blu.png","../images/blu_wht.png","../images/org_blu.png"],"mutagen_generator_assignment":[1,0],"goal":0,"start":6,"action_noise":0.1,"location_history":"[6,7,3,2,3,0]","action_history":"[1,1,1,0,0]","mutagen_history":"[0,0,0,1,1]","location_rts":"[1522,496,481,417,756]","trial_type":"fractal-mutation","trial_index":103,"time_elapsed":3430127,"internal_node_id":"0.0-5.0-49.0"},{"view_history":"[{\"page_index\":0,\"viewing_time\":7379}]","rt":7379,"trial_type":"instructions","trial_index":104,"time_elapsed":3438507,"internal_node_id":"0.0-6.0"},{"rt":4228,"responses":"{\"Q0\":\"Nope\"}","trial_type":"survey-text","trial_index":105,"time_elapsed":3443740,"internal_node_id":"0.0-7.0"}]