[{"view_history":"[{\"page_index\":0,\"viewing_time\":30911},{\"page_index\":1,\"viewing_time\":337095}]","rt":368006,"trial_type":"instructions","trial_index":0,"time_elapsed":368006,"internal_node_id":"0.0-0.0"},{"view_history":"[{\"page_index\":0,\"viewing_time\":2131},{\"page_index\":1,\"viewing_time\":8145}]","rt":10276,"trial_type":"instructions","trial_index":1,"time_elapsed":379292,"internal_node_id":"0.0-1.0"},{"group":"tri cycles (cube, non-group)","room_assignment":["red","blue","yellow","grey","brown","pink","green","purple"],"door_color_assignment":["white","black"],"door_generator_assignment":[0,1],"goal":6,"start":3,"action_noise":0.1,"location_history":"[3,7,3,7,3,4,7,6]","action_history":"[0,1,1,1,0,0,0]","door_history":"[0,1,1,1,0,0,0]","location_rts":"[3032,441,458,563,374,436,417]","trial_type":"two-door-navigation","trial_index":2,"time_elapsed":395968,"internal_node_id":"0.0-2.0-0.0"},{"group":"tri cycles (cube, non-group)","room_assignment":["red","blue","yellow","grey","brown","pink","green","purple"],"door_color_assignment":["white","black"],"door_generator_assignment":[0,1],"goal":1,"start":6,"action_noise":0.1,"location_history":"[6,4,7,3,4,0,3,7,6,5,1]","action_history":"[0,0,1,1,1,1,0,0,0,1]","door_history":"[0,0,1,1,1,1,0,0,0,1]","location_rts":"[9315,685,520,415,624,906,559,353,464,393]","trial_type":"two-door-navigation","trial_index":3,"time_elapsed":424374,"internal_node_id":"0.0-2.0-1.0"},{"group":"tri cycles (cube, non-group)","room_assignment":["red","blue","yellow","grey","brown","pink","green","purple"],"door_color_assignment":["white","black"],"door_generator_assignment":[0,1],"goal":2,"start":1,"action_noise":0.1,"location_history":"[1,0,2]","action_history":"[0,0]","door_history":"[0,0]","location_rts":"[643,433]","trial_type":"two-door-navigation","trial_index":4,"time_elapsed":431097,"internal_node_id":"0.0-2.0-2.0"},{"group":"tri cycles (cube, non-group)","room_assignment":["red","blue","yellow","grey","brown","pink","green","purple"],"door_color_assignment":["white","black"],"door_generator_assignment":[0,1],"goal":0,"start":2,"action_noise":0.1,"location_history":"[2,6,5,2,1,0]","action_history":"[1,1,1,0,0]","door_history":"[1,1,1,0,0]","location_rts":"[380,375,367,600,338]","trial_type":"two-door-navigation","trial_index":5,"time_elapsed":442015,"internal_node_id":"0.0-2.0-3.0"},{"group":"tri cycles (cube, non-group)","room_assignment":["red","blue","yellow","grey","brown","pink","green","purple"],"door_color_assignment":["white","black"],"door_generator_assignment":[0,1],"goal":7,"start":0,"action_noise":0.1,"location_history":"[0,2,6,5,1,0,2,1,5,2,1,0,2,6,5,1,0,3,4,7]","action_history":"[0,0,1,0,0,0,0,1,1,0,0,0,1,1,0,0,0,0,0]","door_history":"[0,0,1,0,0,0,0,1,1,0,0,0,1,1,0,0,0,0,0]","location_rts":"[410,579,378,1092,398,396,381,481,503,313,417,1580,1868,766,2167,287,315,344,342]","trial_type":"two-door-navigation","trial_index":6,"time_elapsed":478741,"internal_node_id":"0.0-2.0-4.0"},{"group":"tri cycles (cube, non-group)","room_assignment":["red","blue","yellow","grey","brown","pink","green","purple"],"door_color_assignment":["white","black"],"door_generator_assignment":[0,1],"goal":5,"start":7,"action_noise":0.1,"location_history":"[7,3,4,7,6,4,0,2,6,4,7,3,4,7,6,5]","action_history":"[1,1,0,0,1,1,0,1,1,0,1,1,0,0,1]","door_history":"[1,1,0,0,1,1,0,1,1,0,1,1,0,0,1]","location_rts":"[783,386,419,427,350,372,546,239,423,405,370,389,302,371,277]","trial_type":"two-door-navigation","trial_index":7,"time_elapsed":504591,"internal_node_id":"0.0-2.0-5.0"},{"group":"tri cycles (cube, non-group)","room_assignment":["red","blue","yellow","grey","brown","pink","green","purple"],"door_color_assignment":["white","black"],"door_generator_assignment":[0,1],"goal":4,"start":5,"action_noise":0.1,"location_history":"[5,1,0,3,4]","action_history":"[0,0,1,1]","door_history":"[0,0,1,1]","location_rts":"[1463,1188,310,343]","trial_type":"two-door-navigation","trial_index":8,"time_elapsed":516217,"internal_node_id":"0.0-2.0-6.0"},{"group":"tri cycles (cube, non-group)","room_assignment":["red","blue","yellow","grey","brown","pink","green","purple"],"door_color_assignment":["white","black"],"door_generator_assignment":[0,1],"goal":2,"start":4,"action_noise":0.1,"location_history":"[4,0,2]","action_history":"[1,0]","door_history":"[1,0]","location_rts":"[3760,644]","trial_type":"two-door-navigation","trial_index":9,"time_elapsed":527245,"internal_node_id":"0.0-2.0-7.0"},{"group":"tri cycles (cube, non-group)","room_assignment":["red","blue","yellow","grey","brown","pink","green","purple"],"door_color_assignment":["white","black"],"door_generator_assignment":[0,1],"goal":3,"start":2,"action_noise":0.1,"location_history":"[2,6,5,1,5,1,5,1,5,2,6,5,1,0,2,6,5,2,1,5,2,1,0,3]","action_history":"[1,1,0,1,1,1,0,1,0,0,1,1,0,0,1,1,1,0,1,1,0,0,1]","door_history":"[1,1,0,1,1,1,0,1,0,0,1,1,0,0,1,1,1,0,1,1,0,0,1]","location_rts":"[407,443,543,295,454,430,304,332,641,382,292,460,283,444,364,366,393,312,265,375,289,396,322]","trial_type":"two-door-navigation","trial_index":10,"time_elapsed":564085,"internal_node_id":"0.0-2.0-8.0"},{"group":"tri cycles (cube, non-group)","room_assignment":["red","blue","yellow","grey","brown","pink","green","purple"],"door_color_assignment":["white","black"],"door_generator_assignment":[0,1],"goal":7,"start":3,"action_noise":0.1,"location_history":"[3,4,7]","action_history":"[1,0]","door_history":"[1,0]","location_rts":"[1220,392]","trial_type":"two-door-navigation","trial_index":11,"time_elapsed":571355,"internal_node_id":"0.0-2.0-9.0"},{"group":"tri cycles (cube, non-group)","room_assignment":["red","blue","yellow","grey","brown","pink","green","purple"],"door_color_assignment":["white","black"],"door_generator_assignment":[0,1],"goal":0,"start":7,"action_noise":0.1,"location_history":"[7,6,4,0]","action_history":"[0,0,0]","door_history":"[0,0,0]","location_rts":"[41725,431,693]","trial_type":"two-door-navigation","trial_index":12,"time_elapsed":620936,"internal_node_id":"0.0-2.0-10.0"},{"group":"tri cycles (cube, non-group)","room_assignment":["red","blue","yellow","grey","brown","pink","green","purple"],"door_color_assignment":["white","black"],"door_generator_assignment":[0,1],"goal":1,"start":0,"action_noise":0.1,"location_history":"[0,2,6,4,7,6,5,2,1]","action_history":"[1,1,0,0,0,1,1,0]","door_history":"[1,1,0,0,0,1,1,0]","location_rts":"[40575,540,356,365,416,722,501,538]","trial_type":"two-door-navigation","trial_index":13,"time_elapsed":676882,"internal_node_id":"0.0-2.0-11.0"},{"group":"tri cycles (cube, non-group)","room_assignment":["red","blue","yellow","grey","brown","pink","green","purple"],"door_color_assignment":["white","black"],"door_generator_assignment":[0,1],"goal":6,"start":1,"action_noise":0.1,"location_history":"[1,0,3,4,0,2,1,0,2,6]","action_history":"[0,0,1,1,0,0,0,0,1]","door_history":"[0,0,1,1,0,0,0,0,1]","location_rts":"[958,337,552,343,387,409,391,405,430]","trial_type":"two-door-navigation","trial_index":14,"time_elapsed":694136,"internal_node_id":"0.0-2.0-12.0"},{"group":"tri cycles (cube, non-group)","room_assignment":["red","blue","yellow","grey","brown","pink","green","purple"],"door_color_assignment":["white","black"],"door_generator_assignment":[0,1],"goal":4,"start":6,"action_noise":0.1,"location_history":"[6,4]","action_history":"[0]","door_history":"[0]","location_rts":"[758]","trial_type":"two-door-navigation","trial_index":15,"time_elapsed":699481,"internal_node_id":"0.0-2.0-13.0"},{"group":"tri cycles (cube, non-group)","room_assignment":["red","blue","yellow","grey","brown","pink","green","purple"],"door_color_assignment":["white","black"],"door_generator_assignment":[0,1],"goal":5,"start":4,"action_noise":0.1,"location_history":"[4,0,3,4,7,3,4,0,2,1,5]","action_history":"[1,1,1,0,0,1,1,0,0,1]","door_history":"[1,1,1,0,0,1,1,0,0,1]","location_rts":"[649,405,917,285,368,374,431,290,344,498]","trial_type":"two-door-navigation","trial_index":16,"time_elapsed":718230,"internal_node_id":"0.0-2.0-14.0"},{"group":"tri cycles (cube, non-group)","room_assignment":["red","blue","yellow","grey","brown","pink","green","purple"],"door_color_assignment":["white","black"],"door_generator_assignment":[0,1],"goal":4,"start":5,"action_noise":0.1,"location_history":"[5,1,0,2,6,5,1,0,3,4]","action_history":"[0,0,0,1,1,0,0,1,1]","door_history":"[0,0,0,1,1,0,0,1,1]","location_rts":"[43745,450,485,717,367,318,413,353,392]","trial_type":"two-door-navigation","trial_index":17,"time_elapsed":780214,"internal_node_id":"0.0-2.0-15.0"},{"group":"tri cycles (cube, non-group)","room_assignment":["red","blue","yellow","grey","brown","pink","green","purple"],"door_color_assignment":["white","black"],"door_generator_assignment":[0,1],"goal":0,"start":4,"action_noise":0.1,"location_history":"[4,0]","action_history":"[1]","door_history":"[1]","location_rts":"[30803]","trial_type":"two-door-navigation","trial_index":18,"time_elapsed":816580,"internal_node_id":"0.0-2.0-16.0"},{"group":"tri cycles (cube, non-group)","room_assignment":["red","blue","yellow","grey","brown","pink","green","purple"],"door_color_assignment":["white","black"],"door_generator_assignment":[0,1],"goal":7,"start":0,"action_noise":0.1,"location_history":"[0,2,6,4,7]","action_history":"[0,1,0,0]","door_history":"[0,1,0,0]","location_rts":"[3431,351,439,334]","trial_type":"two-door-navigation","trial_index":19,"time_elapsed":828874,"internal_node_id":"0.0-2.0-17.0"},{"group":"tri cycles (cube, non-group)","room_assignment":["red","blue","yellow","grey","brown","pink","green","purple"],"door_color_assignment":["white","black"],"door_generator_assignment":[0,1],"goal":2,"start":7,"action_noise":0.1,"location_history":"[7,6,5,1,5,1,0,2]","action_history":"[0,1,1,1,0,0,0]","door_history":"[0,1,1,1,0,0,0]","location_rts":"[707,595,483,518,456,615,447]","trial_type":"two-door-navigation","trial_index":20,"time_elapsed":843647,"internal_node_id":"0.0-2.0-18.0"},{"group":"tri cycles (cube, non-group)","room_assignment":["red","blue","yellow","grey","brown","pink","green","purple"],"door_color_assignment":["white","black"],"door_generator_assignment":[0,1],"goal":1,"start":2,"action_noise":0.1,"location_history":"[2,1]","action_history":"[0]","door_history":"[0]","location_rts":"[796]","trial_type":"two-door-navigation","trial_index":21,"time_elapsed":849000,"internal_node_id":"0.0-2.0-19.0"},{"group":"tri cycles (cube, non-group)","room_assignment":["red","blue","yellow","grey","brown","pink","green","purple"],"door_color_assignment":["white","black"],"door_generator_assignment":[0,1],"goal":3,"start":1,"action_noise":0.1,"location_history":"[1,0,3]","action_history":"[0,1]","door_history":"[0,1]","location_rts":"[463,192]","trial_type":"two-door-navigation","trial_index":22,"time_elapsed":855271,"internal_node_id":"0.0-2.0-20.0"},{"group":"tri cycles (cube, non-group)","room_assignment":["red","blue","yellow","grey","brown","pink","green","purple"],"door_color_assignment":["white","black"],"door_generator_assignment":[0,1],"goal":6,"start":3,"action_noise":0.1,"location_history":"[3,7,3,7,3,7,6]","action_history":"[0,1,1,0,0,0]","door_history":"[0,1,1,0,0,0]","location_rts":"[980,581,145,337,432,452]","trial_type":"two-door-navigation","trial_index":23,"time_elapsed":868187,"internal_node_id":"0.0-2.0-21.0"},{"group":"tri cycles (cube, non-group)","room_assignment":["red","blue","yellow","grey","brown","pink","green","purple"],"door_color_assignment":["white","black"],"door_generator_assignment":[0,1],"goal":5,"start":6,"action_noise":0.1,"location_history":"[6,5]","action_history":"[1]","door_history":"[1]","location_rts":"[341]","trial_type":"two-door-navigation","trial_index":24,"time_elapsed":873101,"internal_node_id":"0.0-2.0-22.0"},{"group":"tri cycles (cube, non-group)","room_assignment":["red","blue","yellow","grey","brown","pink","green","purple"],"door_color_assignment":["white","black"],"door_generator_assignment":[0,1],"goal":3,"start":5,"action_noise":0.1,"location_history":"[5,2,6,4,0,3]","action_history":"[1,1,0,1,1]","door_history":"[1,1,0,1,1]","location_rts":"[560,388,557,333,470]","trial_type":"two-door-navigation","trial_index":25,"time_elapsed":884242,"internal_node_id":"0.0-2.0-23.0"},{"group":"tri cycles (cube, non-group)","room_assignment":["red","blue","yellow","grey","brown","pink","green","purple"],"door_color_assignment":["white","black"],"door_generator_assignment":[0,1],"goal":0,"start":3,"action_noise":0.1,"location_history":"[3,7,6,5,2,6,4,7,3,4,7,6,4,7,6,5,1,0]","action_history":"[0,0,1,1,1,0,0,1,1,1,0,0,0,0,1,1,0]","door_history":"[0,0,1,1,1,0,0,1,1,1,0,0,0,0,1,1,0]","location_rts":"[3683,500,406,420,350,666,470,341,351,313,486,492,479,417,403,354,430]","trial_type":"two-door-navigation","trial_index":26,"time_elapsed":916338,"internal_node_id":"0.0-2.0-24.0"},{"group":"tri cycles (cube, non-group)","room_assignment":["red","blue","yellow","grey","brown","pink","green","purple"],"door_color_assignment":["white","black"],"door_generator_assignment":[0,1],"goal":7,"start":0,"action_noise":0.1,"location_history":"[0,3,7]","action_history":"[1,0]","door_history":"[1,0]","location_rts":"[4046,1314]","trial_type":"two-door-navigation","trial_index":27,"time_elapsed":927323,"internal_node_id":"0.0-2.0-25.0"},{"group":"tri cycles (cube, non-group)","room_assignment":["red","blue","yellow","grey","brown","pink","green","purple"],"door_color_assignment":["white","black"],"door_generator_assignment":[0,1],"goal":2,"start":7,"action_noise":0.1,"location_history":"[7,3,4,0,2]","action_history":"[1,1,1,0]","door_history":"[1,1,1,0]","location_rts":"[4737,416,428,815]","trial_type":"two-door-navigation","trial_index":28,"time_elapsed":941603,"internal_node_id":"0.0-2.0-26.0"},{"group":"tri cycles (cube, non-group)","room_assignment":["red","blue","yellow","grey","brown","pink","green","purple"],"door_color_assignment":["white","black"],"door_generator_assignment":[0,1],"goal":1,"start":2,"action_noise":0.1,"location_history":"[2,6,4,7,6,5,2,6,4,0,3,4,0,3,7,6,4,7,6,5,2,1]","action_history":"[1,0,0,0,1,1,1,0,0,1,1,0,0,0,0,0,0,0,1,1,0]","door_history":"[1,0,0,0,1,1,1,0,0,1,1,0,0,0,0,0,0,0,1,1,0]","location_rts":"[3946,367,924,706,963,10488,667,674,438,350,830,429,350,357,419,479,474,681,732,548,642]","trial_type":"two-door-navigation","trial_index":29,"time_elapsed":993180,"internal_node_id":"0.0-2.0-27.0"},{"group":"tri cycles (cube, non-group)","room_assignment":["red","blue","yellow","grey","brown","pink","green","purple"],"door_color_assignment":["white","black"],"door_generator_assignment":[0,1],"goal":5,"start":1,"action_noise":0.1,"location_history":"[1,0,3,4,0,3,7,3,4,7,6,5]","action_history":"[0,1,1,1,1,0,1,1,0,0,1]","door_history":"[0,1,1,1,1,0,1,1,0,0,1]","location_rts":"[941,1828,379,629,508,328,370,718,318,456,372]","trial_type":"two-door-navigation","trial_index":30,"time_elapsed":1015075,"internal_node_id":"0.0-2.0-28.0"},{"group":"tri cycles (cube, non-group)","room_assignment":["red","blue","yellow","grey","brown","pink","green","purple"],"door_color_assignment":["white","black"],"door_generator_assignment":[0,1],"goal":4,"start":5,"action_noise":0.1,"location_history":"[5,2,1,0,3,4]","action_history":"[1,0,0,1,1]","door_history":"[1,0,0,1,1]","location_rts":"[5142,1405,1046,1037,368]","trial_type":"two-door-navigation","trial_index":31,"time_elapsed":1032894,"internal_node_id":"0.0-2.0-29.0"},{"group":"tri cycles (cube, non-group)","room_assignment":["red","blue","yellow","grey","brown","pink","green","purple"],"door_color_assignment":["white","black"],"door_generator_assignment":[0,1],"goal":6,"start":4,"action_noise":0.1,"location_history":"[4,7,6]","action_history":"[0,0]","door_history":"[0,0]","location_rts":"[7619,861]","trial_type":"two-door-navigation","trial_index":32,"time_elapsed":1047010,"internal_node_id":"0.0-2.0-30.0"},{"group":"tri cycles (cube, non-group)","room_assignment":["red","blue","yellow","grey","brown","pink","green","purple"],"door_color_assignment":["white","black"],"door_generator_assignment":[0,1],"goal":4,"start":6,"action_noise":0.1,"location_history":"[6,4]","action_history":"[1]","door_history":"[1]","location_rts":"[7539]","trial_type":"two-door-navigation","trial_index":33,"time_elapsed":1059191,"internal_node_id":"0.0-2.0-31.0"},{"group":"tri cycles (cube, non-group)","room_assignment":["red","blue","yellow","grey","brown","pink","green","purple"],"door_color_assignment":["white","black"],"door_generator_assignment":[0,1],"goal":2,"start":4,"action_noise":0.1,"location_history":"[4,7,6,5,2]","action_history":"[0,0,1,1]","door_history":"[0,0,1,1]","location_rts":"[3291,835,555,601]","trial_type":"two-door-navigation","trial_index":34,"time_elapsed":1072358,"internal_node_id":"0.0-2.0-32.0"},{"group":"tri cycles (cube, non-group)","room_assignment":["red","blue","yellow","grey","brown","pink","green","purple"],"door_color_assignment":["white","black"],"door_generator_assignment":[0,1],"goal":0,"start":2,"action_noise":0.1,"location_history":"[2,6,4,0]","action_history":"[1,0,0]","door_history":"[1,0,0]","location_rts":"[4356,1008,793]","trial_type":"two-door-navigation","trial_index":35,"time_elapsed":1085234,"internal_node_id":"0.0-2.0-33.0"},{"group":"tri cycles (cube, non-group)","room_assignment":["red","blue","yellow","grey","brown","pink","green","purple"],"door_color_assignment":["white","black"],"door_generator_assignment":[0,1],"goal":5,"start":0,"action_noise":0.1,"location_history":"[0,2,6,5]","action_history":"[0,1,1]","door_history":"[0,1,1]","location_rts":"[13133,879,349]","trial_type":"two-door-navigation","trial_index":36,"time_elapsed":1106253,"internal_node_id":"0.0-2.0-34.0"},{"group":"tri cycles (cube, non-group)","room_assignment":["red","blue","yellow","grey","brown","pink","green","purple"],"door_color_assignment":["white","black"],"door_generator_assignment":[0,1],"goal":1,"start":5,"action_noise":0.1,"location_history":"[5,2,6,5,1]","action_history":"[1,1,1,0]","door_history":"[1,1,1,0]","location_rts":"[3543,485,578,477]","trial_type":"two-door-navigation","trial_index":37,"time_elapsed":1119069,"internal_node_id":"0.0-2.0-35.0"},{"group":"tri cycles (cube, non-group)","room_assignment":["red","blue","yellow","grey","brown","pink","green","purple"],"door_color_assignment":["white","black"],"door_generator_assignment":[0,1],"goal":7,"start":1,"action_noise":0.1,"location_history":"[1,5,1,0,2,1,0,3,4,0,3,7]","action_history":"[1,0,0,0,0,0,1,1,1,1,0]","door_history":"[1,0,0,0,0,0,1,1,1,1,0]","location_rts":"[8312,487,3106,1807,868,870,453,576,530,697,370]","trial_type":"two-door-navigation","trial_index":38,"time_elapsed":1152394,"internal_node_id":"0.0-2.0-36.0"},{"group":"tri cycles (cube, non-group)","room_assignment":["red","blue","yellow","grey","brown","pink","green","purple"],"door_color_assignment":["white","black"],"door_generator_assignment":[0,1],"goal":3,"start":7,"action_noise":0.1,"location_history":"[7,6,5,1,0,2,6,5,1,5,1,5,2,1,5,1,5,2,6,5,1,0,3]","action_history":"[0,1,0,0,0,1,1,0,1,0,1,1,0,1,0,1,1,1,1,0,0,1]","door_history":"[0,1,0,0,0,1,1,0,1,0,1,1,0,1,0,1,1,1,1,0,0,1]","location_rts":"[1576,4248,10391,1196,1400,789,1059,11381,7230,6600,862,395,435,494,764,1675,6254,395,527,654,652,399]","trial_type":"two-door-navigation","trial_index":39,"time_elapsed":1238694,"internal_node_id":"0.0-2.0-37.0"},{"group":"tri cycles (cube, non-group)","room_assignment":["red","blue","yellow","grey","brown","pink","green","purple"],"door_color_assignment":["white","black"],"door_generator_assignment":[0,1],"goal":6,"start":3,"action_noise":0.1,"location_history":"[3,4,7,6]","action_history":"[1,0,0]","door_history":"[1,0,0]","location_rts":"[8346,318,373]","trial_type":"two-door-navigation","trial_index":40,"time_elapsed":1254417,"internal_node_id":"0.0-2.0-38.0"},{"group":"tri cycles (cube, non-group)","room_assignment":["red","blue","yellow","grey","brown","pink","green","purple"],"door_color_assignment":["white","black"],"door_generator_assignment":[0,1],"goal":2,"start":6,"action_noise":0.1,"location_history":"[6,4,0,3,7,6,5,1,5,2]","action_history":"[0,1,1,1,0,0,0,1,1]","door_history":"[0,1,1,1,0,0,0,1,1]","location_rts":"[1631,598,445,415,299,445,499,441,587]","trial_type":"two-door-navigation","trial_index":41,"time_elapsed":1272901,"internal_node_id":"0.0-2.0-39.0"},{"group":"tri cycles (cube, non-group)","room_assignment":["red","blue","yellow","grey","brown","pink","green","purple"],"door_color_assignment":["white","black"],"door_generator_assignment":[0,1],"goal":1,"start":2,"action_noise":0.1,"location_history":"[2,6,4,7,6,5,2,1]","action_history":"[1,0,0,1,1,1,0]","door_history":"[1,0,0,1,1,1,0]","location_rts":"[14764,571,546,25016,4768,336,586]","trial_type":"two-door-navigation","trial_index":42,"time_elapsed":1330350,"internal_node_id":"0.0-2.0-40.0"},{"group":"tri cycles (cube, non-group)","room_assignment":["red","blue","yellow","grey","brown","pink","green","purple"],"door_color_assignment":["white","black"],"door_generator_assignment":[0,1],"goal":0,"start":1,"action_noise":0.1,"location_history":"[1,0]","action_history":"[0]","door_history":"[0]","location_rts":"[4897]","trial_type":"two-door-navigation","trial_index":43,"time_elapsed":1339826,"internal_node_id":"0.0-2.0-41.0"},{"group":"tri cycles (cube, non-group)","room_assignment":["red","blue","yellow","grey","brown","pink","green","purple"],"door_color_assignment":["white","black"],"door_generator_assignment":[0,1],"goal":4,"start":0,"action_noise":0.1,"location_history":"[0,3,7,6,5,2,1,0,2,6,4]","action_history":"[1,0,0,1,1,0,0,1,0,0]","door_history":"[1,0,0,1,1,0,0,1,0,0]","location_rts":"[1459,1658,1116,495,1322,1439,1614,924,3930,1679]","trial_type":"two-door-navigation","trial_index":44,"time_elapsed":1369600,"internal_node_id":"0.0-2.0-42.0"},{"group":"tri cycles (cube, non-group)","room_assignment":["red","blue","yellow","grey","brown","pink","green","purple"],"door_color_assignment":["white","black"],"door_generator_assignment":[0,1],"goal":6,"start":4,"action_noise":0.1,"location_history":"[4,7,3,4,0,2,6]","action_history":"[0,1,1,1,0,1]","door_history":"[0,1,1,1,0,1]","location_rts":"[4289,1057,5931,1727,434,5222]","trial_type":"two-door-navigation","trial_index":45,"time_elapsed":1398107,"internal_node_id":"0.0-2.0-43.0"},{"group":"tri cycles (cube, non-group)","room_assignment":["red","blue","yellow","grey","brown","pink","green","purple"],"door_color_assignment":["white","black"],"door_generator_assignment":[0,1],"goal":3,"start":6,"action_noise":0.1,"location_history":"[6,5,1,5,2,1,5,2,6,4,7,6,5,2,6,5,2,1,0,3]","action_history":"[1,0,1,0,0,1,1,1,0,0,0,1,1,0,1,1,1,0,1]","door_history":"[1,0,1,0,0,1,1,1,0,0,0,1,1,0,1,1,1,0,1]","location_rts":"[40629,3811,889,1134,1012,475,674,505,261,467,515,478,477,297,379,579,600,376,358]","trial_type":"two-door-navigation","trial_index":46,"time_elapsed":1475580,"internal_node_id":"0.0-2.0-44.0"},{"group":"tri cycles (cube, non-group)","room_assignment":["red","blue","yellow","grey","brown","pink","green","purple"],"door_color_assignment":["white","black"],"door_generator_assignment":[0,1],"goal":7,"start":3,"action_noise":0.1,"location_history":"[3,7]","action_history":"[1]","door_history":"[1]","location_rts":"[2463]","trial_type":"two-door-navigation","trial_index":47,"time_elapsed":1482615,"internal_node_id":"0.0-2.0-45.0"},{"group":"tri cycles (cube, non-group)","room_assignment":["red","blue","yellow","grey","brown","pink","green","purple"],"door_color_assignment":["white","black"],"door_generator_assignment":[0,1],"goal":5,"start":7,"action_noise":0.1,"location_history":"[7,6,5]","action_history":"[0,1]","door_history":"[0,1]","location_rts":"[2490,837]","trial_type":"two-door-navigation","trial_index":48,"time_elapsed":1491553,"internal_node_id":"0.0-2.0-46.0"},{"group":"tri cycles (cube, non-group)","room_assignment":["red","blue","yellow","grey","brown","pink","green","purple"],"door_color_assignment":["white","black"],"door_generator_assignment":[0,1],"goal":1,"start":5,"action_noise":0.1,"location_history":"[5,2,1]","action_history":"[1,0]","door_history":"[1,0]","location_rts":"[4472,433]","trial_type":"two-door-navigation","trial_index":49,"time_elapsed":1502098,"internal_node_id":"0.0-2.0-47.0"},{"group":"tri cycles (cube, non-group)","room_assignment":["red","blue","yellow","grey","brown","pink","green","purple"],"door_color_assignment":["white","black"],"door_generator_assignment":[0,1],"goal":6,"start":1,"action_noise":0.1,"location_history":"[1,5,1,0,3,4,7,6]","action_history":"[1,0,1,1,1,0,0]","door_history":"[1,0,1,1,1,0,0]","location_rts":"[9777,361,509,470,426,223,403]","trial_type":"two-door-navigation","trial_index":50,"time_elapsed":1525160,"internal_node_id":"0.0-2.0-48.0"},{"group":"tri cycles (cube, non-group)","room_assignment":["red","blue","yellow","grey","brown","pink","green","purple"],"door_color_assignment":["white","black"],"door_generator_assignment":[0,1],"goal":0,"start":6,"action_noise":0.1,"location_history":"[6,4,0]","action_history":"[0,1]","door_history":"[0,1]","location_rts":"[431,458]","trial_type":"two-door-navigation","trial_index":51,"time_elapsed":1531652,"internal_node_id":"0.0-2.0-49.0"},{"view_history":"[{\"page_index\":0,\"viewing_time\":11154}]","rt":11155,"trial_type":"instructions","trial_index":52,"time_elapsed":1543809,"internal_node_id":"0.0-3.0"},{"view_history":"[{\"page_index\":0,\"viewing_time\":1247},{\"page_index\":1,\"viewing_time\":6368}]","rt":7615,"trial_type":"instructions","trial_index":53,"time_elapsed":1552426,"internal_node_id":"0.0-4.0"},{"group":"tri cycles (cube, non-group)","fractal_assignment":["../images/cyn_red.png","../images/org_blu.png","../images/grn_red.png","../images/ylw_pnk.png","../images/gry_blk.png","../images/blu_wht.png","../images/pnk_blu.png","../images/ylw_slt.png"],"mutagen_generator_assignment":[0,1],"goal":6,"start":3,"action_noise":0.1,"location_history":"[3,7,6]","action_history":"[0,0]","mutagen_history":"[0,0]","location_rts":"[2954,373]","trial_type":"fractal-mutation","trial_index":54,"time_elapsed":1561408,"internal_node_id":"0.0-5.0-0.0"},{"group":"tri cycles (cube, non-group)","fractal_assignment":["../images/cyn_red.png","../images/org_blu.png","../images/grn_red.png","../images/ylw_pnk.png","../images/gry_blk.png","../images/blu_wht.png","../images/pnk_blu.png","../images/ylw_slt.png"],"mutagen_generator_assignment":[0,1],"goal":1,"start":6,"action_noise":0.1,"location_history":"[6,4,0,3,7,3,4,0,3,7,3,4,7,6,5,1]","action_history":"[0,1,1,0,1,1,1,1,1,1,1,0,0,0,0]","mutagen_history":"[0,1,1,0,1,1,1,1,1,1,1,0,0,0,0]","location_rts":"[370,332,383,447,414,564,501,363,499,318,532,392,479,459,483]","trial_type":"fractal-mutation","trial_index":55,"time_elapsed":1587550,"internal_node_id":"0.0-5.0-1.0"},{"group":"tri cycles (cube, non-group)","fractal_assignment":["../images/cyn_red.png","../images/org_blu.png","../images/grn_red.png","../images/ylw_pnk.png","../images/gry_blk.png","../images/blu_wht.png","../images/pnk_blu.png","../images/ylw_slt.png"],"mutagen_generator_assignment":[0,1],"goal":2,"start":1,"action_noise":0.1,"location_history":"[1,0,3,4,0,3,4,7,6,4,7,3,7,6,4,7,3,4,7,3,4,7,6,4,0,2]","action_history":"[0,1,1,1,1,1,0,0,0,0,0,0,0,0,0,1,1,0,1,1,1,0,0,1,0]","mutagen_history":"[0,1,1,1,1,1,0,0,0,0,0,0,0,0,0,1,1,0,1,1,1,0,0,1,0]","location_rts":"[406,396,554,381,417,444,334,368,393,355,379,463,411,425,398,318,451,463,229,355,363,256,380,400,487]","trial_type":"fractal-mutation","trial_index":56,"time_elapsed":1627639,"internal_node_id":"0.0-5.0-2.0"},{"group":"tri cycles (cube, non-group)","fractal_assignment":["../images/cyn_red.png","../images/org_blu.png","../images/grn_red.png","../images/ylw_pnk.png","../images/gry_blk.png","../images/blu_wht.png","../images/pnk_blu.png","../images/ylw_slt.png"],"mutagen_generator_assignment":[0,1],"goal":0,"start":2,"action_noise":0.1,"location_history":"[2,1,0]","action_history":"[0,0]","mutagen_history":"[0,0]","location_rts":"[549,419]","trial_type":"fractal-mutation","trial_index":57,"time_elapsed":1634251,"internal_node_id":"0.0-5.0-3.0"},{"group":"tri cycles (cube, non-group)","fractal_assignment":["../images/cyn_red.png","../images/org_blu.png","../images/grn_red.png","../images/ylw_pnk.png","../images/gry_blk.png","../images/blu_wht.png","../images/pnk_blu.png","../images/ylw_slt.png"],"mutagen_generator_assignment":[0,1],"goal":7,"start":0,"action_noise":0.1,"location_history":"[0,3,7]","action_history":"[0,1]","mutagen_history":"[0,1]","location_rts":"[493,269]","trial_type":"fractal-mutation","trial_index":58,"time_elapsed":1640672,"internal_node_id":"0.0-5.0-4.0"},{"group":"tri cycles (cube, non-group)","fractal_assignment":["../images/cyn_red.png","../images/org_blu.png","../images/grn_red.png","../images/ylw_pnk.png","../images/gry_blk.png","../images/blu_wht.png","../images/pnk_blu.png","../images/ylw_slt.png"],"mutagen_generator_assignment":[0,1],"goal":5,"start":7,"action_noise":0.1,"location_history":"[7,6,5]","action_history":"[0,1]","mutagen_history":"[0,1]","location_rts":"[602,405]","trial_type":"fractal-mutation","trial_index":59,"time_elapsed":1647347,"internal_node_id":"0.0-5.0-5.0"},{"group":"tri cycles (cube, non-group)","fractal_assignment":["../images/cyn_red.png","../images/org_blu.png","../images/grn_red.png","../images/ylw_pnk.png","../images/gry_blk.png","../images/blu_wht.png","../images/pnk_blu.png","../images/ylw_slt.png"],"mutagen_generator_assignment":[0,1],"goal":4,"start":5,"action_noise":0.1,"location_history":"[5,1,5,2,1,5,1,0,2,1,5,1,0,3,7,6,4]","action_history":"[0,1,1,0,1,0,0,0,0,1,1,0,1,0,0,0]","mutagen_history":"[0,1,1,0,1,0,0,0,0,1,1,0,1,0,0,0]","location_rts":"[353,378,471,389,457,513,331,790,458,306,377,556,521,613,314,372]","trial_type":"fractal-mutation","trial_index":60,"time_elapsed":1675193,"internal_node_id":"0.0-5.0-6.0"},{"group":"tri cycles (cube, non-group)","fractal_assignment":["../images/cyn_red.png","../images/org_blu.png","../images/grn_red.png","../images/ylw_pnk.png","../images/gry_blk.png","../images/blu_wht.png","../images/pnk_blu.png","../images/ylw_slt.png"],"mutagen_generator_assignment":[0,1],"goal":2,"start":4,"action_noise":0.1,"location_history":"[4,7,3,7,6,5,2]","action_history":"[0,0,0,0,0,1]","mutagen_history":"[0,0,0,0,0,1]","location_rts":"[425,415,418,456,380,307]","trial_type":"fractal-mutation","trial_index":61,"time_elapsed":1687526,"internal_node_id":"0.0-5.0-7.0"},{"group":"tri cycles (cube, non-group)","fractal_assignment":["../images/cyn_red.png","../images/org_blu.png","../images/grn_red.png","../images/ylw_pnk.png","../images/gry_blk.png","../images/blu_wht.png","../images/pnk_blu.png","../images/ylw_slt.png"],"mutagen_generator_assignment":[0,1],"goal":3,"start":2,"action_noise":0.1,"location_history":"[2,1,0,3]","action_history":"[0,0,1]","mutagen_history":"[0,0,1]","location_rts":"[302,500,397]","trial_type":"fractal-mutation","trial_index":62,"time_elapsed":1695464,"internal_node_id":"0.0-5.0-8.0"},{"group":"tri cycles (cube, non-group)","fractal_assignment":["../images/cyn_red.png","../images/org_blu.png","../images/grn_red.png","../images/ylw_pnk.png","../images/gry_blk.png","../images/blu_wht.png","../images/pnk_blu.png","../images/ylw_slt.png"],"mutagen_generator_assignment":[0,1],"goal":7,"start":3,"action_noise":0.1,"location_history":"[3,7]","action_history":"[0]","mutagen_history":"[0]","location_rts":"[598]","trial_type":"fractal-mutation","trial_index":63,"time_elapsed":1700634,"internal_node_id":"0.0-5.0-9.0"},{"group":"tri cycles (cube, non-group)","fractal_assignment":["../images/cyn_red.png","../images/org_blu.png","../images/grn_red.png","../images/ylw_pnk.png","../images/gry_blk.png","../images/blu_wht.png","../images/pnk_blu.png","../images/ylw_slt.png"],"mutagen_generator_assignment":[0,1],"goal":0,"start":7,"action_noise":0.1,"location_history":"[7,6,4,7,3,4,7,3,7,3,4,0]","action_history":"[0,0,0,0,1,1,1,0,1,1,1]","mutagen_history":"[0,0,0,0,1,1,1,0,1,1,1]","location_rts":"[4741,3039,952,463,387,356,422,290,311,481,383]","trial_type":"fractal-mutation","trial_index":64,"time_elapsed":1727807,"internal_node_id":"0.0-5.0-10.0"},{"group":"tri cycles (cube, non-group)","fractal_assignment":["../images/cyn_red.png","../images/org_blu.png","../images/grn_red.png","../images/ylw_pnk.png","../images/gry_blk.png","../images/blu_wht.png","../images/pnk_blu.png","../images/ylw_slt.png"],"mutagen_generator_assignment":[0,1],"goal":1,"start":0,"action_noise":0.1,"location_history":"[0,2,6,5,2,1]","action_history":"[0,1,1,1,1]","mutagen_history":"[0,1,1,1,1]","location_rts":"[538,362,477,641,757]","trial_type":"fractal-mutation","trial_index":65,"time_elapsed":1739486,"internal_node_id":"0.0-5.0-11.0"},{"group":"tri cycles (cube, non-group)","fractal_assignment":["../images/cyn_red.png","../images/org_blu.png","../images/grn_red.png","../images/ylw_pnk.png","../images/gry_blk.png","../images/blu_wht.png","../images/pnk_blu.png","../images/ylw_slt.png"],"mutagen_generator_assignment":[0,1],"goal":6,"start":1,"action_noise":0.1,"location_history":"[1,0,3,4,7,3,4,0,2,1,5,2,1,0,2,1,0,3,4,0,3,4,7,6]","action_history":"[0,1,1,1,0,1,1,0,0,1,1,0,0,0,0,1,1,1,1,1,0,0,0]","mutagen_history":"[0,1,1,1,0,1,1,0,0,1,1,0,0,0,0,1,1,1,1,1,0,0,0]","location_rts":"[627,407,413,490,2041,1238,609,362,391,449,390,359,407,380,364,409,370,320,393,347,7401,337,213]","trial_type":"fractal-mutation","trial_index":66,"time_elapsed":1786466,"internal_node_id":"0.0-5.0-12.0"},{"group":"tri cycles (cube, non-group)","fractal_assignment":["../images/cyn_red.png","../images/org_blu.png","../images/grn_red.png","../images/ylw_pnk.png","../images/gry_blk.png","../images/blu_wht.png","../images/pnk_blu.png","../images/ylw_slt.png"],"mutagen_generator_assignment":[0,1],"goal":4,"start":6,"action_noise":0.1,"location_history":"[6,4]","action_history":"[0]","mutagen_history":"[0]","location_rts":"[426]","trial_type":"fractal-mutation","trial_index":67,"time_elapsed":1791467,"internal_node_id":"0.0-5.0-13.0"},{"group":"tri cycles (cube, non-group)","fractal_assignment":["../images/cyn_red.png","../images/org_blu.png","../images/grn_red.png","../images/ylw_pnk.png","../images/gry_blk.png","../images/blu_wht.png","../images/pnk_blu.png","../images/ylw_slt.png"],"mutagen_generator_assignment":[0,1],"goal":5,"start":4,"action_noise":0.1,"location_history":"[4,7,6,4,7,6,5]","action_history":"[0,0,0,0,0,1]","mutagen_history":"[0,0,0,0,0,1]","location_rts":"[401,312,423,430,383,337]","trial_type":"fractal-mutation","trial_index":68,"time_elapsed":1803740,"internal_node_id":"0.0-5.0-14.0"},{"group":"tri cycles (cube, non-group)","fractal_assignment":["../images/cyn_red.png","../images/org_blu.png","../images/grn_red.png","../images/ylw_pnk.png","../images/gry_blk.png","../images/blu_wht.png","../images/pnk_blu.png","../images/ylw_slt.png"],"mutagen_generator_assignment":[0,1],"goal":4,"start":5,"action_noise":0.1,"location_history":"[5,1,0,3,7,6,4]","action_history":"[0,0,0,0,0,0]","mutagen_history":"[0,0,0,0,0,0]","location_rts":"[249,393,387,396,395,442]","trial_type":"fractal-mutation","trial_index":69,"time_elapsed":1815932,"internal_node_id":"0.0-5.0-15.0"},{"group":"tri cycles (cube, non-group)","fractal_assignment":["../images/cyn_red.png","../images/org_blu.png","../images/grn_red.png","../images/ylw_pnk.png","../images/gry_blk.png","../images/blu_wht.png","../images/pnk_blu.png","../images/ylw_slt.png"],"mutagen_generator_assignment":[0,1],"goal":0,"start":4,"action_noise":0.1,"location_history":"[4,7,6,4,7,3,7,6,4,0]","action_history":"[0,0,0,1,1,0,0,0,1]","mutagen_history":"[0,0,0,1,1,0,0,0,1]","location_rts":"[357,321,401,348,469,331,354,894,509]","trial_type":"fractal-mutation","trial_index":70,"time_elapsed":1833064,"internal_node_id":"0.0-5.0-16.0"},{"group":"tri cycles (cube, non-group)","fractal_assignment":["../images/cyn_red.png","../images/org_blu.png","../images/grn_red.png","../images/ylw_pnk.png","../images/gry_blk.png","../images/blu_wht.png","../images/pnk_blu.png","../images/ylw_slt.png"],"mutagen_generator_assignment":[0,1],"goal":7,"start":0,"action_noise":0.1,"location_history":"[0,2,1,0,2,1,5,2,1,0,2,1,0,3,4,7]","action_history":"[0,0,0,0,0,1,1,0,0,0,0,0,1,1,0]","mutagen_history":"[0,0,0,0,0,1,1,0,0,0,0,0,1,1,0]","location_rts":"[766,506,407,462,186,451,518,357,353,417,346,477,503,461,383]","trial_type":"fractal-mutation","trial_index":71,"time_elapsed":1859231,"internal_node_id":"0.0-5.0-17.0"},{"group":"tri cycles (cube, non-group)","fractal_assignment":["../images/cyn_red.png","../images/org_blu.png","../images/grn_red.png","../images/ylw_pnk.png","../images/gry_blk.png","../images/blu_wht.png","../images/pnk_blu.png","../images/ylw_slt.png"],"mutagen_generator_assignment":[0,1],"goal":2,"start":7,"action_noise":0.1,"location_history":"[7,6,5,2]","action_history":"[0,0,1]","mutagen_history":"[0,0,1]","location_rts":"[337,373,393]","trial_type":"fractal-mutation","trial_index":72,"time_elapsed":1867058,"internal_node_id":"0.0-5.0-18.0"},{"group":"tri cycles (cube, non-group)","fractal_assignment":["../images/cyn_red.png","../images/org_blu.png","../images/grn_red.png","../images/ylw_pnk.png","../images/gry_blk.png","../images/blu_wht.png","../images/pnk_blu.png","../images/ylw_slt.png"],"mutagen_generator_assignment":[0,1],"goal":1,"start":2,"action_noise":0.1,"location_history":"[2,1]","action_history":"[0]","mutagen_history":"[0]","location_rts":"[512]","trial_type":"fractal-mutation","trial_index":73,"time_elapsed":1872158,"internal_node_id":"0.0-5.0-19.0"},{"group":"tri cycles (cube, non-group)","fractal_assignment":["../images/cyn_red.png","../images/org_blu.png","../images/grn_red.png","../images/ylw_pnk.png","../images/gry_blk.png","../images/blu_wht.png","../images/pnk_blu.png","../images/ylw_slt.png"],"mutagen_generator_assignment":[0,1],"goal":3,"start":1,"action_noise":0.1,"location_history":"[1,5,1,0,3]","action_history":"[1,0,0,1]","mutagen_history":"[1,0,0,1]","location_rts":"[437,429,405,399]","trial_type":"fractal-mutation","trial_index":74,"time_elapsed":1881637,"internal_node_id":"0.0-5.0-20.0"},{"group":"tri cycles (cube, non-group)","fractal_assignment":["../images/cyn_red.png","../images/org_blu.png","../images/grn_red.png","../images/ylw_pnk.png","../images/gry_blk.png","../images/blu_wht.png","../images/pnk_blu.png","../images/ylw_slt.png"],"mutagen_generator_assignment":[0,1],"goal":6,"start":3,"action_noise":0.1,"location_history":"[3,7,3,4,7,6]","action_history":"[0,1,1,0,0]","mutagen_history":"[0,1,1,0,0]","location_rts":"[410,385,502,369,588]","trial_type":"fractal-mutation","trial_index":75,"time_elapsed":1892734,"internal_node_id":"0.0-5.0-21.0"},{"group":"tri cycles (cube, non-group)","fractal_assignment":["../images/cyn_red.png","../images/org_blu.png","../images/grn_red.png","../images/ylw_pnk.png","../images/gry_blk.png","../images/blu_wht.png","../images/pnk_blu.png","../images/ylw_slt.png"],"mutagen_generator_assignment":[0,1],"goal":5,"start":6,"action_noise":0.1,"location_history":"[6,5]","action_history":"[1]","mutagen_history":"[1]","location_rts":"[517]","trial_type":"fractal-mutation","trial_index":76,"time_elapsed":1897846,"internal_node_id":"0.0-5.0-22.0"},{"group":"tri cycles (cube, non-group)","fractal_assignment":["../images/cyn_red.png","../images/org_blu.png","../images/grn_red.png","../images/ylw_pnk.png","../images/gry_blk.png","../images/blu_wht.png","../images/pnk_blu.png","../images/ylw_slt.png"],"mutagen_generator_assignment":[0,1],"goal":3,"start":5,"action_noise":0.1,"location_history":"[5,1,0,2,1,5,2,6,4,7,6,5,2,6,4,7,6,4,7,6,4,7,3]","action_history":"[0,0,0,0,1,1,1,1,0,0,0,1,1,0,0,0,0,0,0,0,0,0]","mutagen_history":"[0,0,0,0,1,1,1,1,0,0,0,1,1,0,0,0,0,0,0,0,0,0]","location_rts":"[353,514,411,520,376,440,487,372,392,449,436,511,750,191,23,486,1062,442,339,484,419,447]","trial_type":"fractal-mutation","trial_index":77,"time_elapsed":1934851,"internal_node_id":"0.0-5.0-23.0"},{"group":"tri cycles (cube, non-group)","fractal_assignment":["../images/cyn_red.png","../images/org_blu.png","../images/grn_red.png","../images/ylw_pnk.png","../images/gry_blk.png","../images/blu_wht.png","../images/pnk_blu.png","../images/ylw_slt.png"],"mutagen_generator_assignment":[0,1],"goal":0,"start":3,"action_noise":0.1,"location_history":"[3,7,3,4,7,3,7,6,4,7,3,4,0]","action_history":"[0,1,1,1,1,0,0,0,0,1,1,1]","mutagen_history":"[0,1,1,1,1,0,0,0,0,1,1,1]","location_rts":"[378,292,395,384,415,423,414,440,398,406,359,373]","trial_type":"fractal-mutation","trial_index":78,"time_elapsed":1955991,"internal_node_id":"0.0-5.0-24.0"},{"group":"tri cycles (cube, non-group)","fractal_assignment":["../images/cyn_red.png","../images/org_blu.png","../images/grn_red.png","../images/ylw_pnk.png","../images/gry_blk.png","../images/blu_wht.png","../images/pnk_blu.png","../images/ylw_slt.png"],"mutagen_generator_assignment":[0,1],"goal":7,"start":0,"action_noise":0.1,"location_history":"[0,2,6,5,1,0,2,6,5,2,6,4,7]","action_history":"[0,1,1,0,0,0,1,1,1,1,0,0]","mutagen_history":"[0,1,1,0,0,0,1,1,1,1,0,0]","location_rts":"[657,1059,590,244,344,357,379,566,371,394,307,367]","trial_type":"fractal-mutation","trial_index":79,"time_elapsed":1978018,"internal_node_id":"0.0-5.0-25.0"},{"group":"tri cycles (cube, non-group)","fractal_assignment":["../images/cyn_red.png","../images/org_blu.png","../images/grn_red.png","../images/ylw_pnk.png","../images/gry_blk.png","../images/blu_wht.png","../images/pnk_blu.png","../images/ylw_slt.png"],"mutagen_generator_assignment":[0,1],"goal":2,"start":7,"action_noise":0.1,"location_history":"[7,3,7,6,4,0,3,7,3,7,6,4,7,6,4,0,2]","action_history":"[0,0,0,0,1,1,0,1,0,0,0,0,0,0,0,0]","mutagen_history":"[0,0,0,0,1,1,0,1,0,0,0,0,0,0,0,0]","location_rts":"[390,394,304,980,303,564,522,457,380,401,418,469,354,476,602,916]","trial_type":"fractal-mutation","trial_index":80,"time_elapsed":2006633,"internal_node_id":"0.0-5.0-26.0"},{"group":"tri cycles (cube, non-group)","fractal_assignment":["../images/cyn_red.png","../images/org_blu.png","../images/grn_red.png","../images/ylw_pnk.png","../images/gry_blk.png","../images/blu_wht.png","../images/pnk_blu.png","../images/ylw_slt.png"],"mutagen_generator_assignment":[0,1],"goal":1,"start":2,"action_noise":0.1,"location_history":"[2,6,5,1]","action_history":"[1,1,0]","mutagen_history":"[1,1,0]","location_rts":"[292,371,382]","trial_type":"fractal-mutation","trial_index":81,"time_elapsed":2014410,"internal_node_id":"0.0-5.0-27.0"},{"group":"tri cycles (cube, non-group)","fractal_assignment":["../images/cyn_red.png","../images/org_blu.png","../images/grn_red.png","../images/ylw_pnk.png","../images/gry_blk.png","../images/blu_wht.png","../images/pnk_blu.png","../images/ylw_slt.png"],"mutagen_generator_assignment":[0,1],"goal":5,"start":1,"action_noise":0.1,"location_history":"[1,0,3,7,6,5]","action_history":"[0,1,1,0,0]","mutagen_history":"[0,1,1,0,0]","location_rts":"[395,451,367,515,606]","trial_type":"fractal-mutation","trial_index":82,"time_elapsed":2025622,"internal_node_id":"0.0-5.0-28.0"},{"group":"tri cycles (cube, non-group)","fractal_assignment":["../images/cyn_red.png","../images/org_blu.png","../images/grn_red.png","../images/ylw_pnk.png","../images/gry_blk.png","../images/blu_wht.png","../images/pnk_blu.png","../images/ylw_slt.png"],"mutagen_generator_assignment":[0,1],"goal":4,"start":5,"action_noise":0.1,"location_history":"[5,2,6,4]","action_history":"[1,1,0]","mutagen_history":"[1,1,0]","location_rts":"[973,482,346]","trial_type":"fractal-mutation","trial_index":83,"time_elapsed":2034150,"internal_node_id":"0.0-5.0-29.0"},{"group":"tri cycles (cube, non-group)","fractal_assignment":["../images/cyn_red.png","../images/org_blu.png","../images/grn_red.png","../images/ylw_pnk.png","../images/gry_blk.png","../images/blu_wht.png","../images/pnk_blu.png","../images/ylw_slt.png"],"mutagen_generator_assignment":[0,1],"goal":6,"start":4,"action_noise":0.1,"location_history":"[4,7,3,4,7,3,4,0,2,6]","action_history":"[0,1,1,0,1,1,1,0,0]","mutagen_history":"[0,1,1,0,1,1,1,0,0]","location_rts":"[612,369,710,380,474,287,470,433,715]","trial_type":"fractal-mutation","trial_index":84,"time_elapsed":2051784,"internal_node_id":"0.0-5.0-30.0"},{"group":"tri cycles (cube, non-group)","fractal_assignment":["../images/cyn_red.png","../images/org_blu.png","../images/grn_red.png","../images/ylw_pnk.png","../images/gry_blk.png","../images/blu_wht.png","../images/pnk_blu.png","../images/ylw_slt.png"],"mutagen_generator_assignment":[0,1],"goal":4,"start":6,"action_noise":0.1,"location_history":"[6,5,2,6,5,1,0,2,1,0,2,1,0,3,4]","action_history":"[1,1,1,1,0,0,0,0,0,0,0,0,1,1]","mutagen_history":"[1,1,1,1,0,0,0,0,0,0,0,0,1,1]","location_rts":"[324,328,310,351,477,326,399,360,410,376,339,363,247,460]","trial_type":"fractal-mutation","trial_index":85,"time_elapsed":2075387,"internal_node_id":"0.0-5.0-31.0"},{"group":"tri cycles (cube, non-group)","fractal_assignment":["../images/cyn_red.png","../images/org_blu.png","../images/grn_red.png","../images/ylw_pnk.png","../images/gry_blk.png","../images/blu_wht.png","../images/pnk_blu.png","../images/ylw_slt.png"],"mutagen_generator_assignment":[0,1],"goal":2,"start":4,"action_noise":0.1,"location_history":"[4,7,3,7,3,4,7,3,7,3,7,6,4,7,6,4,0,2]","action_history":"[0,1,1,1,1,0,0,0,1,0,0,0,0,0,0,1,0]","mutagen_history":"[0,1,1,1,1,0,0,0,1,0,0,0,0,0,0,1,0]","location_rts":"[392,382,359,299,500,341,316,328,380,372,278,332,344,169,312,1495,155]","trial_type":"fractal-mutation","trial_index":86,"time_elapsed":2103849,"internal_node_id":"0.0-5.0-32.0"},{"group":"tri cycles (cube, non-group)","fractal_assignment":["../images/cyn_red.png","../images/org_blu.png","../images/grn_red.png","../images/ylw_pnk.png","../images/gry_blk.png","../images/blu_wht.png","../images/pnk_blu.png","../images/ylw_slt.png"],"mutagen_generator_assignment":[0,1],"goal":0,"start":2,"action_noise":0.1,"location_history":"[2,1,5,2,1,0]","action_history":"[0,1,1,0,0]","mutagen_history":"[0,1,1,0,0]","location_rts":"[370,367,275,604,331]","trial_type":"fractal-mutation","trial_index":87,"time_elapsed":2114707,"internal_node_id":"0.0-5.0-33.0"},{"group":"tri cycles (cube, non-group)","fractal_assignment":["../images/cyn_red.png","../images/org_blu.png","../images/grn_red.png","../images/ylw_pnk.png","../images/gry_blk.png","../images/blu_wht.png","../images/pnk_blu.png","../images/ylw_slt.png"],"mutagen_generator_assignment":[0,1],"goal":5,"start":0,"action_noise":0.1,"location_history":"[0,2,1,5]","action_history":"[0,1,1]","mutagen_history":"[0,1,1]","location_rts":"[549,346,646]","trial_type":"fractal-mutation","trial_index":88,"time_elapsed":2122977,"internal_node_id":"0.0-5.0-34.0"},{"group":"tri cycles (cube, non-group)","fractal_assignment":["../images/cyn_red.png","../images/org_blu.png","../images/grn_red.png","../images/ylw_pnk.png","../images/gry_blk.png","../images/blu_wht.png","../images/pnk_blu.png","../images/ylw_slt.png"],"mutagen_generator_assignment":[0,1],"goal":1,"start":5,"action_noise":0.1,"location_history":"[5,1]","action_history":"[0]","mutagen_history":"[0]","location_rts":"[370]","trial_type":"fractal-mutation","trial_index":89,"time_elapsed":2127927,"internal_node_id":"0.0-5.0-35.0"},{"group":"tri cycles (cube, non-group)","fractal_assignment":["../images/cyn_red.png","../images/org_blu.png","../images/grn_red.png","../images/ylw_pnk.png","../images/gry_blk.png","../images/blu_wht.png","../images/pnk_blu.png","../images/ylw_slt.png"],"mutagen_generator_assignment":[0,1],"goal":7,"start":1,"action_noise":0.1,"location_history":"[1,0,3,4,7]","action_history":"[0,1,1,0]","mutagen_history":"[0,1,1,0]","location_rts":"[350,410,361,419]","trial_type":"fractal-mutation","trial_index":90,"time_elapsed":2137293,"internal_node_id":"0.0-5.0-36.0"},{"group":"tri cycles (cube, non-group)","fractal_assignment":["../images/cyn_red.png","../images/org_blu.png","../images/grn_red.png","../images/ylw_pnk.png","../images/gry_blk.png","../images/blu_wht.png","../images/pnk_blu.png","../images/ylw_slt.png"],"mutagen_generator_assignment":[0,1],"goal":3,"start":7,"action_noise":0.1,"location_history":"[7,3]","action_history":"[0]","mutagen_history":"[0]","location_rts":"[907]","trial_type":"fractal-mutation","trial_index":91,"time_elapsed":2142777,"internal_node_id":"0.0-5.0-37.0"},{"group":"tri cycles (cube, non-group)","fractal_assignment":["../images/cyn_red.png","../images/org_blu.png","../images/grn_red.png","../images/ylw_pnk.png","../images/gry_blk.png","../images/blu_wht.png","../images/pnk_blu.png","../images/ylw_slt.png"],"mutagen_generator_assignment":[0,1],"goal":6,"start":3,"action_noise":0.1,"location_history":"[3,7,6]","action_history":"[0,1]","mutagen_history":"[0,1]","location_rts":"[1922,388]","trial_type":"fractal-mutation","trial_index":92,"time_elapsed":2150745,"internal_node_id":"0.0-5.0-38.0"},{"group":"tri cycles (cube, non-group)","fractal_assignment":["../images/cyn_red.png","../images/org_blu.png","../images/grn_red.png","../images/ylw_pnk.png","../images/gry_blk.png","../images/blu_wht.png","../images/pnk_blu.png","../images/ylw_slt.png"],"mutagen_generator_assignment":[0,1],"goal":2,"start":6,"action_noise":0.1,"location_history":"[6,4,7,6,5,2]","action_history":"[0,0,0,1,1]","mutagen_history":"[0,0,0,1,1]","location_rts":"[525,421,441,504,542]","trial_type":"fractal-mutation","trial_index":93,"time_elapsed":2162052,"internal_node_id":"0.0-5.0-39.0"},{"group":"tri cycles (cube, non-group)","fractal_assignment":["../images/cyn_red.png","../images/org_blu.png","../images/grn_red.png","../images/ylw_pnk.png","../images/gry_blk.png","../images/blu_wht.png","../images/pnk_blu.png","../images/ylw_slt.png"],"mutagen_generator_assignment":[0,1],"goal":1,"start":2,"action_noise":0.1,"location_history":"[2,1]","action_history":"[0]","mutagen_history":"[0]","location_rts":"[584]","trial_type":"fractal-mutation","trial_index":94,"time_elapsed":2167201,"internal_node_id":"0.0-5.0-40.0"},{"group":"tri cycles (cube, non-group)","fractal_assignment":["../images/cyn_red.png","../images/org_blu.png","../images/grn_red.png","../images/ylw_pnk.png","../images/gry_blk.png","../images/blu_wht.png","../images/pnk_blu.png","../images/ylw_slt.png"],"mutagen_generator_assignment":[0,1],"goal":0,"start":1,"action_noise":0.1,"location_history":"[1,0]","action_history":"[0]","mutagen_history":"[0]","location_rts":"[565]","trial_type":"fractal-mutation","trial_index":95,"time_elapsed":2172342,"internal_node_id":"0.0-5.0-41.0"},{"group":"tri cycles (cube, non-group)","fractal_assignment":["../images/cyn_red.png","../images/org_blu.png","../images/grn_red.png","../images/ylw_pnk.png","../images/gry_blk.png","../images/blu_wht.png","../images/pnk_blu.png","../images/ylw_slt.png"],"mutagen_generator_assignment":[0,1],"goal":4,"start":0,"action_noise":0.1,"location_history":"[0,2,6,5,2,6,5,2,6,5,1,0,2,1,0,3,4]","action_history":"[0,1,1,1,1,1,1,1,1,0,0,0,0,1,1,1]","mutagen_history":"[0,1,1,1,1,1,1,1,1,0,0,0,0,1,1,1]","location_rts":"[639,307,429,390,327,463,484,556,410,308,400,414,453,416,379,433]","trial_type":"fractal-mutation","trial_index":96,"time_elapsed":2199854,"internal_node_id":"0.0-5.0-42.0"},{"group":"tri cycles (cube, non-group)","fractal_assignment":["../images/cyn_red.png","../images/org_blu.png","../images/grn_red.png","../images/ylw_pnk.png","../images/gry_blk.png","../images/blu_wht.png","../images/pnk_blu.png","../images/ylw_slt.png"],"mutagen_generator_assignment":[0,1],"goal":6,"start":4,"action_noise":0.1,"location_history":"[4,7,6]","action_history":"[0,1]","mutagen_history":"[0,1]","location_rts":"[302,422]","trial_type":"fractal-mutation","trial_index":97,"time_elapsed":2206244,"internal_node_id":"0.0-5.0-43.0"},{"group":"tri cycles (cube, non-group)","fractal_assignment":["../images/cyn_red.png","../images/org_blu.png","../images/grn_red.png","../images/ylw_pnk.png","../images/gry_blk.png","../images/blu_wht.png","../images/pnk_blu.png","../images/ylw_slt.png"],"mutagen_generator_assignment":[0,1],"goal":3,"start":6,"action_noise":0.1,"location_history":"[6,4,0,2,1,5,2,6,5,1,0,2,1,5,2,6,5,1,0,3]","action_history":"[0,1,0,0,1,1,1,1,0,0,0,0,0,1,1,1,1,1,1]","mutagen_history":"[0,1,0,0,1,1,1,1,0,0,0,0,0,1,1,1,1,1,1]","location_rts":"[356,319,398,816,386,339,364,420,424,512,730,883,335,348,435,334,315,309,299]","trial_type":"fractal-mutation","trial_index":98,"time_elapsed":2238509,"internal_node_id":"0.0-5.0-44.0"},{"group":"tri cycles (cube, non-group)","fractal_assignment":["../images/cyn_red.png","../images/org_blu.png","../images/grn_red.png","../images/ylw_pnk.png","../images/gry_blk.png","../images/blu_wht.png","../images/pnk_blu.png","../images/ylw_slt.png"],"mutagen_generator_assignment":[0,1],"goal":7,"start":3,"action_noise":0.1,"location_history":"[3,7]","action_history":"[0]","mutagen_history":"[0]","location_rts":"[568]","trial_type":"fractal-mutation","trial_index":99,"time_elapsed":2243665,"internal_node_id":"0.0-5.0-45.0"},{"group":"tri cycles (cube, non-group)","fractal_assignment":["../images/cyn_red.png","../images/org_blu.png","../images/grn_red.png","../images/ylw_pnk.png","../images/gry_blk.png","../images/blu_wht.png","../images/pnk_blu.png","../images/ylw_slt.png"],"mutagen_generator_assignment":[0,1],"goal":5,"start":7,"action_noise":0.1,"location_history":"[7,6,5]","action_history":"[0,1]","mutagen_history":"[0,1]","location_rts":"[700,436]","trial_type":"fractal-mutation","trial_index":100,"time_elapsed":2250483,"internal_node_id":"0.0-5.0-46.0"},{"group":"tri cycles (cube, non-group)","fractal_assignment":["../images/cyn_red.png","../images/org_blu.png","../images/grn_red.png","../images/ylw_pnk.png","../images/gry_blk.png","../images/blu_wht.png","../images/pnk_blu.png","../images/ylw_slt.png"],"mutagen_generator_assignment":[0,1],"goal":1,"start":5,"action_noise":0.1,"location_history":"[5,2,1]","action_history":"[0,0]","mutagen_history":"[0,0]","location_rts":"[487,488]","trial_type":"fractal-mutation","trial_index":101,"time_elapsed":2257135,"internal_node_id":"0.0-5.0-47.0"},{"group":"tri cycles (cube, non-group)","fractal_assignment":["../images/cyn_red.png","../images/org_blu.png","../images/grn_red.png","../images/ylw_pnk.png","../images/gry_blk.png","../images/blu_wht.png","../images/pnk_blu.png","../images/ylw_slt.png"],"mutagen_generator_assignment":[0,1],"goal":6,"start":1,"action_noise":0.1,"location_history":"[1,5,2,1,5,2,1,5,2,6]","action_history":"[1,1,1,1,1,1,1,1,1]","mutagen_history":"[1,1,1,1,1,1,1,1,1]","location_rts":"[725,520,386,402,433,338,410,525,586]","trial_type":"fractal-mutation","trial_index":102,"time_elapsed":2274687,"internal_node_id":"0.0-5.0-48.0"},{"group":"tri cycles (cube, non-group)","fractal_assignment":["../images/cyn_red.png","../images/org_blu.png","../images/grn_red.png","../images/ylw_pnk.png","../images/gry_blk.png","../images/blu_wht.png","../images/pnk_blu.png","../images/ylw_slt.png"],"mutagen_generator_assignment":[0,1],"goal":0,"start":6,"action_noise":0.1,"location_history":"[6,4,0]","action_history":"[0,1]","mutagen_history":"[0,1]","location_rts":"[4902,481]","trial_type":"fractal-mutation","trial_index":103,"time_elapsed":2285717,"internal_node_id":"0.0-5.0-49.0"},{"view_history":"[{\"page_index\":0,\"viewing_time\":2152}]","rt":2154,"trial_type":"instructions","trial_index":104,"time_elapsed":2288874,"internal_node_id":"0.0-6.0"},{"rt":1266,"responses":"{\"Q0\":\"\"}","trial_type":"survey-text","trial_index":105,"time_elapsed":2291148,"internal_node_id":"0.0-7.0"}]