[{"view_history":"[{\"page_index\":0,\"viewing_time\":2817},{\"page_index\":1,\"viewing_time\":16415}]","rt":19232,"trial_type":"instructions","trial_index":0,"time_elapsed":19234,"internal_node_id":"0.0-0.0"},{"view_history":"[{\"page_index\":0,\"viewing_time\":4051},{\"page_index\":1,\"viewing_time\":8026}]","rt":12077,"trial_type":"instructions","trial_index":1,"time_elapsed":32311,"internal_node_id":"0.0-1.0"},{"group":"tri cycles (cube, non-group)","room_assignment":["green","purple","red","brown","grey","blue","pink","yellow"],"door_color_assignment":["white","black"],"door_generator_assignment":[1,0],"goal":6,"start":3,"action_noise":0.1,"location_history":"[3,4,0,3,4,7,6]","action_history":"[1,1,1,1,0,0]","door_history":"[0,0,0,0,1,1]","location_rts":"[2579,487,396,497,901,510]","trial_type":"two-door-navigation","trial_index":2,"time_elapsed":47307,"internal_node_id":"0.0-2.0-0.0"},{"group":"tri cycles (cube, non-group)","room_assignment":["green","purple","red","brown","grey","blue","pink","yellow"],"door_color_assignment":["white","black"],"door_generator_assignment":[1,0],"goal":1,"start":6,"action_noise":0.1,"location_history":"[6,4,7,6,4,7,3,4,0,2,1]","action_history":"[0,0,0,0,0,1,1,1,0,0]","door_history":"[1,1,1,1,1,0,0,0,1,1]","location_rts":"[2113,442,553,434,459,1113,486,331,745,384]","trial_type":"two-door-navigation","trial_index":3,"time_elapsed":68014,"internal_node_id":"0.0-2.0-1.0"},{"group":"tri cycles (cube, non-group)","room_assignment":["green","purple","red","brown","grey","blue","pink","yellow"],"door_color_assignment":["white","black"],"door_generator_assignment":[1,0],"goal":2,"start":1,"action_noise":0.1,"location_history":"[1,5,2]","action_history":"[0,0]","door_history":"[1,1]","location_rts":"[2626,483]","trial_type":"two-door-navigation","trial_index":4,"time_elapsed":76652,"internal_node_id":"0.0-2.0-2.0"},{"group":"tri cycles (cube, non-group)","room_assignment":["green","purple","red","brown","grey","blue","pink","yellow"],"door_color_assignment":["white","black"],"door_generator_assignment":[1,0],"goal":0,"start":2,"action_noise":0.1,"location_history":"[2,6,5,1,0]","action_history":"[1,1,0,0]","door_history":"[0,0,1,1]","location_rts":"[2719,401,857,440]","trial_type":"two-door-navigation","trial_index":5,"time_elapsed":88634,"internal_node_id":"0.0-2.0-3.0"},{"group":"tri cycles (cube, non-group)","room_assignment":["green","purple","red","brown","grey","blue","pink","yellow"],"door_color_assignment":["white","black"],"door_generator_assignment":[1,0],"goal":7,"start":0,"action_noise":0.1,"location_history":"[0,2,6,5,1,0,2,1,0,3,4,0,3,7]","action_history":"[1,1,1,0,0,0,0,0,1,1,1,1,0]","door_history":"[0,0,0,1,1,1,1,1,0,0,0,0,1]","location_rts":"[1379,466,617,384,324,369,485,351,436,303,301,493,229]","trial_type":"two-door-navigation","trial_index":6,"time_elapsed":111405,"internal_node_id":"0.0-2.0-4.0"},{"group":"tri cycles (cube, non-group)","room_assignment":["green","purple","red","brown","grey","blue","pink","yellow"],"door_color_assignment":["white","black"],"door_generator_assignment":[1,0],"goal":5,"start":7,"action_noise":0.1,"location_history":"[7,6,4,7,3,7,6,4,0,2,6,4,7,3,4,0,2,1,5]","action_history":"[0,0,0,1,0,0,0,1,0,0,0,0,1,1,1,0,0,0]","door_history":"[1,1,1,0,1,1,1,0,1,1,1,1,0,0,0,1,1,1]","location_rts":"[1408,416,459,695,297,290,431,589,363,387,445,390,386,1187,291,370,364,309]","trial_type":"two-door-navigation","trial_index":7,"time_elapsed":142204,"internal_node_id":"0.0-2.0-5.0"},{"group":"tri cycles (cube, non-group)","room_assignment":["green","purple","red","brown","grey","blue","pink","yellow"],"door_color_assignment":["white","black"],"door_generator_assignment":[1,0],"goal":4,"start":5,"action_noise":0.1,"location_history":"[5,1,5,2,6,5,2,6,5,2,6,4]","action_history":"[1,1,1,1,1,1,1,1,1,0,0]","door_history":"[0,0,0,0,0,0,0,0,0,1,1]","location_rts":"[2082,364,420,306,301,376,564,438,712,287,387]","trial_type":"two-door-navigation","trial_index":8,"time_elapsed":163087,"internal_node_id":"0.0-2.0-6.0"},{"group":"tri cycles (cube, non-group)","room_assignment":["green","purple","red","brown","grey","blue","pink","yellow"],"door_color_assignment":["white","black"],"door_generator_assignment":[1,0],"goal":2,"start":4,"action_noise":0.1,"location_history":"[4,7,6,4,0,3,4,7,6,4,7,3,7,6,4,7,6,4,0,3,7,6,5,2]","action_history":"[0,0,0,1,1,1,0,0,0,0,1,0,0,0,0,0,0,1,1,0,0,1,1]","door_history":"[1,1,1,0,0,0,1,1,1,1,0,1,1,1,1,1,1,0,0,1,1,0,0]","location_rts":"[2801,364,401,640,791,389,1047,516,514,298,1358,295,337,683,285,525,456,554,1036,1183,799,1054,293]","trial_type":"two-door-navigation","trial_index":9,"time_elapsed":206463,"internal_node_id":"0.0-2.0-7.0"},{"group":"tri cycles (cube, non-group)","room_assignment":["green","purple","red","brown","grey","blue","pink","yellow"],"door_color_assignment":["white","black"],"door_generator_assignment":[1,0],"goal":3,"start":2,"action_noise":0.1,"location_history":"[2,6,5,2,1,0,3]","action_history":"[1,1,1,0,0,1]","door_history":"[0,0,0,1,1,0]","location_rts":"[2146,900,1056,1186,551,1183]","trial_type":"two-door-navigation","trial_index":10,"time_elapsed":223071,"internal_node_id":"0.0-2.0-8.0"},{"group":"tri cycles (cube, non-group)","room_assignment":["green","purple","red","brown","grey","blue","pink","yellow"],"door_color_assignment":["white","black"],"door_generator_assignment":[1,0],"goal":7,"start":3,"action_noise":0.1,"location_history":"[3,4,0,2,6,4,7]","action_history":"[1,1,1,1,0,0]","door_history":"[0,0,0,0,1,1]","location_rts":"[1760,444,593,707,864,391]","trial_type":"two-door-navigation","trial_index":11,"time_elapsed":237410,"internal_node_id":"0.0-2.0-9.0"},{"group":"tri cycles (cube, non-group)","room_assignment":["green","purple","red","brown","grey","blue","pink","yellow"],"door_color_assignment":["white","black"],"door_generator_assignment":[1,0],"goal":0,"start":7,"action_noise":0.1,"location_history":"[7,3,4,0]","action_history":"[1,1,1]","door_history":"[0,0,0]","location_rts":"[2488,564,603]","trial_type":"two-door-navigation","trial_index":12,"time_elapsed":247614,"internal_node_id":"0.0-2.0-10.0"},{"group":"tri cycles (cube, non-group)","room_assignment":["green","purple","red","brown","grey","blue","pink","yellow"],"door_color_assignment":["white","black"],"door_generator_assignment":[1,0],"goal":1,"start":0,"action_noise":0.1,"location_history":"[0,2,1]","action_history":"[0,0]","door_history":"[1,1]","location_rts":"[2437,687]","trial_type":"two-door-navigation","trial_index":13,"time_elapsed":256271,"internal_node_id":"0.0-2.0-11.0"},{"group":"tri cycles (cube, non-group)","room_assignment":["green","purple","red","brown","grey","blue","pink","yellow"],"door_color_assignment":["white","black"],"door_generator_assignment":[1,0],"goal":6,"start":1,"action_noise":0.1,"location_history":"[1,5,2,6]","action_history":"[1,1,1]","door_history":"[0,0,0]","location_rts":"[1681,361,351]","trial_type":"two-door-navigation","trial_index":14,"time_elapsed":265213,"internal_node_id":"0.0-2.0-12.0"},{"group":"tri cycles (cube, non-group)","room_assignment":["green","purple","red","brown","grey","blue","pink","yellow"],"door_color_assignment":["white","black"],"door_generator_assignment":[1,0],"goal":4,"start":6,"action_noise":0.1,"location_history":"[6,5,2,6,5,2,6,4]","action_history":"[1,1,1,1,1,1,0]","door_history":"[0,0,0,0,0,0,1]","location_rts":"[1382,491,325,525,560,379,498]","trial_type":"two-door-navigation","trial_index":15,"time_elapsed":279965,"internal_node_id":"0.0-2.0-13.0"},{"group":"tri cycles (cube, non-group)","room_assignment":["green","purple","red","brown","grey","blue","pink","yellow"],"door_color_assignment":["white","black"],"door_generator_assignment":[1,0],"goal":5,"start":4,"action_noise":0.1,"location_history":"[4,0,3,4,0,3,7,6,4,7,6,5]","action_history":"[1,1,1,1,1,0,0,0,0,0,1]","door_history":"[0,0,0,0,0,1,1,1,1,1,0]","location_rts":"[2392,299,284,321,764,883,338,358,350,381,298]","trial_type":"two-door-navigation","trial_index":16,"time_elapsed":301207,"internal_node_id":"0.0-2.0-14.0"},{"group":"tri cycles (cube, non-group)","room_assignment":["green","purple","red","brown","grey","blue","pink","yellow"],"door_color_assignment":["white","black"],"door_generator_assignment":[1,0],"goal":4,"start":5,"action_noise":0.1,"location_history":"[5,1,5,2,1,0,3,4]","action_history":"[1,1,0,0,0,1,1]","door_history":"[0,0,1,1,1,0,0]","location_rts":"[1347,295,353,415,392,828,457]","trial_type":"two-door-navigation","trial_index":17,"time_elapsed":315891,"internal_node_id":"0.0-2.0-15.0"},{"group":"tri cycles (cube, non-group)","room_assignment":["green","purple","red","brown","grey","blue","pink","yellow"],"door_color_assignment":["white","black"],"door_generator_assignment":[1,0],"goal":0,"start":4,"action_noise":0.1,"location_history":"[4,7,6,5,2,6,5,2,1,0]","action_history":"[0,0,1,1,1,1,1,0,0]","door_history":"[1,1,0,0,0,0,0,1,1]","location_rts":"[2770,735,1525,1059,304,279,437,341,385]","trial_type":"two-door-navigation","trial_index":18,"time_elapsed":336357,"internal_node_id":"0.0-2.0-16.0"},{"group":"tri cycles (cube, non-group)","room_assignment":["green","purple","red","brown","grey","blue","pink","yellow"],"door_color_assignment":["white","black"],"door_generator_assignment":[1,0],"goal":7,"start":0,"action_noise":0.1,"location_history":"[0,3,4,0,2,1,0,2,6,4,7]","action_history":"[1,1,1,0,0,0,0,1,1,0]","door_history":"[0,0,0,1,1,1,1,0,0,1]","location_rts":"[1215,404,411,286,337,328,359,765,549,635]","trial_type":"two-door-navigation","trial_index":19,"time_elapsed":355282,"internal_node_id":"0.0-2.0-17.0"},{"group":"tri cycles (cube, non-group)","room_assignment":["green","purple","red","brown","grey","blue","pink","yellow"],"door_color_assignment":["white","black"],"door_generator_assignment":[1,0],"goal":2,"start":7,"action_noise":0.1,"location_history":"[7,3,4,7,6,4,0,3,4,7,6,5,2]","action_history":"[1,0,0,0,0,1,1,1,0,0,1,1]","door_history":"[0,1,1,1,1,0,0,0,1,1,0,0]","location_rts":"[1725,1351,762,757,564,996,817,614,1097,613,982,1038]","trial_type":"two-door-navigation","trial_index":20,"time_elapsed":382232,"internal_node_id":"0.0-2.0-18.0"},{"group":"tri cycles (cube, non-group)","room_assignment":["green","purple","red","brown","grey","blue","pink","yellow"],"door_color_assignment":["white","black"],"door_generator_assignment":[1,0],"goal":1,"start":2,"action_noise":0.1,"location_history":"[2,1]","action_history":"[0]","door_history":"[1]","location_rts":"[1792]","trial_type":"two-door-navigation","trial_index":21,"time_elapsed":388540,"internal_node_id":"0.0-2.0-19.0"},{"group":"tri cycles (cube, non-group)","room_assignment":["green","purple","red","brown","grey","blue","pink","yellow"],"door_color_assignment":["white","black"],"door_generator_assignment":[1,0],"goal":3,"start":1,"action_noise":0.1,"location_history":"[1,5,2,6,5,1,0,3]","action_history":"[1,1,1,0,0,0,1]","door_history":"[0,0,0,1,1,1,0]","location_rts":"[1383,366,418,694,419,464,225]","trial_type":"two-door-navigation","trial_index":22,"time_elapsed":403098,"internal_node_id":"0.0-2.0-20.0"},{"group":"tri cycles (cube, non-group)","room_assignment":["green","purple","red","brown","grey","blue","pink","yellow"],"door_color_assignment":["white","black"],"door_generator_assignment":[1,0],"goal":6,"start":3,"action_noise":0.1,"location_history":"[3,4,0,2,6]","action_history":"[1,1,1,1]","door_history":"[0,0,0,0]","location_rts":"[1623,391,397,608]","trial_type":"two-door-navigation","trial_index":23,"time_elapsed":413665,"internal_node_id":"0.0-2.0-21.0"},{"group":"tri cycles (cube, non-group)","room_assignment":["green","purple","red","brown","grey","blue","pink","yellow"],"door_color_assignment":["white","black"],"door_generator_assignment":[1,0],"goal":5,"start":6,"action_noise":0.1,"location_history":"[6,4,7,6,4,7,3,4,0,3,7,3,4,7,3,7,6,4,7,6,4,0,3,4,0,2,1,0,2,6,5]","action_history":"[0,0,0,0,0,1,1,1,1,1,1,0,0,1,1,0,0,0,0,0,1,1,1,1,0,0,0,0,1,1]","door_history":"[1,1,1,1,1,0,0,0,0,0,0,1,1,0,0,1,1,1,1,1,0,0,0,0,1,1,1,1,0,0]","location_rts":"[1409,378,306,292,359,660,642,446,377,398,437,163,356,467,864,752,1119,528,458,522,782,731,1179,589,423,760,472,353,721,499]","trial_type":"two-door-navigation","trial_index":24,"time_elapsed":464998,"internal_node_id":"0.0-2.0-22.0"},{"group":"tri cycles (cube, non-group)","room_assignment":["green","purple","red","brown","grey","blue","pink","yellow"],"door_color_assignment":["white","black"],"door_generator_assignment":[1,0],"goal":3,"start":5,"action_noise":0.1,"location_history":"[5,1,0,3]","action_history":"[0,0,1]","door_history":"[1,1,0]","location_rts":"[655,425,514]","trial_type":"two-door-navigation","trial_index":25,"time_elapsed":473109,"internal_node_id":"0.0-2.0-23.0"},{"group":"tri cycles (cube, non-group)","room_assignment":["green","purple","red","brown","grey","blue","pink","yellow"],"door_color_assignment":["white","black"],"door_generator_assignment":[1,0],"goal":0,"start":3,"action_noise":0.1,"location_history":"[3,7,3,7,3,4,0]","action_history":"[0,0,0,1,1,1]","door_history":"[1,1,1,0,0,0]","location_rts":"[1375,410,367,408,541,353]","trial_type":"two-door-navigation","trial_index":26,"time_elapsed":486134,"internal_node_id":"0.0-2.0-24.0"},{"group":"tri cycles (cube, non-group)","room_assignment":["green","purple","red","brown","grey","blue","pink","yellow"],"door_color_assignment":["white","black"],"door_generator_assignment":[1,0],"goal":7,"start":0,"action_noise":0.1,"location_history":"[0,3,4,0,2,1,0,2,1,5,2,6,5,1,0,2,1,5,2,1,0,3,4,0,3,4,0,2,6,5,2,6,5,1,0,2,1,0,2,6,4,7]","action_history":"[1,1,1,0,0,0,0,1,1,1,1,1,0,0,0,1,1,0,0,0,1,1,1,1,1,1,0,0,0,1,1,0,0,0,0,0,0,0,0,0,0]","door_history":"[0,0,0,1,1,1,1,0,0,0,0,0,1,1,1,0,0,1,1,1,0,0,0,0,0,0,1,1,1,0,0,1,1,1,1,1,1,1,1,1,1]","location_rts":"[1121,1094,1141,1007,414,411,438,294,854,538,909,780,791,818,726,793,363,300,563,421,546,353,312,341,258,634,593,395,404,802,390,649,847,327,320,320,382,330,366,307,309]","trial_type":"two-door-navigation","trial_index":27,"time_elapsed":554115,"internal_node_id":"0.0-2.0-25.0"},{"group":"tri cycles (cube, non-group)","room_assignment":["green","purple","red","brown","grey","blue","pink","yellow"],"door_color_assignment":["white","black"],"door_generator_assignment":[1,0],"goal":2,"start":7,"action_noise":0.1,"location_history":"[7,3,4,7,6,4,0,3,4,0,2]","action_history":"[1,1,0,0,0,1,1,1,1,0]","door_history":"[0,0,1,1,1,0,0,0,0,1]","location_rts":"[1278,363,567,358,327,739,343,296,378,1057]","trial_type":"two-door-navigation","trial_index":28,"time_elapsed":573413,"internal_node_id":"0.0-2.0-26.0"},{"group":"tri cycles (cube, non-group)","room_assignment":["green","purple","red","brown","grey","blue","pink","yellow"],"door_color_assignment":["white","black"],"door_generator_assignment":[1,0],"goal":1,"start":2,"action_noise":0.1,"location_history":"[2,1]","action_history":"[0]","door_history":"[1]","location_rts":"[1676]","trial_type":"two-door-navigation","trial_index":29,"time_elapsed":579603,"internal_node_id":"0.0-2.0-27.0"},{"group":"tri cycles (cube, non-group)","room_assignment":["green","purple","red","brown","grey","blue","pink","yellow"],"door_color_assignment":["white","black"],"door_generator_assignment":[1,0],"goal":5,"start":1,"action_noise":0.1,"location_history":"[1,0,2,1,0,3,4,7,6,4,7,3,4,7,6,4,7,6,4,7,6,5]","action_history":"[0,0,0,0,1,1,0,0,0,0,1,1,0,0,0,0,0,0,0,0,1]","door_history":"[1,1,1,1,0,0,1,1,1,1,0,0,1,1,1,1,1,1,1,1,0]","location_rts":"[24421,372,270,396,568,387,500,264,304,1636,411,453,379,248,317,309,265,277,292,332,322]","trial_type":"two-door-navigation","trial_index":30,"time_elapsed":637097,"internal_node_id":"0.0-2.0-28.0"},{"group":"tri cycles (cube, non-group)","room_assignment":["green","purple","red","brown","grey","blue","pink","yellow"],"door_color_assignment":["white","black"],"door_generator_assignment":[1,0],"goal":4,"start":5,"action_noise":0.1,"location_history":"[5,2,6,4]","action_history":"[1,1,1]","door_history":"[0,0,0]","location_rts":"[1293,352,477]","trial_type":"two-door-navigation","trial_index":31,"time_elapsed":645746,"internal_node_id":"0.0-2.0-29.0"},{"group":"tri cycles (cube, non-group)","room_assignment":["green","purple","red","brown","grey","blue","pink","yellow"],"door_color_assignment":["white","black"],"door_generator_assignment":[1,0],"goal":6,"start":4,"action_noise":0.1,"location_history":"[4,0,3,4,0,2,1,0,3,4,0,3,7,3,4,0,3,4,7,6]","action_history":"[1,1,1,1,0,0,0,1,1,1,1,0,1,1,1,1,1,0,0]","door_history":"[0,0,0,0,1,1,1,0,0,0,0,1,0,0,0,0,0,1,1]","location_rts":"[4976,378,582,277,109,316,407,302,322,307,361,1228,789,435,351,328,311,358,491]","trial_type":"two-door-navigation","trial_index":32,"time_elapsed":681097,"internal_node_id":"0.0-2.0-30.0"},{"group":"tri cycles (cube, non-group)","room_assignment":["green","purple","red","brown","grey","blue","pink","yellow"],"door_color_assignment":["white","black"],"door_generator_assignment":[1,0],"goal":4,"start":6,"action_noise":0.1,"location_history":"[6,5,2,6,5,2,1,0,3,4]","action_history":"[1,1,1,1,1,0,0,1,1]","door_history":"[0,0,0,0,0,1,1,0,0]","location_rts":"[1458,398,672,616,397,694,392,631,723]","trial_type":"two-door-navigation","trial_index":33,"time_elapsed":699695,"internal_node_id":"0.0-2.0-31.0"},{"group":"tri cycles (cube, non-group)","room_assignment":["green","purple","red","brown","grey","blue","pink","yellow"],"door_color_assignment":["white","black"],"door_generator_assignment":[1,0],"goal":2,"start":4,"action_noise":0.1,"location_history":"[4,7,6,4,7,3,7,6,5,2]","action_history":"[0,0,1,0,0,0,0,1,1]","door_history":"[1,1,0,1,1,1,1,0,0]","location_rts":"[1172,585,989,418,402,387,298,538,1031]","trial_type":"two-door-navigation","trial_index":34,"time_elapsed":718145,"internal_node_id":"0.0-2.0-32.0"},{"group":"tri cycles (cube, non-group)","room_assignment":["green","purple","red","brown","grey","blue","pink","yellow"],"door_color_assignment":["white","black"],"door_generator_assignment":[1,0],"goal":0,"start":2,"action_noise":0.1,"location_history":"[2,6,4,7,3,7,3,4,7,6,4,0]","action_history":"[1,0,0,1,1,1,1,0,0,0,1]","door_history":"[0,1,1,0,0,0,0,1,1,1,0]","location_rts":"[1159,831,348,939,377,415,482,321,353,518,546]","trial_type":"two-door-navigation","trial_index":35,"time_elapsed":739056,"internal_node_id":"0.0-2.0-33.0"},{"group":"tri cycles (cube, non-group)","room_assignment":["green","purple","red","brown","grey","blue","pink","yellow"],"door_color_assignment":["white","black"],"door_generator_assignment":[1,0],"goal":5,"start":0,"action_noise":0.1,"location_history":"[0,3,7,6,4,7,6,5]","action_history":"[1,0,0,0,0,0,1]","door_history":"[0,1,1,1,1,1,0]","location_rts":"[1199,1615,338,276,327,290,318]","trial_type":"two-door-navigation","trial_index":36,"time_elapsed":753980,"internal_node_id":"0.0-2.0-34.0"},{"group":"tri cycles (cube, non-group)","room_assignment":["green","purple","red","brown","grey","blue","pink","yellow"],"door_color_assignment":["white","black"],"door_generator_assignment":[1,0],"goal":1,"start":5,"action_noise":0.1,"location_history":"[5,1]","action_history":"[0]","door_history":"[1]","location_rts":"[2695]","trial_type":"two-door-navigation","trial_index":37,"time_elapsed":761194,"internal_node_id":"0.0-2.0-35.0"},{"group":"tri cycles (cube, non-group)","room_assignment":["green","purple","red","brown","grey","blue","pink","yellow"],"door_color_assignment":["white","black"],"door_generator_assignment":[1,0],"goal":7,"start":1,"action_noise":0.1,"location_history":"[1,0,2,1,0,2,6,5,2,1,0,2,1,0,3,4,0,2,6,4,7]","action_history":"[1,0,0,0,0,1,1,1,0,0,0,0,1,1,1,1,0,1,0,0]","door_history":"[0,1,1,1,1,0,0,0,1,1,1,1,0,0,0,0,1,0,1,1]","location_rts":"[2618,1187,336,297,362,796,371,388,788,399,379,330,587,382,289,258,482,359,238,753]","trial_type":"two-door-navigation","trial_index":38,"time_elapsed":796557,"internal_node_id":"0.0-2.0-36.0"},{"group":"tri cycles (cube, non-group)","room_assignment":["green","purple","red","brown","grey","blue","pink","yellow"],"door_color_assignment":["white","black"],"door_generator_assignment":[1,0],"goal":3,"start":7,"action_noise":0.1,"location_history":"[7,3]","action_history":"[1]","door_history":"[0]","location_rts":"[1361]","trial_type":"two-door-navigation","trial_index":39,"time_elapsed":802436,"internal_node_id":"0.0-2.0-37.0"},{"group":"tri cycles (cube, non-group)","room_assignment":["green","purple","red","brown","grey","blue","pink","yellow"],"door_color_assignment":["white","black"],"door_generator_assignment":[1,0],"goal":6,"start":3,"action_noise":0.1,"location_history":"[3,4,0,3,4,7,3,7,6]","action_history":"[1,1,1,1,0,1,1,1]","door_history":"[0,0,0,0,1,0,0,0]","location_rts":"[2895,340,322,288,373,701,332,468]","trial_type":"two-door-navigation","trial_index":40,"time_elapsed":819762,"internal_node_id":"0.0-2.0-38.0"},{"group":"tri cycles (cube, non-group)","room_assignment":["green","purple","red","brown","grey","blue","pink","yellow"],"door_color_assignment":["white","black"],"door_generator_assignment":[1,0],"goal":2,"start":6,"action_noise":0.1,"location_history":"[6,5,2]","action_history":"[1,1]","door_history":"[0,0]","location_rts":"[1351,338]","trial_type":"two-door-navigation","trial_index":41,"time_elapsed":826970,"internal_node_id":"0.0-2.0-39.0"},{"group":"tri cycles (cube, non-group)","room_assignment":["green","purple","red","brown","grey","blue","pink","yellow"],"door_color_assignment":["white","black"],"door_generator_assignment":[1,0],"goal":1,"start":2,"action_noise":0.1,"location_history":"[2,6,5,2,1]","action_history":"[1,1,1,0]","door_history":"[0,0,0,1]","location_rts":"[1026,680,649,820]","trial_type":"two-door-navigation","trial_index":42,"time_elapsed":837677,"internal_node_id":"0.0-2.0-40.0"},{"group":"tri cycles (cube, non-group)","room_assignment":["green","purple","red","brown","grey","blue","pink","yellow"],"door_color_assignment":["white","black"],"door_generator_assignment":[1,0],"goal":0,"start":1,"action_noise":0.1,"location_history":"[1,5,2,6,5,2,1,0]","action_history":"[1,1,1,1,1,0,0]","door_history":"[0,0,0,0,0,1,1]","location_rts":"[1545,400,352,530,349,547,458]","trial_type":"two-door-navigation","trial_index":43,"time_elapsed":852455,"internal_node_id":"0.0-2.0-41.0"},{"group":"tri cycles (cube, non-group)","room_assignment":["green","purple","red","brown","grey","blue","pink","yellow"],"door_color_assignment":["white","black"],"door_generator_assignment":[1,0],"goal":4,"start":0,"action_noise":0.1,"location_history":"[0,3,7,3,7,6,5,2,6,5,1,0,3,4]","action_history":"[1,1,1,0,0,1,1,1,1,0,1,1,1]","door_history":"[0,0,0,1,1,0,0,0,0,1,0,0,0]","location_rts":"[1378,807,289,1115,563,409,382,493,574,1266,523,472,656]","trial_type":"two-door-navigation","trial_index":44,"time_elapsed":878049,"internal_node_id":"0.0-2.0-42.0"},{"group":"tri cycles (cube, non-group)","room_assignment":["green","purple","red","brown","grey","blue","pink","yellow"],"door_color_assignment":["white","black"],"door_generator_assignment":[1,0],"goal":6,"start":4,"action_noise":0.1,"location_history":"[4,0,3,7,3,4,0,3,4,7,6]","action_history":"[1,1,0,1,1,1,1,1,0,0]","door_history":"[0,0,1,0,0,0,0,0,1,1]","location_rts":"[1275,424,436,451,309,446,303,528,452,1289]","trial_type":"two-door-navigation","trial_index":45,"time_elapsed":897599,"internal_node_id":"0.0-2.0-43.0"},{"group":"tri cycles (cube, non-group)","room_assignment":["green","purple","red","brown","grey","blue","pink","yellow"],"door_color_assignment":["white","black"],"door_generator_assignment":[1,0],"goal":3,"start":6,"action_noise":0.1,"location_history":"[6,5,2,6,4,7,3]","action_history":"[1,1,1,0,0,1]","door_history":"[0,0,0,1,1,0]","location_rts":"[905,426,590,1019,1441,803]","trial_type":"two-door-navigation","trial_index":46,"time_elapsed":912361,"internal_node_id":"0.0-2.0-44.0"},{"group":"tri cycles (cube, non-group)","room_assignment":["green","purple","red","brown","grey","blue","pink","yellow"],"door_color_assignment":["white","black"],"door_generator_assignment":[1,0],"goal":7,"start":3,"action_noise":0.1,"location_history":"[3,4,7]","action_history":"[1,0]","door_history":"[0,1]","location_rts":"[3791,924]","trial_type":"two-door-navigation","trial_index":47,"time_elapsed":922594,"internal_node_id":"0.0-2.0-45.0"},{"group":"tri cycles (cube, non-group)","room_assignment":["green","purple","red","brown","grey","blue","pink","yellow"],"door_color_assignment":["white","black"],"door_generator_assignment":[1,0],"goal":5,"start":7,"action_noise":0.1,"location_history":"[7,3,7,6,4,0,3,4,0,3,7,3,7,6,4,7,3,7,3,4,0,3,7,3,4,0,2,1,0,2,6,5]","action_history":"[1,0,0,0,1,1,1,1,1,1,1,1,0,0,0,0,0,1,1,1,1,0,1,1,1,0,0,0,0,1,1]","door_history":"[0,1,1,1,0,0,0,0,0,0,0,0,1,1,1,1,1,0,0,0,0,1,0,0,0,1,1,1,1,0,0]","location_rts":"[1333,1001,372,652,532,353,281,307,301,496,388,358,837,328,350,294,405,260,328,408,421,377,449,302,554,720,648,380,426,648,419]","trial_type":"two-door-navigation","trial_index":48,"time_elapsed":972429,"internal_node_id":"0.0-2.0-46.0"},{"group":"tri cycles (cube, non-group)","room_assignment":["green","purple","red","brown","grey","blue","pink","yellow"],"door_color_assignment":["white","black"],"door_generator_assignment":[1,0],"goal":1,"start":5,"action_noise":0.1,"location_history":"[5,1]","action_history":"[0]","door_history":"[1]","location_rts":"[1778]","trial_type":"two-door-navigation","trial_index":49,"time_elapsed":978723,"internal_node_id":"0.0-2.0-47.0"},{"group":"tri cycles (cube, non-group)","room_assignment":["green","purple","red","brown","grey","blue","pink","yellow"],"door_color_assignment":["white","black"],"door_generator_assignment":[1,0],"goal":6,"start":1,"action_noise":0.1,"location_history":"[1,5,2,6]","action_history":"[1,1,1]","door_history":"[0,0,0]","location_rts":"[1174,307,443]","trial_type":"two-door-navigation","trial_index":50,"time_elapsed":987182,"internal_node_id":"0.0-2.0-48.0"},{"group":"tri cycles (cube, non-group)","room_assignment":["green","purple","red","brown","grey","blue","pink","yellow"],"door_color_assignment":["white","black"],"door_generator_assignment":[1,0],"goal":0,"start":6,"action_noise":0.1,"location_history":"[6,4,7,6,4,0]","action_history":"[0,0,0,0,1]","door_history":"[1,1,1,1,0]","location_rts":"[1213,355,316,305,267]","trial_type":"two-door-navigation","trial_index":51,"time_elapsed":998208,"internal_node_id":"0.0-2.0-49.0"},{"view_history":"[{\"page_index\":0,\"viewing_time\":2449}]","rt":2450,"trial_type":"instructions","trial_index":52,"time_elapsed":1001658,"internal_node_id":"0.0-3.0"},{"view_history":"[{\"page_index\":0,\"viewing_time\":2544},{\"page_index\":1,\"viewing_time\":3424}]","rt":5968,"trial_type":"instructions","trial_index":53,"time_elapsed":1008627,"internal_node_id":"0.0-4.0"},{"group":"tri cycles (cube, non-group)","fractal_assignment":["../images/gry_blk.png","../images/blu_wht.png","../images/ylw_slt.png","../images/cyn_red.png","../images/ylw_pnk.png","../images/org_blu.png","../images/grn_red.png","../images/pnk_blu.png"],"mutagen_generator_assignment":[0,1],"goal":6,"start":3,"action_noise":0.1,"location_history":"[3,7,3,4,0,3,7,3,7,6]","action_history":"[0,1,1,1,1,0,1,0,0]","mutagen_history":"[0,1,1,1,1,0,1,0,0]","location_rts":"[7280,816,753,499,419,385,613,444,21]","trial_type":"fractal-mutation","trial_index":54,"time_elapsed":1032639,"internal_node_id":"0.0-5.0-0.0"},{"group":"tri cycles (cube, non-group)","fractal_assignment":["../images/gry_blk.png","../images/blu_wht.png","../images/ylw_slt.png","../images/cyn_red.png","../images/ylw_pnk.png","../images/org_blu.png","../images/grn_red.png","../images/pnk_blu.png"],"mutagen_generator_assignment":[0,1],"goal":1,"start":6,"action_noise":0.1,"location_history":"[6,5,1]","action_history":"[0,0]","mutagen_history":"[0,0]","location_rts":"[1257,398]","trial_type":"fractal-mutation","trial_index":55,"time_elapsed":1039840,"internal_node_id":"0.0-5.0-1.0"},{"group":"tri cycles (cube, non-group)","fractal_assignment":["../images/gry_blk.png","../images/blu_wht.png","../images/ylw_slt.png","../images/cyn_red.png","../images/ylw_pnk.png","../images/org_blu.png","../images/grn_red.png","../images/pnk_blu.png"],"mutagen_generator_assignment":[0,1],"goal":2,"start":1,"action_noise":0.1,"location_history":"[1,5,2]","action_history":"[1,1]","mutagen_history":"[1,1]","location_rts":"[1556,628]","trial_type":"fractal-mutation","trial_index":56,"time_elapsed":1047603,"internal_node_id":"0.0-5.0-2.0"},{"group":"tri cycles (cube, non-group)","fractal_assignment":["../images/gry_blk.png","../images/blu_wht.png","../images/ylw_slt.png","../images/cyn_red.png","../images/ylw_pnk.png","../images/org_blu.png","../images/grn_red.png","../images/pnk_blu.png"],"mutagen_generator_assignment":[0,1],"goal":0,"start":2,"action_noise":0.1,"location_history":"[2,1,0]","action_history":"[0,0]","mutagen_history":"[0,0]","location_rts":"[1054,15]","trial_type":"fractal-mutation","trial_index":57,"time_elapsed":1054218,"internal_node_id":"0.0-5.0-3.0"},{"group":"tri cycles (cube, non-group)","fractal_assignment":["../images/gry_blk.png","../images/blu_wht.png","../images/ylw_slt.png","../images/cyn_red.png","../images/ylw_pnk.png","../images/org_blu.png","../images/grn_red.png","../images/pnk_blu.png"],"mutagen_generator_assignment":[0,1],"goal":7,"start":0,"action_noise":0.1,"location_history":"[0,3,4,0,3,4,0,2,1,5,1,5,2,1,5,1,0,2,6,5,2,6,4,7]","action_history":"[1,1,0,0,1,1,0,0,1,1,1,0,0,1,0,0,0,1,1,1,1,0,0]","mutagen_history":"[1,1,0,0,1,1,0,0,1,1,1,0,0,1,0,0,0,1,1,1,1,0,0]","location_rts":"[659,1164,1323,502,753,438,544,441,491,684,1024,638,502,486,476,321,746,459,561,430,449,400,332]","trial_type":"fractal-mutation","trial_index":58,"time_elapsed":1095142,"internal_node_id":"0.0-5.0-4.0"},{"group":"tri cycles (cube, non-group)","fractal_assignment":["../images/gry_blk.png","../images/blu_wht.png","../images/ylw_slt.png","../images/cyn_red.png","../images/ylw_pnk.png","../images/org_blu.png","../images/grn_red.png","../images/pnk_blu.png"],"mutagen_generator_assignment":[0,1],"goal":5,"start":7,"action_noise":0.1,"location_history":"[7,3,4,0,2,6,5]","action_history":"[1,1,1,0,0,1]","mutagen_history":"[1,1,1,0,0,1]","location_rts":"[1820,456,446,315,497,542]","trial_type":"fractal-mutation","trial_index":59,"time_elapsed":1108859,"internal_node_id":"0.0-5.0-5.0"},{"group":"tri cycles (cube, non-group)","fractal_assignment":["../images/gry_blk.png","../images/blu_wht.png","../images/ylw_slt.png","../images/cyn_red.png","../images/ylw_pnk.png","../images/org_blu.png","../images/grn_red.png","../images/pnk_blu.png"],"mutagen_generator_assignment":[0,1],"goal":4,"start":5,"action_noise":0.1,"location_history":"[5,2,1,5,2,6,4]","action_history":"[1,0,1,1,1,1]","mutagen_history":"[1,0,1,1,1,1]","location_rts":"[1553,407,417,743,342,458]","trial_type":"fractal-mutation","trial_index":60,"time_elapsed":1122441,"internal_node_id":"0.0-5.0-6.0"},{"group":"tri cycles (cube, non-group)","fractal_assignment":["../images/gry_blk.png","../images/blu_wht.png","../images/ylw_slt.png","../images/cyn_red.png","../images/ylw_pnk.png","../images/org_blu.png","../images/grn_red.png","../images/pnk_blu.png"],"mutagen_generator_assignment":[0,1],"goal":2,"start":4,"action_noise":0.1,"location_history":"[4,7,6,4,7,6,4,0,2]","action_history":"[0,0,1,0,0,0,0,0]","mutagen_history":"[0,0,1,0,0,0,0,0]","location_rts":"[1397,460,490,568,412,440,518,481]","trial_type":"fractal-mutation","trial_index":61,"time_elapsed":1138887,"internal_node_id":"0.0-5.0-7.0"},{"group":"tri cycles (cube, non-group)","fractal_assignment":["../images/gry_blk.png","../images/blu_wht.png","../images/ylw_slt.png","../images/cyn_red.png","../images/ylw_pnk.png","../images/org_blu.png","../images/grn_red.png","../images/pnk_blu.png"],"mutagen_generator_assignment":[0,1],"goal":3,"start":2,"action_noise":0.1,"location_history":"[2,6,5,1,0,2,1,0,3]","action_history":"[1,1,0,0,0,0,0,1]","mutagen_history":"[1,1,0,0,0,0,0,1]","location_rts":"[2005,559,707,389,309,350,406,364]","trial_type":"fractal-mutation","trial_index":62,"time_elapsed":1155656,"internal_node_id":"0.0-5.0-8.0"},{"group":"tri cycles (cube, non-group)","fractal_assignment":["../images/gry_blk.png","../images/blu_wht.png","../images/ylw_slt.png","../images/cyn_red.png","../images/ylw_pnk.png","../images/org_blu.png","../images/grn_red.png","../images/pnk_blu.png"],"mutagen_generator_assignment":[0,1],"goal":7,"start":3,"action_noise":0.1,"location_history":"[3,7]","action_history":"[0]","mutagen_history":"[0]","location_rts":"[1390]","trial_type":"fractal-mutation","trial_index":63,"time_elapsed":1161567,"internal_node_id":"0.0-5.0-9.0"},{"group":"tri cycles (cube, non-group)","fractal_assignment":["../images/gry_blk.png","../images/blu_wht.png","../images/ylw_slt.png","../images/cyn_red.png","../images/ylw_pnk.png","../images/org_blu.png","../images/grn_red.png","../images/pnk_blu.png"],"mutagen_generator_assignment":[0,1],"goal":0,"start":7,"action_noise":0.1,"location_history":"[7,6,4,7,6,4,7,6,4,7,6,4,7,6,5,1,5,1,0]","action_history":"[0,0,0,0,1,0,0,0,1,1,0,0,0,1,0,1,0,0]","mutagen_history":"[0,0,0,0,1,0,0,0,1,1,0,0,0,1,0,1,0,0]","location_rts":"[1262,495,445,386,908,365,376,436,734,583,361,523,349,10,495,396,367,343]","trial_type":"fractal-mutation","trial_index":64,"time_elapsed":1192272,"internal_node_id":"0.0-5.0-10.0"},{"group":"tri cycles (cube, non-group)","fractal_assignment":["../images/gry_blk.png","../images/blu_wht.png","../images/ylw_slt.png","../images/cyn_red.png","../images/ylw_pnk.png","../images/org_blu.png","../images/grn_red.png","../images/pnk_blu.png"],"mutagen_generator_assignment":[0,1],"goal":1,"start":0,"action_noise":0.1,"location_history":"[0,2,6,5,2,6,5,2,1]","action_history":"[0,0,1,1,1,1,0,0]","mutagen_history":"[0,0,1,1,1,1,0,0]","location_rts":"[2000,422,291,495,331,435,345,429]","trial_type":"fractal-mutation","trial_index":65,"time_elapsed":1208702,"internal_node_id":"0.0-5.0-11.0"},{"group":"tri cycles (cube, non-group)","fractal_assignment":["../images/gry_blk.png","../images/blu_wht.png","../images/ylw_slt.png","../images/cyn_red.png","../images/ylw_pnk.png","../images/org_blu.png","../images/grn_red.png","../images/pnk_blu.png"],"mutagen_generator_assignment":[0,1],"goal":6,"start":1,"action_noise":0.1,"location_history":"[1,0,3,4,0,3,7,3,4,7,6]","action_history":"[1,1,1,1,1,0,1,1,0,0]","mutagen_history":"[1,1,1,1,1,0,1,1,0,0]","location_rts":"[1416,495,589,526,489,416,581,720,372,438]","trial_type":"fractal-mutation","trial_index":66,"time_elapsed":1228526,"internal_node_id":"0.0-5.0-12.0"},{"group":"tri cycles (cube, non-group)","fractal_assignment":["../images/gry_blk.png","../images/blu_wht.png","../images/ylw_slt.png","../images/cyn_red.png","../images/ylw_pnk.png","../images/org_blu.png","../images/grn_red.png","../images/pnk_blu.png"],"mutagen_generator_assignment":[0,1],"goal":4,"start":6,"action_noise":0.1,"location_history":"[6,4]","action_history":"[1]","mutagen_history":"[1]","location_rts":"[1510]","trial_type":"fractal-mutation","trial_index":67,"time_elapsed":1234578,"internal_node_id":"0.0-5.0-13.0"},{"group":"tri cycles (cube, non-group)","fractal_assignment":["../images/gry_blk.png","../images/blu_wht.png","../images/ylw_slt.png","../images/cyn_red.png","../images/ylw_pnk.png","../images/org_blu.png","../images/grn_red.png","../images/pnk_blu.png"],"mutagen_generator_assignment":[0,1],"goal":5,"start":4,"action_noise":0.1,"location_history":"[4,7,3,7,3,7,6,5]","action_history":"[0,0,0,1,0,0,1]","mutagen_history":"[0,0,0,1,0,0,1]","location_rts":"[1014,794,451,405,650,450,822]","trial_type":"fractal-mutation","trial_index":68,"time_elapsed":1249826,"internal_node_id":"0.0-5.0-14.0"},{"group":"tri cycles (cube, non-group)","fractal_assignment":["../images/gry_blk.png","../images/blu_wht.png","../images/ylw_slt.png","../images/cyn_red.png","../images/ylw_pnk.png","../images/org_blu.png","../images/grn_red.png","../images/pnk_blu.png"],"mutagen_generator_assignment":[0,1],"goal":4,"start":5,"action_noise":0.1,"location_history":"[5,2,6,5,2,1,0,3,7,6,4]","action_history":"[1,1,1,1,0,1,1,0,0,0]","mutagen_history":"[1,1,1,1,0,1,1,0,0,0]","location_rts":"[1207,595,395,563,344,431,415,528,341,404]","trial_type":"fractal-mutation","trial_index":69,"time_elapsed":1268799,"internal_node_id":"0.0-5.0-15.0"},{"group":"tri cycles (cube, non-group)","fractal_assignment":["../images/gry_blk.png","../images/blu_wht.png","../images/ylw_slt.png","../images/cyn_red.png","../images/ylw_pnk.png","../images/org_blu.png","../images/grn_red.png","../images/pnk_blu.png"],"mutagen_generator_assignment":[0,1],"goal":0,"start":4,"action_noise":0.1,"location_history":"[4,7,6,4,7,6,4,7,6,5,1,0]","action_history":"[0,0,0,0,0,0,0,0,1,0,0]","mutagen_history":"[0,0,0,0,0,0,0,0,1,0,0]","location_rts":"[1104,484,318,357,338,362,649,664,394,787,561]","trial_type":"fractal-mutation","trial_index":70,"time_elapsed":1289512,"internal_node_id":"0.0-5.0-16.0"},{"group":"tri cycles (cube, non-group)","fractal_assignment":["../images/gry_blk.png","../images/blu_wht.png","../images/ylw_slt.png","../images/cyn_red.png","../images/ylw_pnk.png","../images/org_blu.png","../images/grn_red.png","../images/pnk_blu.png"],"mutagen_generator_assignment":[0,1],"goal":7,"start":0,"action_noise":0.1,"location_history":"[0,3,7]","action_history":"[1,0]","mutagen_history":"[1,0]","location_rts":"[1432,1395]","trial_type":"fractal-mutation","trial_index":71,"time_elapsed":1297886,"internal_node_id":"0.0-5.0-17.0"},{"group":"tri cycles (cube, non-group)","fractal_assignment":["../images/gry_blk.png","../images/blu_wht.png","../images/ylw_slt.png","../images/cyn_red.png","../images/ylw_pnk.png","../images/org_blu.png","../images/grn_red.png","../images/pnk_blu.png"],"mutagen_generator_assignment":[0,1],"goal":2,"start":7,"action_noise":0.1,"location_history":"[7,6,5,1,0,2]","action_history":"[0,1,0,0,0]","mutagen_history":"[0,1,0,0,0]","location_rts":"[1406,970,554,484,1040]","trial_type":"fractal-mutation","trial_index":72,"time_elapsed":1310947,"internal_node_id":"0.0-5.0-18.0"},{"group":"tri cycles (cube, non-group)","fractal_assignment":["../images/gry_blk.png","../images/blu_wht.png","../images/ylw_slt.png","../images/cyn_red.png","../images/ylw_pnk.png","../images/org_blu.png","../images/grn_red.png","../images/pnk_blu.png"],"mutagen_generator_assignment":[0,1],"goal":1,"start":2,"action_noise":0.1,"location_history":"[2,1]","action_history":"[0]","mutagen_history":"[0]","location_rts":"[1079]","trial_type":"fractal-mutation","trial_index":73,"time_elapsed":1316562,"internal_node_id":"0.0-5.0-19.0"},{"group":"tri cycles (cube, non-group)","fractal_assignment":["../images/gry_blk.png","../images/blu_wht.png","../images/ylw_slt.png","../images/cyn_red.png","../images/ylw_pnk.png","../images/org_blu.png","../images/grn_red.png","../images/pnk_blu.png"],"mutagen_generator_assignment":[0,1],"goal":3,"start":1,"action_noise":0.1,"location_history":"[1,5,2,6,4,0,2,6,5,2,1,5,1,5,2,6,4,7,3]","action_history":"[1,1,1,0,1,0,1,1,1,0,1,1,1,1,1,0,0,0]","mutagen_history":"[1,1,1,0,1,0,1,1,1,0,1,1,1,1,1,0,0,0]","location_rts":"[1186,502,483,781,347,725,375,419,494,928,715,1523,486,1067,313,409,502,492]","trial_type":"fractal-mutation","trial_index":74,"time_elapsed":1350307,"internal_node_id":"0.0-5.0-20.0"},{"group":"tri cycles (cube, non-group)","fractal_assignment":["../images/gry_blk.png","../images/blu_wht.png","../images/ylw_slt.png","../images/cyn_red.png","../images/ylw_pnk.png","../images/org_blu.png","../images/grn_red.png","../images/pnk_blu.png"],"mutagen_generator_assignment":[0,1],"goal":6,"start":3,"action_noise":0.1,"location_history":"[3,7,3,4,7,3,7,6]","action_history":"[1,1,1,0,1,1,1]","mutagen_history":"[1,1,1,0,1,1,1]","location_rts":"[1199,1154,698,420,302,676,453]","trial_type":"fractal-mutation","trial_index":75,"time_elapsed":1365896,"internal_node_id":"0.0-5.0-21.0"},{"group":"tri cycles (cube, non-group)","fractal_assignment":["../images/gry_blk.png","../images/blu_wht.png","../images/ylw_slt.png","../images/cyn_red.png","../images/ylw_pnk.png","../images/org_blu.png","../images/grn_red.png","../images/pnk_blu.png"],"mutagen_generator_assignment":[0,1],"goal":5,"start":6,"action_noise":0.1,"location_history":"[6,4,0,3,4,7,3,7,6,4,0,2,1,0,2,6,5]","action_history":"[0,1,1,1,0,0,0,0,1,1,0,0,0,0,1,1]","mutagen_history":"[0,1,1,1,0,0,0,0,1,1,0,0,0,0,1,1]","location_rts":"[950,1447,480,486,511,430,371,460,557,1073,1187,383,362,374,626,751]","trial_type":"fractal-mutation","trial_index":76,"time_elapsed":1396217,"internal_node_id":"0.0-5.0-22.0"},{"group":"tri cycles (cube, non-group)","fractal_assignment":["../images/gry_blk.png","../images/blu_wht.png","../images/ylw_slt.png","../images/cyn_red.png","../images/ylw_pnk.png","../images/org_blu.png","../images/grn_red.png","../images/pnk_blu.png"],"mutagen_generator_assignment":[0,1],"goal":3,"start":5,"action_noise":0.1,"location_history":"[5,2,6,5,1,5,2,6,5,2,6,4,0,3]","action_history":"[1,1,1,0,1,1,1,1,1,0,0,1,1]","mutagen_history":"[1,1,1,0,1,1,1,1,1,0,0,1,1]","location_rts":"[1355,884,483,540,492,419,453,317,292,326,973,449,498]","trial_type":"fractal-mutation","trial_index":77,"time_elapsed":1420535,"internal_node_id":"0.0-5.0-23.0"},{"group":"tri cycles (cube, non-group)","fractal_assignment":["../images/gry_blk.png","../images/blu_wht.png","../images/ylw_slt.png","../images/cyn_red.png","../images/ylw_pnk.png","../images/org_blu.png","../images/grn_red.png","../images/pnk_blu.png"],"mutagen_generator_assignment":[0,1],"goal":0,"start":3,"action_noise":0.1,"location_history":"[3,7,3,7,3,7,6,4,0]","action_history":"[0,0,0,1,0,0,0,1]","mutagen_history":"[0,0,0,1,0,0,0,1]","location_rts":"[1224,500,506,547,446,424,842,826]","trial_type":"fractal-mutation","trial_index":78,"time_elapsed":1437530,"internal_node_id":"0.0-5.0-24.0"},{"group":"tri cycles (cube, non-group)","fractal_assignment":["../images/gry_blk.png","../images/blu_wht.png","../images/ylw_slt.png","../images/cyn_red.png","../images/ylw_pnk.png","../images/org_blu.png","../images/grn_red.png","../images/pnk_blu.png"],"mutagen_generator_assignment":[0,1],"goal":7,"start":0,"action_noise":0.1,"location_history":"[0,3,7]","action_history":"[1,0]","mutagen_history":"[1,0]","location_rts":"[1227,876]","trial_type":"fractal-mutation","trial_index":79,"time_elapsed":1445182,"internal_node_id":"0.0-5.0-25.0"},{"group":"tri cycles (cube, non-group)","fractal_assignment":["../images/gry_blk.png","../images/blu_wht.png","../images/ylw_slt.png","../images/cyn_red.png","../images/ylw_pnk.png","../images/org_blu.png","../images/grn_red.png","../images/pnk_blu.png"],"mutagen_generator_assignment":[0,1],"goal":2,"start":7,"action_noise":0.1,"location_history":"[7,6,4,0,2]","action_history":"[0,0,1,0]","mutagen_history":"[0,0,1,0]","location_rts":"[1073,466,910,725]","trial_type":"fractal-mutation","trial_index":80,"time_elapsed":1455941,"internal_node_id":"0.0-5.0-26.0"},{"group":"tri cycles (cube, non-group)","fractal_assignment":["../images/gry_blk.png","../images/blu_wht.png","../images/ylw_slt.png","../images/cyn_red.png","../images/ylw_pnk.png","../images/org_blu.png","../images/grn_red.png","../images/pnk_blu.png"],"mutagen_generator_assignment":[0,1],"goal":1,"start":2,"action_noise":0.1,"location_history":"[2,6,5,2,6,5,1]","action_history":"[1,1,1,1,1,0]","mutagen_history":"[1,1,1,1,1,0]","location_rts":"[2001,430,491,450,1037,387]","trial_type":"fractal-mutation","trial_index":81,"time_elapsed":1470374,"internal_node_id":"0.0-5.0-27.0"},{"group":"tri cycles (cube, non-group)","fractal_assignment":["../images/gry_blk.png","../images/blu_wht.png","../images/ylw_slt.png","../images/cyn_red.png","../images/ylw_pnk.png","../images/org_blu.png","../images/grn_red.png","../images/pnk_blu.png"],"mutagen_generator_assignment":[0,1],"goal":5,"start":1,"action_noise":0.1,"location_history":"[1,5]","action_history":"[1]","mutagen_history":"[1]","location_rts":"[1443]","trial_type":"fractal-mutation","trial_index":82,"time_elapsed":1476342,"internal_node_id":"0.0-5.0-28.0"},{"group":"tri cycles (cube, non-group)","fractal_assignment":["../images/gry_blk.png","../images/blu_wht.png","../images/ylw_slt.png","../images/cyn_red.png","../images/ylw_pnk.png","../images/org_blu.png","../images/grn_red.png","../images/pnk_blu.png"],"mutagen_generator_assignment":[0,1],"goal":4,"start":5,"action_noise":0.1,"location_history":"[5,1,0,3,4]","action_history":"[0,0,1,1]","mutagen_history":"[0,0,1,1]","location_rts":"[1937,868,689,505]","trial_type":"fractal-mutation","trial_index":83,"time_elapsed":1487948,"internal_node_id":"0.0-5.0-29.0"},{"group":"tri cycles (cube, non-group)","fractal_assignment":["../images/gry_blk.png","../images/blu_wht.png","../images/ylw_slt.png","../images/cyn_red.png","../images/ylw_pnk.png","../images/org_blu.png","../images/grn_red.png","../images/pnk_blu.png"],"mutagen_generator_assignment":[0,1],"goal":6,"start":4,"action_noise":0.1,"location_history":"[4,0,3,4,7,6]","action_history":"[1,1,1,0,0]","mutagen_history":"[1,1,1,0,0]","location_rts":"[1172,540,552,461,621]","trial_type":"fractal-mutation","trial_index":84,"time_elapsed":1499910,"internal_node_id":"0.0-5.0-30.0"},{"group":"tri cycles (cube, non-group)","fractal_assignment":["../images/gry_blk.png","../images/blu_wht.png","../images/ylw_slt.png","../images/cyn_red.png","../images/ylw_pnk.png","../images/org_blu.png","../images/grn_red.png","../images/pnk_blu.png"],"mutagen_generator_assignment":[0,1],"goal":4,"start":6,"action_noise":0.1,"location_history":"[6,5,1,0,2,1,5,2,1,5,2,6,5,2,1,0,2,1,0,3,4]","action_history":"[1,0,0,0,0,1,1,0,0,0,1,1,1,0,0,0,0,0,1,1]","mutagen_history":"[1,0,0,0,0,1,1,0,0,0,1,1,1,0,0,0,0,0,1,1]","location_rts":"[922,1307,566,428,429,508,591,765,1213,849,398,740,533,515,514,489,475,564,878,1075]","trial_type":"fractal-mutation","trial_index":85,"time_elapsed":1537646,"internal_node_id":"0.0-5.0-31.0"},{"group":"tri cycles (cube, non-group)","fractal_assignment":["../images/gry_blk.png","../images/blu_wht.png","../images/ylw_slt.png","../images/cyn_red.png","../images/ylw_pnk.png","../images/org_blu.png","../images/grn_red.png","../images/pnk_blu.png"],"mutagen_generator_assignment":[0,1],"goal":2,"start":4,"action_noise":0.1,"location_history":"[4,7,6,4,0,2]","action_history":"[0,0,0,1,0]","mutagen_history":"[0,0,0,1,0]","location_rts":"[1063,649,1005,1133,666]","trial_type":"fractal-mutation","trial_index":86,"time_elapsed":1550753,"internal_node_id":"0.0-5.0-32.0"},{"group":"tri cycles (cube, non-group)","fractal_assignment":["../images/gry_blk.png","../images/blu_wht.png","../images/ylw_slt.png","../images/cyn_red.png","../images/ylw_pnk.png","../images/org_blu.png","../images/grn_red.png","../images/pnk_blu.png"],"mutagen_generator_assignment":[0,1],"goal":0,"start":2,"action_noise":0.1,"location_history":"[2,1,0]","action_history":"[0,0]","mutagen_history":"[0,0]","location_rts":"[1035,489]","trial_type":"fractal-mutation","trial_index":87,"time_elapsed":1557811,"internal_node_id":"0.0-5.0-33.0"},{"group":"tri cycles (cube, non-group)","fractal_assignment":["../images/gry_blk.png","../images/blu_wht.png","../images/ylw_slt.png","../images/cyn_red.png","../images/ylw_pnk.png","../images/org_blu.png","../images/grn_red.png","../images/pnk_blu.png"],"mutagen_generator_assignment":[0,1],"goal":5,"start":0,"action_noise":0.1,"location_history":"[0,3,4,0,2,1,0,2,6,5]","action_history":"[1,1,1,0,0,0,0,1,1]","mutagen_history":"[1,1,1,0,0,0,0,1,1]","location_rts":"[1432,576,538,451,507,383,448,286,676]","trial_type":"fractal-mutation","trial_index":88,"time_elapsed":1575809,"internal_node_id":"0.0-5.0-34.0"},{"group":"tri cycles (cube, non-group)","fractal_assignment":["../images/gry_blk.png","../images/blu_wht.png","../images/ylw_slt.png","../images/cyn_red.png","../images/ylw_pnk.png","../images/org_blu.png","../images/grn_red.png","../images/pnk_blu.png"],"mutagen_generator_assignment":[0,1],"goal":1,"start":5,"action_noise":0.1,"location_history":"[5,1]","action_history":"[0]","mutagen_history":"[0]","location_rts":"[952]","trial_type":"fractal-mutation","trial_index":89,"time_elapsed":1581288,"internal_node_id":"0.0-5.0-35.0"},{"group":"tri cycles (cube, non-group)","fractal_assignment":["../images/gry_blk.png","../images/blu_wht.png","../images/ylw_slt.png","../images/cyn_red.png","../images/ylw_pnk.png","../images/org_blu.png","../images/grn_red.png","../images/pnk_blu.png"],"mutagen_generator_assignment":[0,1],"goal":7,"start":1,"action_noise":0.1,"location_history":"[1,5,2,1,5,2,1,0,2,1,5,2,1,0,2,1,5,2,1,0,3,4,7]","action_history":"[1,1,0,1,1,1,0,0,0,1,1,0,0,0,0,1,1,0,0,1,1,0]","mutagen_history":"[1,1,0,1,1,1,0,0,0,1,1,0,0,0,0,1,1,0,0,1,1,0]","location_rts":"[1497,809,678,454,1023,701,735,301,898,919,845,414,308,385,743,482,130,553,658,765,940,943]","trial_type":"fractal-mutation","trial_index":90,"time_elapsed":1622516,"internal_node_id":"0.0-5.0-36.0"},{"group":"tri cycles (cube, non-group)","fractal_assignment":["../images/gry_blk.png","../images/blu_wht.png","../images/ylw_slt.png","../images/cyn_red.png","../images/ylw_pnk.png","../images/org_blu.png","../images/grn_red.png","../images/pnk_blu.png"],"mutagen_generator_assignment":[0,1],"goal":3,"start":7,"action_noise":0.1,"location_history":"[7,3]","action_history":"[1]","mutagen_history":"[1]","location_rts":"[1287]","trial_type":"fractal-mutation","trial_index":91,"time_elapsed":1628337,"internal_node_id":"0.0-5.0-37.0"},{"group":"tri cycles (cube, non-group)","fractal_assignment":["../images/gry_blk.png","../images/blu_wht.png","../images/ylw_slt.png","../images/cyn_red.png","../images/ylw_pnk.png","../images/org_blu.png","../images/grn_red.png","../images/pnk_blu.png"],"mutagen_generator_assignment":[0,1],"goal":6,"start":3,"action_noise":0.1,"location_history":"[3,7,6]","action_history":"[1,0]","mutagen_history":"[1,0]","location_rts":"[2427,765]","trial_type":"fractal-mutation","trial_index":92,"time_elapsed":1637075,"internal_node_id":"0.0-5.0-38.0"},{"group":"tri cycles (cube, non-group)","fractal_assignment":["../images/gry_blk.png","../images/blu_wht.png","../images/ylw_slt.png","../images/cyn_red.png","../images/ylw_pnk.png","../images/org_blu.png","../images/grn_red.png","../images/pnk_blu.png"],"mutagen_generator_assignment":[0,1],"goal":2,"start":6,"action_noise":0.1,"location_history":"[6,4,7,3,7,6,4,7,6,5,2]","action_history":"[0,0,1,0,0,0,0,0,1,1]","mutagen_history":"[0,0,1,0,0,0,0,0,1,1]","location_rts":"[953,583,652,868,524,445,560,620,406,1010]","trial_type":"fractal-mutation","trial_index":93,"time_elapsed":1657404,"internal_node_id":"0.0-5.0-39.0"},{"group":"tri cycles (cube, non-group)","fractal_assignment":["../images/gry_blk.png","../images/blu_wht.png","../images/ylw_slt.png","../images/cyn_red.png","../images/ylw_pnk.png","../images/org_blu.png","../images/grn_red.png","../images/pnk_blu.png"],"mutagen_generator_assignment":[0,1],"goal":1,"start":2,"action_noise":0.1,"location_history":"[2,1]","action_history":"[0]","mutagen_history":"[0]","location_rts":"[930]","trial_type":"fractal-mutation","trial_index":94,"time_elapsed":1662861,"internal_node_id":"0.0-5.0-40.0"},{"group":"tri cycles (cube, non-group)","fractal_assignment":["../images/gry_blk.png","../images/blu_wht.png","../images/ylw_slt.png","../images/cyn_red.png","../images/ylw_pnk.png","../images/org_blu.png","../images/grn_red.png","../images/pnk_blu.png"],"mutagen_generator_assignment":[0,1],"goal":0,"start":1,"action_noise":0.1,"location_history":"[1,5,2,6,4,7,3,7,6,5,1,0]","action_history":"[0,0,1,0,1,1,0,0,1,0,0]","mutagen_history":"[0,0,1,0,1,1,0,0,1,0,0]","location_rts":"[1179,482,548,995,896,578,953,1523,604,710,493]","trial_type":"fractal-mutation","trial_index":95,"time_elapsed":1686575,"internal_node_id":"0.0-5.0-41.0"},{"group":"tri cycles (cube, non-group)","fractal_assignment":["../images/gry_blk.png","../images/blu_wht.png","../images/ylw_slt.png","../images/cyn_red.png","../images/ylw_pnk.png","../images/org_blu.png","../images/grn_red.png","../images/pnk_blu.png"],"mutagen_generator_assignment":[0,1],"goal":4,"start":0,"action_noise":0.1,"location_history":"[0,3,4]","action_history":"[1,1]","mutagen_history":"[1,1]","location_rts":"[1032,613]","trial_type":"fractal-mutation","trial_index":96,"time_elapsed":1693775,"internal_node_id":"0.0-5.0-42.0"},{"group":"tri cycles (cube, non-group)","fractal_assignment":["../images/gry_blk.png","../images/blu_wht.png","../images/ylw_slt.png","../images/cyn_red.png","../images/ylw_pnk.png","../images/org_blu.png","../images/grn_red.png","../images/pnk_blu.png"],"mutagen_generator_assignment":[0,1],"goal":6,"start":4,"action_noise":0.1,"location_history":"[4,7,6]","action_history":"[0,0]","mutagen_history":"[0,0]","location_rts":"[1391,562]","trial_type":"fractal-mutation","trial_index":97,"time_elapsed":1701272,"internal_node_id":"0.0-5.0-43.0"},{"group":"tri cycles (cube, non-group)","fractal_assignment":["../images/gry_blk.png","../images/blu_wht.png","../images/ylw_slt.png","../images/cyn_red.png","../images/ylw_pnk.png","../images/org_blu.png","../images/grn_red.png","../images/pnk_blu.png"],"mutagen_generator_assignment":[0,1],"goal":3,"start":6,"action_noise":0.1,"location_history":"[6,5,2,1,0,3]","action_history":"[1,1,0,0,1]","mutagen_history":"[1,1,0,0,1]","location_rts":"[1664,1830,787,588,421]","trial_type":"fractal-mutation","trial_index":98,"time_elapsed":1715198,"internal_node_id":"0.0-5.0-44.0"},{"group":"tri cycles (cube, non-group)","fractal_assignment":["../images/gry_blk.png","../images/blu_wht.png","../images/ylw_slt.png","../images/cyn_red.png","../images/ylw_pnk.png","../images/org_blu.png","../images/grn_red.png","../images/pnk_blu.png"],"mutagen_generator_assignment":[0,1],"goal":7,"start":3,"action_noise":0.1,"location_history":"[3,7]","action_history":"[0]","mutagen_history":"[0]","location_rts":"[4291]","trial_type":"fractal-mutation","trial_index":99,"time_elapsed":1724010,"internal_node_id":"0.0-5.0-45.0"},{"group":"tri cycles (cube, non-group)","fractal_assignment":["../images/gry_blk.png","../images/blu_wht.png","../images/ylw_slt.png","../images/cyn_red.png","../images/ylw_pnk.png","../images/org_blu.png","../images/grn_red.png","../images/pnk_blu.png"],"mutagen_generator_assignment":[0,1],"goal":5,"start":7,"action_noise":0.1,"location_history":"[7,3,4,0,2,1,0,2,1,0,3,4,0,2,1,0,2,1,0,3,4,0,2,6,4,0,2,6,5]","action_history":"[1,1,1,0,0,0,0,0,1,1,1,1,0,0,0,0,0,0,1,1,1,0,0,0,1,0,1,1]","mutagen_history":"[1,1,1,0,0,0,0,0,1,1,1,1,0,0,0,0,0,0,1,1,1,0,0,0,1,0,1,1]","location_rts":"[4821,239,584,367,415,492,468,445,487,535,780,601,1767,421,463,374,340,1068,78,426,430,324,356,677,550,318,388,826]","trial_type":"fractal-mutation","trial_index":100,"time_elapsed":1775179,"internal_node_id":"0.0-5.0-46.0"},{"group":"tri cycles (cube, non-group)","fractal_assignment":["../images/gry_blk.png","../images/blu_wht.png","../images/ylw_slt.png","../images/cyn_red.png","../images/ylw_pnk.png","../images/org_blu.png","../images/grn_red.png","../images/pnk_blu.png"],"mutagen_generator_assignment":[0,1],"goal":1,"start":5,"action_noise":0.1,"location_history":"[5,1]","action_history":"[0]","mutagen_history":"[0]","location_rts":"[3014]","trial_type":"fractal-mutation","trial_index":101,"time_elapsed":1782719,"internal_node_id":"0.0-5.0-47.0"},{"group":"tri cycles (cube, non-group)","fractal_assignment":["../images/gry_blk.png","../images/blu_wht.png","../images/ylw_slt.png","../images/cyn_red.png","../images/ylw_pnk.png","../images/org_blu.png","../images/grn_red.png","../images/pnk_blu.png"],"mutagen_generator_assignment":[0,1],"goal":6,"start":1,"action_noise":0.1,"location_history":"[1,0,3,4,0,2,1,0,2,6]","action_history":"[1,1,0,1,0,0,0,0,1]","mutagen_history":"[1,1,0,1,0,0,0,0,1]","location_rts":"[1492,418,650,397,459,382,356,408,395]","trial_type":"fractal-mutation","trial_index":102,"time_elapsed":1800406,"internal_node_id":"0.0-5.0-48.0"},{"group":"tri cycles (cube, non-group)","fractal_assignment":["../images/gry_blk.png","../images/blu_wht.png","../images/ylw_slt.png","../images/cyn_red.png","../images/ylw_pnk.png","../images/org_blu.png","../images/grn_red.png","../images/pnk_blu.png"],"mutagen_generator_assignment":[0,1],"goal":0,"start":6,"action_noise":0.1,"location_history":"[6,4,7,6,4,7,6,5,2,1,0]","action_history":"[0,0,0,0,0,0,1,0,0,0]","mutagen_history":"[0,0,0,0,0,0,1,0,0,0]","location_rts":"[859,390,415,363,480,1308,1633,492,459,584]","trial_type":"fractal-mutation","trial_index":103,"time_elapsed":1821096,"internal_node_id":"0.0-5.0-49.0"},{"view_history":"[{\"page_index\":0,\"viewing_time\":592370}]","rt":592370,"trial_type":"instructions","trial_index":104,"time_elapsed":2414466,"internal_node_id":"0.0-6.0"},{"rt":4067,"responses":"{\"Q0\":\"\"}","trial_type":"survey-text","trial_index":105,"time_elapsed":2419542,"internal_node_id":"0.0-7.0"}]