[{"view_history":"[{\"page_index\":0,\"viewing_time\":10037},{\"page_index\":1,\"viewing_time\":2790}]","rt":12830,"trial_type":"instructions","trial_index":0,"time_elapsed":12832,"internal_node_id":"0.0-0.0"},{"view_history":"[{\"page_index\":0,\"viewing_time\":1391},{\"page_index\":1,\"viewing_time\":1024}]","rt":2415,"trial_type":"instructions","trial_index":1,"time_elapsed":16249,"internal_node_id":"0.0-1.0"},{"group":"square cycles (cube, non-group)","room_assignment":["red","purple","yellow","blue","brown","green","pink","grey"],"door_color_assignment":["black","white"],"door_generator_assignment":[1,0],"goal":6,"start":3,"action_noise":0.1,"location_history":"[3,0,1,2,3,0,1,0,1,2,3,0,1,0,4,5,4,5,4,7,6]","action_history":"[0,0,1,0,0,0,1,0,0,0,0,0,1,1,1,0,0,0,0,0]","door_history":"[1,1,0,1,1,1,0,1,1,1,1,1,0,0,0,1,1,1,1,1]","location_rts":"[818,342,388,332,309,263,315,331,3215,330,325,408,337,225,391,305,390,300,332,1069]","trial_type":"two-door-navigation","trial_index":2,"time_elapsed":51215,"internal_node_id":"0.0-2.0-0.0"},{"group":"square cycles (cube, non-group)","room_assignment":["red","purple","yellow","blue","brown","green","pink","grey"],"door_color_assignment":["black","white"],"door_generator_assignment":[1,0],"goal":1,"start":6,"action_noise":0.1,"location_history":"[6,5,1]","action_history":"[0,1]","door_history":"[1,0]","location_rts":"[433,398]","trial_type":"two-door-navigation","trial_index":3,"time_elapsed":57626,"internal_node_id":"0.0-2.0-1.0"},{"group":"square cycles (cube, non-group)","room_assignment":["red","purple","yellow","blue","brown","green","pink","grey"],"door_color_assignment":["black","white"],"door_generator_assignment":[1,0],"goal":2,"start":1,"action_noise":0.1,"location_history":"[1,0,1,0,1,2]","action_history":"[1,0,0,0,0]","door_history":"[0,1,1,1,1]","location_rts":"[2407,362,310,353,253]","trial_type":"two-door-navigation","trial_index":4,"time_elapsed":70272,"internal_node_id":"0.0-2.0-2.0"},{"group":"square cycles (cube, non-group)","room_assignment":["red","purple","yellow","blue","brown","green","pink","grey"],"door_color_assignment":["black","white"],"door_generator_assignment":[1,0],"goal":0,"start":2,"action_noise":0.1,"location_history":"[2,3,2,3,0]","action_history":"[1,0,0,0]","door_history":"[0,1,1,1]","location_rts":"[616,310,236,296]","trial_type":"two-door-navigation","trial_index":5,"time_elapsed":79409,"internal_node_id":"0.0-2.0-3.0"},{"group":"square cycles (cube, non-group)","room_assignment":["red","purple","yellow","blue","brown","green","pink","grey"],"door_color_assignment":["black","white"],"door_generator_assignment":[1,0],"goal":7,"start":0,"action_noise":0.1,"location_history":"[0,4,7]","action_history":"[1,0]","door_history":"[0,1]","location_rts":"[825,1044]","trial_type":"two-door-navigation","trial_index":6,"time_elapsed":86937,"internal_node_id":"0.0-2.0-4.0"},{"group":"square cycles (cube, non-group)","room_assignment":["red","purple","yellow","blue","brown","green","pink","grey"],"door_color_assignment":["black","white"],"door_generator_assignment":[1,0],"goal":5,"start":7,"action_noise":0.1,"location_history":"[7,3,0,1,2,6,5]","action_history":"[1,0,0,0,0,0]","door_history":"[0,1,1,1,1,1]","location_rts":"[16517,364,303,331,326,331]","trial_type":"two-door-navigation","trial_index":7,"time_elapsed":114900,"internal_node_id":"0.0-2.0-5.0"},{"group":"square cycles (cube, non-group)","room_assignment":["red","purple","yellow","blue","brown","green","pink","grey"],"door_color_assignment":["black","white"],"door_generator_assignment":[1,0],"goal":4,"start":5,"action_noise":0.1,"location_history":"[5,1,2,3,0,1,2,3,2,6,5,4]","action_history":"[1,0,0,0,0,0,0,1,1,0,0]","door_history":"[0,1,1,1,1,1,1,0,0,1,1]","location_rts":"[1303,385,323,328,599,403,798,511,334,706,339]","trial_type":"two-door-navigation","trial_index":8,"time_elapsed":135992,"internal_node_id":"0.0-2.0-6.0"},{"group":"square cycles (cube, non-group)","room_assignment":["red","purple","yellow","blue","brown","green","pink","grey"],"door_color_assignment":["black","white"],"door_generator_assignment":[1,0],"goal":2,"start":4,"action_noise":0.1,"location_history":"[4,7,6,7,3,2]","action_history":"[0,0,1,1,1]","door_history":"[1,1,0,0,0]","location_rts":"[523,637,330,386,411]","trial_type":"two-door-navigation","trial_index":9,"time_elapsed":147038,"internal_node_id":"0.0-2.0-7.0"},{"group":"square cycles (cube, non-group)","room_assignment":["red","purple","yellow","blue","brown","green","pink","grey"],"door_color_assignment":["black","white"],"door_generator_assignment":[1,0],"goal":3,"start":2,"action_noise":0.1,"location_history":"[2,6,7,3]","action_history":"[0,1,1]","door_history":"[1,0,0]","location_rts":"[2537,351,43]","trial_type":"two-door-navigation","trial_index":10,"time_elapsed":156619,"internal_node_id":"0.0-2.0-8.0"},{"group":"square cycles (cube, non-group)","room_assignment":["red","purple","yellow","blue","brown","green","pink","grey"],"door_color_assignment":["black","white"],"door_generator_assignment":[1,0],"goal":7,"start":3,"action_noise":0.1,"location_history":"[3,2,3,0,1,2,3,0,4,5,4,5,4,5,4,5,1,2,3,0,1,2,6,5,4,7]","action_history":"[1,0,0,0,0,0,0,1,1,0,0,0,0,0,1,1,0,0,0,0,0,1,0,0,0]","door_history":"[0,1,1,1,1,1,1,0,0,1,1,1,1,1,0,0,1,1,1,1,1,0,1,1,1]","location_rts":"[732,469,365,303,263,345,60,273,415,521,268,372,348,357,523,1158,587,157,330,292,312,376,365,360,2848]","trial_type":"two-door-navigation","trial_index":11,"time_elapsed":198422,"internal_node_id":"0.0-2.0-9.0"},{"group":"square cycles (cube, non-group)","room_assignment":["red","purple","yellow","blue","brown","green","pink","grey"],"door_color_assignment":["black","white"],"door_generator_assignment":[1,0],"goal":0,"start":7,"action_noise":0.1,"location_history":"[7,6,5,1,2,3,0]","action_history":"[0,1,1,0,0,0]","door_history":"[1,0,0,1,1,1]","location_rts":"[5117,340,160,399,271,319]","trial_type":"two-door-navigation","trial_index":12,"time_elapsed":214807,"internal_node_id":"0.0-2.0-10.0"},{"group":"square cycles (cube, non-group)","room_assignment":["red","purple","yellow","blue","brown","green","pink","grey"],"door_color_assignment":["black","white"],"door_generator_assignment":[1,0],"goal":1,"start":0,"action_noise":0.1,"location_history":"[0,4,7,6,5,1]","action_history":"[1,0,0,0,1]","door_history":"[0,1,1,1,0]","location_rts":"[3658,95,749,492,122]","trial_type":"two-door-navigation","trial_index":13,"time_elapsed":228625,"internal_node_id":"0.0-2.0-11.0"},{"group":"square cycles (cube, non-group)","room_assignment":["red","purple","yellow","blue","brown","green","pink","grey"],"door_color_assignment":["black","white"],"door_generator_assignment":[1,0],"goal":6,"start":1,"action_noise":0.1,"location_history":"[1,0,1,2,6]","action_history":"[1,0,0,1]","door_history":"[0,1,1,0]","location_rts":"[10896,743,59,502]","trial_type":"two-door-navigation","trial_index":14,"time_elapsed":248473,"internal_node_id":"0.0-2.0-12.0"},{"group":"square cycles (cube, non-group)","room_assignment":["red","purple","yellow","blue","brown","green","pink","grey"],"door_color_assignment":["black","white"],"door_generator_assignment":[1,0],"goal":4,"start":6,"action_noise":0.1,"location_history":"[6,7,6,7,3,2,3,0,1,2,6,7,3,2,6,5,1,0,1,0,4]","action_history":"[1,0,1,1,1,0,0,0,0,0,1,1,1,1,1,1,1,0,1,1]","door_history":"[0,1,0,0,0,1,1,1,1,1,0,0,0,0,0,0,0,1,0,0]","location_rts":"[353904,316,585,286,320,374,366,187,336,748,577,499,468,266,155,322,440,349,400,104]","trial_type":"two-door-navigation","trial_index":15,"time_elapsed":633872,"internal_node_id":"0.0-2.0-13.0"},{"group":"square cycles (cube, non-group)","room_assignment":["red","purple","yellow","blue","brown","green","pink","grey"],"door_color_assignment":["black","white"],"door_generator_assignment":[1,0],"goal":5,"start":4,"action_noise":0.1,"location_history":"[4,5]","action_history":"[1]","door_history":"[0]","location_rts":"[103952]","trial_type":"two-door-navigation","trial_index":16,"time_elapsed":742362,"internal_node_id":"0.0-2.0-14.0"},{"group":"square cycles (cube, non-group)","room_assignment":["red","purple","yellow","blue","brown","green","pink","grey"],"door_color_assignment":["black","white"],"door_generator_assignment":[1,0],"goal":4,"start":5,"action_noise":0.1,"location_history":"[5,4]","action_history":"[0]","door_history":"[1]","location_rts":"[1462]","trial_type":"two-door-navigation","trial_index":17,"time_elapsed":748380,"internal_node_id":"0.0-2.0-15.0"},{"group":"square cycles (cube, non-group)","room_assignment":["red","purple","yellow","blue","brown","green","pink","grey"],"door_color_assignment":["black","white"],"door_generator_assignment":[1,0],"goal":0,"start":4,"action_noise":0.1,"location_history":"[4,5,4,7,6,5,4,5,1,2,6,5,4,5,1,2,6,7,6,5,1,0]","action_history":"[1,0,0,0,0,0,1,1,0,0,0,0,0,1,1,1,1,0,0,1,1]","door_history":"[0,1,1,1,1,1,0,0,1,1,1,1,1,0,0,0,0,1,1,0,0]","location_rts":"[28369,329,295,276,274,704,391,367,441,287,324,304,391,81,842,810,1061,626,400,37,225]","trial_type":"two-door-navigation","trial_index":18,"time_elapsed":810605,"internal_node_id":"0.0-2.0-16.0"},{"group":"square cycles (cube, non-group)","room_assignment":["red","purple","yellow","blue","brown","green","pink","grey"],"door_color_assignment":["black","white"],"door_generator_assignment":[1,0],"goal":7,"start":0,"action_noise":0.1,"location_history":"[0,1,2,6,5,4,7]","action_history":"[0,0,1,0,0,0]","door_history":"[1,1,0,1,1,1]","location_rts":"[298890,277,548,291,347,224]","trial_type":"two-door-navigation","trial_index":19,"time_elapsed":1121193,"internal_node_id":"0.0-2.0-17.0"},{"group":"square cycles (cube, non-group)","room_assignment":["red","purple","yellow","blue","brown","green","pink","grey"],"door_color_assignment":["black","white"],"door_generator_assignment":[1,0],"goal":2,"start":7,"action_noise":0.1,"location_history":"[7,3,0,1,2]","action_history":"[1,0,0,0]","door_history":"[0,1,1,1]","location_rts":"[31659,364,87,244]","trial_type":"two-door-navigation","trial_index":20,"time_elapsed":1161176,"internal_node_id":"0.0-2.0-18.0"},{"group":"square cycles (cube, non-group)","room_assignment":["red","purple","yellow","blue","brown","green","pink","grey"],"door_color_assignment":["black","white"],"door_generator_assignment":[1,0],"goal":1,"start":2,"action_noise":0.1,"location_history":"[2,3,0,1]","action_history":"[1,0,0]","door_history":"[0,1,1]","location_rts":"[5160,537,3162]","trial_type":"two-door-navigation","trial_index":21,"time_elapsed":1176696,"internal_node_id":"0.0-2.0-19.0"},{"group":"square cycles (cube, non-group)","room_assignment":["red","purple","yellow","blue","brown","green","pink","grey"],"door_color_assignment":["black","white"],"door_generator_assignment":[1,0],"goal":3,"start":1,"action_noise":0.1,"location_history":"[1,0,4,7,3]","action_history":"[1,0,0,1]","door_history":"[0,1,1,0]","location_rts":"[774,402,316,998]","trial_type":"two-door-navigation","trial_index":22,"time_elapsed":1186942,"internal_node_id":"0.0-2.0-20.0"},{"group":"square cycles (cube, non-group)","room_assignment":["red","purple","yellow","blue","brown","green","pink","grey"],"door_color_assignment":["black","white"],"door_generator_assignment":[1,0],"goal":6,"start":3,"action_noise":0.1,"location_history":"[3,2,6]","action_history":"[0,0]","door_history":"[1,1]","location_rts":"[3878,379]","trial_type":"two-door-navigation","trial_index":23,"time_elapsed":1196789,"internal_node_id":"0.0-2.0-21.0"},{"group":"square cycles (cube, non-group)","room_assignment":["red","purple","yellow","blue","brown","green","pink","grey"],"door_color_assignment":["black","white"],"door_generator_assignment":[1,0],"goal":5,"start":6,"action_noise":0.1,"location_history":"[6,7,3,0,4,7,3,2,6,7,6,5]","action_history":"[1,0,0,1,0,1,1,1,1,0,0]","door_history":"[0,1,1,0,1,0,0,0,0,1,1]","location_rts":"[910,1605,757,536,7485,692,494,525,482,553,331]","trial_type":"two-door-navigation","trial_index":24,"time_elapsed":1226254,"internal_node_id":"0.0-2.0-22.0"},{"group":"square cycles (cube, non-group)","room_assignment":["red","purple","yellow","blue","brown","green","pink","grey"],"door_color_assignment":["black","white"],"door_generator_assignment":[1,0],"goal":3,"start":5,"action_noise":0.1,"location_history":"[5,1,2,6,7,3]","action_history":"[1,0,1,1,1]","door_history":"[0,1,0,0,0]","location_rts":"[573,1027,313,270,283]","trial_type":"two-door-navigation","trial_index":25,"time_elapsed":1237495,"internal_node_id":"0.0-2.0-23.0"},{"group":"square cycles (cube, non-group)","room_assignment":["red","purple","yellow","blue","brown","green","pink","grey"],"door_color_assignment":["black","white"],"door_generator_assignment":[1,0],"goal":0,"start":3,"action_noise":0.1,"location_history":"[3,0]","action_history":"[0]","door_history":"[1]","location_rts":"[64640]","trial_type":"two-door-navigation","trial_index":26,"time_elapsed":1306746,"internal_node_id":"0.0-2.0-24.0"},{"group":"square cycles (cube, non-group)","room_assignment":["red","purple","yellow","blue","brown","green","pink","grey"],"door_color_assignment":["black","white"],"door_generator_assignment":[1,0],"goal":7,"start":0,"action_noise":0.1,"location_history":"[0,1,2,3,0,1,2,3,0,1,0,4,7]","action_history":"[1,0,0,0,0,0,0,0,0,1,1,0]","door_history":"[0,1,1,1,1,1,1,1,1,0,0,1]","location_rts":"[1180,409,321,251,20423,540,64556,4388,2495,426,361,1808]","trial_type":"two-door-navigation","trial_index":27,"time_elapsed":1419903,"internal_node_id":"0.0-2.0-25.0"},{"group":"square cycles (cube, non-group)","room_assignment":["red","purple","yellow","blue","brown","green","pink","grey"],"door_color_assignment":["black","white"],"door_generator_assignment":[1,0],"goal":2,"start":7,"action_noise":0.1,"location_history":"[7,3,0,1,0,4,7,6,7,6,5,4,5,4,7,6,5,4,7,3,0,1,2]","action_history":"[1,0,0,1,1,0,0,0,0,0,1,0,0,0,1,0,0,0,0,0,0,0]","door_history":"[0,1,1,0,0,1,1,1,1,1,0,1,1,1,0,1,1,1,1,1,1,1]","location_rts":"[819,383,63072,371,530,363,298,344,377,616,381,457,328,338,532,732,340,284,303,323,372,709]","trial_type":"two-door-navigation","trial_index":28,"time_elapsed":1518561,"internal_node_id":"0.0-2.0-26.0"},{"group":"square cycles (cube, non-group)","room_assignment":["red","purple","yellow","blue","brown","green","pink","grey"],"door_color_assignment":["black","white"],"door_generator_assignment":[1,0],"goal":1,"start":2,"action_noise":0.1,"location_history":"[2,6,5,1]","action_history":"[1,0,1]","door_history":"[0,1,0]","location_rts":"[7965,815,67920]","trial_type":"two-door-navigation","trial_index":29,"time_elapsed":1601887,"internal_node_id":"0.0-2.0-27.0"},{"group":"square cycles (cube, non-group)","room_assignment":["red","purple","yellow","blue","brown","green","pink","grey"],"door_color_assignment":["black","white"],"door_generator_assignment":[1,0],"goal":5,"start":1,"action_noise":0.1,"location_history":"[1,2,6,7,6,5]","action_history":"[0,1,1,0,0]","door_history":"[1,0,0,1,1]","location_rts":"[4228,339,572,688,478]","trial_type":"two-door-navigation","trial_index":30,"time_elapsed":1616914,"internal_node_id":"0.0-2.0-28.0"},{"group":"square cycles (cube, non-group)","room_assignment":["red","purple","yellow","blue","brown","green","pink","grey"],"door_color_assignment":["black","white"],"door_generator_assignment":[1,0],"goal":4,"start":5,"action_noise":0.1,"location_history":"[5,4]","action_history":"[0]","door_history":"[1]","location_rts":"[3274]","trial_type":"two-door-navigation","trial_index":31,"time_elapsed":1624723,"internal_node_id":"0.0-2.0-29.0"},{"group":"square cycles (cube, non-group)","room_assignment":["red","purple","yellow","blue","brown","green","pink","grey"],"door_color_assignment":["black","white"],"door_generator_assignment":[1,0],"goal":6,"start":4,"action_noise":0.1,"location_history":"[4,5,4,7,6]","action_history":"[1,0,0,0]","door_history":"[0,1,1,1]","location_rts":"[1426,348,480,1057]","trial_type":"two-door-navigation","trial_index":32,"time_elapsed":1635673,"internal_node_id":"0.0-2.0-30.0"},{"group":"square cycles (cube, non-group)","room_assignment":["red","purple","yellow","blue","brown","green","pink","grey"],"door_color_assignment":["black","white"],"door_generator_assignment":[1,0],"goal":4,"start":6,"action_noise":0.1,"location_history":"[6,5,4]","action_history":"[0,0]","door_history":"[1,1]","location_rts":"[7664,375]","trial_type":"two-door-navigation","trial_index":33,"time_elapsed":1649293,"internal_node_id":"0.0-2.0-31.0"},{"group":"square cycles (cube, non-group)","room_assignment":["red","purple","yellow","blue","brown","green","pink","grey"],"door_color_assignment":["black","white"],"door_generator_assignment":[1,0],"goal":2,"start":4,"action_noise":0.1,"location_history":"[4,7,3,2]","action_history":"[0,1,1]","door_history":"[1,0,0]","location_rts":"[45333,313,234]","trial_type":"two-door-navigation","trial_index":34,"time_elapsed":1701848,"internal_node_id":"0.0-2.0-32.0"},{"group":"square cycles (cube, non-group)","room_assignment":["red","purple","yellow","blue","brown","green","pink","grey"],"door_color_assignment":["black","white"],"door_generator_assignment":[1,0],"goal":0,"start":2,"action_noise":0.1,"location_history":"[2,3,0]","action_history":"[0,0]","door_history":"[1,1]","location_rts":"[120293,874]","trial_type":"two-door-navigation","trial_index":35,"time_elapsed":1828614,"internal_node_id":"0.0-2.0-33.0"},{"group":"square cycles (cube, non-group)","room_assignment":["red","purple","yellow","blue","brown","green","pink","grey"],"door_color_assignment":["black","white"],"door_generator_assignment":[1,0],"goal":5,"start":0,"action_noise":0.1,"location_history":"[0,4,7,3,0,4,5]","action_history":"[1,0,1,0,1,1]","door_history":"[0,1,0,1,0,0]","location_rts":"[2021,439,88841,387,365,248]","trial_type":"two-door-navigation","trial_index":36,"time_elapsed":1930753,"internal_node_id":"0.0-2.0-34.0"},{"group":"square cycles (cube, non-group)","room_assignment":["red","purple","yellow","blue","brown","green","pink","grey"],"door_color_assignment":["black","white"],"door_generator_assignment":[1,0],"goal":1,"start":5,"action_noise":0.1,"location_history":"[5,1]","action_history":"[1]","door_history":"[0]","location_rts":"[5614]","trial_type":"two-door-navigation","trial_index":37,"time_elapsed":1942135,"internal_node_id":"0.0-2.0-35.0"},{"group":"square cycles (cube, non-group)","room_assignment":["red","purple","yellow","blue","brown","green","pink","grey"],"door_color_assignment":["black","white"],"door_generator_assignment":[1,0],"goal":7,"start":1,"action_noise":0.1,"location_history":"[1,0,1,2,6,7]","action_history":"[1,0,0,0,1]","door_history":"[0,1,1,1,0]","location_rts":"[38183,320,289,2045,412]","trial_type":"two-door-navigation","trial_index":38,"time_elapsed":1993080,"internal_node_id":"0.0-2.0-36.0"},{"group":"square cycles (cube, non-group)","room_assignment":["red","purple","yellow","blue","brown","green","pink","grey"],"door_color_assignment":["black","white"],"door_generator_assignment":[1,0],"goal":3,"start":7,"action_noise":0.1,"location_history":"[7,6,7,3]","action_history":"[0,1,1]","door_history":"[1,0,0]","location_rts":"[381,515,277]","trial_type":"two-door-navigation","trial_index":39,"time_elapsed":2000873,"internal_node_id":"0.0-2.0-37.0"},{"group":"square cycles (cube, non-group)","room_assignment":["red","purple","yellow","blue","brown","green","pink","grey"],"door_color_assignment":["black","white"],"door_generator_assignment":[1,0],"goal":6,"start":3,"action_noise":0.1,"location_history":"[3,0,4,7,3,0,4,7,3,2,3,0,1,2,6]","action_history":"[0,1,0,0,0,0,0,1,1,0,0,0,0,1]","door_history":"[1,0,1,1,1,1,1,0,0,1,1,1,1,0]","location_rts":"[596,83,296,255,355,393,321,375,1003,824,353,316,593,508]","trial_type":"two-door-navigation","trial_index":40,"time_elapsed":2025242,"internal_node_id":"0.0-2.0-38.0"},{"group":"square cycles (cube, non-group)","room_assignment":["red","purple","yellow","blue","brown","green","pink","grey"],"door_color_assignment":["black","white"],"door_generator_assignment":[1,0],"goal":2,"start":6,"action_noise":0.1,"location_history":"[6,7,6,5,4,7,6,5,4,5,1,0,1,2]","action_history":"[1,0,0,0,0,0,0,0,0,1,1,0,0]","door_history":"[0,1,1,1,1,1,1,1,1,0,0,1,1]","location_rts":"[869,313,386,2249,351,315,940,299,332,308,493,398,454]","trial_type":"two-door-navigation","trial_index":41,"time_elapsed":2050015,"internal_node_id":"0.0-2.0-39.0"},{"group":"square cycles (cube, non-group)","room_assignment":["red","purple","yellow","blue","brown","green","pink","grey"],"door_color_assignment":["black","white"],"door_generator_assignment":[1,0],"goal":1,"start":2,"action_noise":0.1,"location_history":"[2,6,5,4,5,1]","action_history":"[1,0,0,0,1]","door_history":"[0,1,1,1,0]","location_rts":"[2092,520,371,614,535]","trial_type":"two-door-navigation","trial_index":42,"time_elapsed":2062885,"internal_node_id":"0.0-2.0-40.0"},{"group":"square cycles (cube, non-group)","room_assignment":["red","purple","yellow","blue","brown","green","pink","grey"],"door_color_assignment":["black","white"],"door_generator_assignment":[1,0],"goal":0,"start":1,"action_noise":0.1,"location_history":"[1,2,6,5,4,7,6,5,1,0]","action_history":"[0,1,0,0,0,1,0,1,1]","door_history":"[1,0,1,1,1,0,1,0,0]","location_rts":"[5975,158,1268,411,264,69,516,332,336]","trial_type":"two-door-navigation","trial_index":43,"time_elapsed":2085209,"internal_node_id":"0.0-2.0-41.0"},{"group":"square cycles (cube, non-group)","room_assignment":["red","purple","yellow","blue","brown","green","pink","grey"],"door_color_assignment":["black","white"],"door_generator_assignment":[1,0],"goal":4,"start":0,"action_noise":0.1,"location_history":"[0,1,0,1,2,6,5,4]","action_history":"[0,0,0,0,1,0,0]","door_history":"[1,1,1,1,0,1,1]","location_rts":"[603,356,310,276,339,418,326]","trial_type":"two-door-navigation","trial_index":44,"time_elapsed":2098614,"internal_node_id":"0.0-2.0-42.0"},{"group":"square cycles (cube, non-group)","room_assignment":["red","purple","yellow","blue","brown","green","pink","grey"],"door_color_assignment":["black","white"],"door_generator_assignment":[1,0],"goal":6,"start":4,"action_noise":0.1,"location_history":"[4,7,3,0,1,2,6]","action_history":"[0,1,0,0,0,1]","door_history":"[1,0,1,1,1,0]","location_rts":"[219506,362,19,383,350,168]","trial_type":"two-door-navigation","trial_index":45,"time_elapsed":2329180,"internal_node_id":"0.0-2.0-43.0"},{"group":"square cycles (cube, non-group)","room_assignment":["red","purple","yellow","blue","brown","green","pink","grey"],"door_color_assignment":["black","white"],"door_generator_assignment":[1,0],"goal":3,"start":6,"action_noise":0.1,"location_history":"[6,5,1,0,1,2,3]","action_history":"[0,1,0,0,0,0]","door_history":"[1,0,1,1,1,1]","location_rts":"[331,364,976,313,410,603]","trial_type":"two-door-navigation","trial_index":46,"time_elapsed":2341924,"internal_node_id":"0.0-2.0-44.0"},{"group":"square cycles (cube, non-group)","room_assignment":["red","purple","yellow","blue","brown","green","pink","grey"],"door_color_assignment":["black","white"],"door_generator_assignment":[1,0],"goal":7,"start":3,"action_noise":0.1,"location_history":"[3,2,6,7]","action_history":"[1,0,0]","door_history":"[0,1,1]","location_rts":"[451,74,283]","trial_type":"two-door-navigation","trial_index":47,"time_elapsed":2349364,"internal_node_id":"0.0-2.0-45.0"},{"group":"square cycles (cube, non-group)","room_assignment":["red","purple","yellow","blue","brown","green","pink","grey"],"door_color_assignment":["black","white"],"door_generator_assignment":[1,0],"goal":5,"start":7,"action_noise":0.1,"location_history":"[7,6,7,3,2,6,7,3,2,6,5]","action_history":"[0,1,1,0,1,1,1,1,1,0]","door_history":"[1,0,0,1,0,0,0,0,0,1]","location_rts":"[4457,301,5,333,312,83,447,22,284,369]","trial_type":"two-door-navigation","trial_index":48,"time_elapsed":2369796,"internal_node_id":"0.0-2.0-46.0"},{"group":"square cycles (cube, non-group)","room_assignment":["red","purple","yellow","blue","brown","green","pink","grey"],"door_color_assignment":["black","white"],"door_generator_assignment":[1,0],"goal":1,"start":5,"action_noise":0.1,"location_history":"[5,1]","action_history":"[1]","door_history":"[0]","location_rts":"[2206]","trial_type":"two-door-navigation","trial_index":49,"time_elapsed":2377147,"internal_node_id":"0.0-2.0-47.0"},{"group":"square cycles (cube, non-group)","room_assignment":["red","purple","yellow","blue","brown","green","pink","grey"],"door_color_assignment":["black","white"],"door_generator_assignment":[1,0],"goal":6,"start":1,"action_noise":0.1,"location_history":"[1,2,3,2,6]","action_history":"[0,0,0,1]","door_history":"[1,1,1,0]","location_rts":"[618,1260,317,233]","trial_type":"two-door-navigation","trial_index":50,"time_elapsed":2387290,"internal_node_id":"0.0-2.0-48.0"},{"group":"square cycles (cube, non-group)","room_assignment":["red","purple","yellow","blue","brown","green","pink","grey"],"door_color_assignment":["black","white"],"door_generator_assignment":[1,0],"goal":0,"start":6,"action_noise":0.1,"location_history":"[6,5,4,5,4,7,6,7,6,5,4,7,6,5,1,2,3,0]","action_history":"[0,0,1,0,0,0,1,0,0,1,0,0,0,1,0,0,0]","door_history":"[1,1,0,1,1,1,0,1,1,0,1,1,1,0,1,1,1]","location_rts":"[360,580,431,330,316,281,326,325,332,414,899,294,352,112,375,299,299]","trial_type":"two-door-navigation","trial_index":51,"time_elapsed":2414855,"internal_node_id":"0.0-2.0-49.0"},{"view_history":"[{\"page_index\":0,\"viewing_time\":1016}]","rt":1017,"trial_type":"instructions","trial_index":52,"time_elapsed":2416875,"internal_node_id":"0.0-3.0"},{"view_history":"[{\"page_index\":0,\"viewing_time\":985},{\"page_index\":1,\"viewing_time\":792}]","rt":1778,"trial_type":"instructions","trial_index":53,"time_elapsed":2419654,"internal_node_id":"0.0-4.0"},{"group":"tri cycles (cube, non-group)","fractal_assignment":["../images/grn_red.png","../images/blu_wht.png","../images/ylw_pnk.png","../images/pnk_blu.png","../images/ylw_slt.png","../images/cyn_red.png","../images/org_blu.png","../images/gry_blk.png"],"mutagen_generator_assignment":[1,0],"goal":6,"start":3,"action_noise":0.1,"location_history":"[3,4,0,3,4,7,6]","action_history":"[1,1,1,1,0,0]","mutagen_history":"[0,0,0,0,1,1]","location_rts":"[4109,960,776,770,374,404]","trial_type":"fractal-mutation","trial_index":54,"time_elapsed":2437237,"internal_node_id":"0.0-5.0-0.0"},{"group":"tri cycles (cube, non-group)","fractal_assignment":["../images/grn_red.png","../images/blu_wht.png","../images/ylw_pnk.png","../images/pnk_blu.png","../images/ylw_slt.png","../images/cyn_red.png","../images/org_blu.png","../images/gry_blk.png"],"mutagen_generator_assignment":[1,0],"goal":1,"start":6,"action_noise":0.1,"location_history":"[6,4,0,2,1]","action_history":"[0,1,0,0]","mutagen_history":"[1,0,1,1]","location_rts":"[13285,596,373,317]","trial_type":"fractal-mutation","trial_index":55,"time_elapsed":2459750,"internal_node_id":"0.0-5.0-1.0"},{"group":"tri cycles (cube, non-group)","fractal_assignment":["../images/grn_red.png","../images/blu_wht.png","../images/ylw_pnk.png","../images/pnk_blu.png","../images/ylw_slt.png","../images/cyn_red.png","../images/org_blu.png","../images/gry_blk.png"],"mutagen_generator_assignment":[1,0],"goal":2,"start":1,"action_noise":0.1,"location_history":"[1,0,3,4,7,3,4,7,3,4,0,2]","action_history":"[0,0,1,0,1,1,0,1,1,1,0]","mutagen_history":"[1,1,0,1,0,0,1,0,0,0,1]","location_rts":"[1504,337,4580,220,423,797,330,151,601,729,762]","trial_type":"fractal-mutation","trial_index":56,"time_elapsed":2485520,"internal_node_id":"0.0-5.0-2.0"},{"group":"tri cycles (cube, non-group)","fractal_assignment":["../images/grn_red.png","../images/blu_wht.png","../images/ylw_pnk.png","../images/pnk_blu.png","../images/ylw_slt.png","../images/cyn_red.png","../images/org_blu.png","../images/gry_blk.png"],"mutagen_generator_assignment":[1,0],"goal":0,"start":2,"action_noise":0.1,"location_history":"[2,1,0]","action_history":"[0,0]","mutagen_history":"[1,1]","location_rts":"[1826,303]","trial_type":"fractal-mutation","trial_index":57,"time_elapsed":2493372,"internal_node_id":"0.0-5.0-3.0"},{"group":"tri cycles (cube, non-group)","fractal_assignment":["../images/grn_red.png","../images/blu_wht.png","../images/ylw_pnk.png","../images/pnk_blu.png","../images/ylw_slt.png","../images/cyn_red.png","../images/org_blu.png","../images/gry_blk.png"],"mutagen_generator_assignment":[1,0],"goal":7,"start":0,"action_noise":0.1,"location_history":"[0,3,4,0,2,1,5,2,1,0,2,1,0,2,1,0,3,4,7]","action_history":"[1,1,0,0,0,1,1,0,0,0,0,0,0,0,0,1,1,0]","mutagen_history":"[0,0,1,1,1,0,0,1,1,1,1,1,1,1,1,0,0,1]","location_rts":"[19382,873,383,439,449,383,939,390,448,355,431,426,403,392,352,51,783,784]","trial_type":"fractal-mutation","trial_index":58,"time_elapsed":2545119,"internal_node_id":"0.0-5.0-4.0"},{"group":"tri cycles (cube, non-group)","fractal_assignment":["../images/grn_red.png","../images/blu_wht.png","../images/ylw_pnk.png","../images/pnk_blu.png","../images/ylw_slt.png","../images/cyn_red.png","../images/org_blu.png","../images/gry_blk.png"],"mutagen_generator_assignment":[1,0],"goal":5,"start":7,"action_noise":0.1,"location_history":"[7,3,4,0,2,1,0,3,7,3,7,3,7,6,4,7,6,4,7,3,7,3,4,0,3,4,0,2,1,0,2,1,5]","action_history":"[1,1,1,1,0,0,1,1,1,0,1,1,0,0,0,1,0,0,1,1,1,1,1,1,1,1,0,0,0,0,0,1]","mutagen_history":"[0,0,0,0,1,1,0,0,0,1,0,0,1,1,1,0,1,1,0,0,0,0,0,0,0,0,1,1,1,1,1,0]","location_rts":"[115030,642,751,1044,475,422,438,509,511,758,706,877,770,237,379,307,184,418,198,465,791,1496,995,490,1041,644,549,375,3395,512,586,359]","trial_type":"fractal-mutation","trial_index":59,"time_elapsed":2720679,"internal_node_id":"0.0-5.0-5.0"},{"group":"tri cycles (cube, non-group)","fractal_assignment":["../images/grn_red.png","../images/blu_wht.png","../images/ylw_pnk.png","../images/pnk_blu.png","../images/ylw_slt.png","../images/cyn_red.png","../images/org_blu.png","../images/gry_blk.png"],"mutagen_generator_assignment":[1,0],"goal":4,"start":5,"action_noise":0.1,"location_history":"[5,2,6,4]","action_history":"[0,1,0]","mutagen_history":"[1,0,1]","location_rts":"[1378,506,629]","trial_type":"fractal-mutation","trial_index":60,"time_elapsed":2729993,"internal_node_id":"0.0-5.0-6.0"},{"group":"tri cycles (cube, non-group)","fractal_assignment":["../images/grn_red.png","../images/blu_wht.png","../images/ylw_pnk.png","../images/pnk_blu.png","../images/ylw_slt.png","../images/cyn_red.png","../images/org_blu.png","../images/gry_blk.png"],"mutagen_generator_assignment":[1,0],"goal":2,"start":4,"action_noise":0.1,"location_history":"[4,0,2]","action_history":"[1,0]","mutagen_history":"[0,1]","location_rts":"[2689,571]","trial_type":"fractal-mutation","trial_index":61,"time_elapsed":2738888,"internal_node_id":"0.0-5.0-7.0"},{"group":"tri cycles (cube, non-group)","fractal_assignment":["../images/grn_red.png","../images/blu_wht.png","../images/ylw_pnk.png","../images/pnk_blu.png","../images/ylw_slt.png","../images/cyn_red.png","../images/org_blu.png","../images/gry_blk.png"],"mutagen_generator_assignment":[1,0],"goal":3,"start":2,"action_noise":0.1,"location_history":"[2,6,5,2,6,5,2,6,4,0,3]","action_history":"[1,1,1,1,1,1,1,0,1,1]","mutagen_history":"[0,0,0,0,0,0,0,1,0,0]","location_rts":"[1516,387,841,359,362,421,929,736,125,380]","trial_type":"fractal-mutation","trial_index":62,"time_elapsed":2759454,"internal_node_id":"0.0-5.0-8.0"},{"group":"tri cycles (cube, non-group)","fractal_assignment":["../images/grn_red.png","../images/blu_wht.png","../images/ylw_pnk.png","../images/pnk_blu.png","../images/ylw_slt.png","../images/cyn_red.png","../images/org_blu.png","../images/gry_blk.png"],"mutagen_generator_assignment":[1,0],"goal":7,"start":3,"action_noise":0.1,"location_history":"[3,4,7]","action_history":"[1,0]","mutagen_history":"[0,1]","location_rts":"[943,963]","trial_type":"fractal-mutation","trial_index":63,"time_elapsed":2767018,"internal_node_id":"0.0-5.0-9.0"},{"group":"tri cycles (cube, non-group)","fractal_assignment":["../images/grn_red.png","../images/blu_wht.png","../images/ylw_pnk.png","../images/pnk_blu.png","../images/ylw_slt.png","../images/cyn_red.png","../images/org_blu.png","../images/gry_blk.png"],"mutagen_generator_assignment":[1,0],"goal":0,"start":7,"action_noise":0.1,"location_history":"[7,3,7,3,4,0]","action_history":"[1,0,1,1,1]","mutagen_history":"[0,1,0,0,0]","location_rts":"[2363,173,656,1579,1203]","trial_type":"fractal-mutation","trial_index":64,"time_elapsed":2782469,"internal_node_id":"0.0-5.0-10.0"},{"group":"tri cycles (cube, non-group)","fractal_assignment":["../images/grn_red.png","../images/blu_wht.png","../images/ylw_pnk.png","../images/pnk_blu.png","../images/ylw_slt.png","../images/cyn_red.png","../images/org_blu.png","../images/gry_blk.png"],"mutagen_generator_assignment":[1,0],"goal":1,"start":0,"action_noise":0.1,"location_history":"[0,2,1]","action_history":"[0,0]","mutagen_history":"[1,1]","location_rts":"[2837,351]","trial_type":"fractal-mutation","trial_index":65,"time_elapsed":2792118,"internal_node_id":"0.0-5.0-11.0"},{"group":"tri cycles (cube, non-group)","fractal_assignment":["../images/grn_red.png","../images/blu_wht.png","../images/ylw_pnk.png","../images/pnk_blu.png","../images/ylw_slt.png","../images/cyn_red.png","../images/org_blu.png","../images/gry_blk.png"],"mutagen_generator_assignment":[1,0],"goal":6,"start":1,"action_noise":0.1,"location_history":"[1,5,2,1,5,2,6]","action_history":"[1,1,0,1,1,1]","mutagen_history":"[0,0,1,0,0,0]","location_rts":"[49894,767,542,247,735,827]","trial_type":"fractal-mutation","trial_index":66,"time_elapsed":2855297,"internal_node_id":"0.0-5.0-12.0"},{"group":"tri cycles (cube, non-group)","fractal_assignment":["../images/grn_red.png","../images/blu_wht.png","../images/ylw_pnk.png","../images/pnk_blu.png","../images/ylw_slt.png","../images/cyn_red.png","../images/org_blu.png","../images/gry_blk.png"],"mutagen_generator_assignment":[1,0],"goal":4,"start":6,"action_noise":0.1,"location_history":"[6,4]","action_history":"[0]","mutagen_history":"[1]","location_rts":"[23765]","trial_type":"fractal-mutation","trial_index":67,"time_elapsed":2883720,"internal_node_id":"0.0-5.0-13.0"},{"group":"tri cycles (cube, non-group)","fractal_assignment":["../images/grn_red.png","../images/blu_wht.png","../images/ylw_pnk.png","../images/pnk_blu.png","../images/ylw_slt.png","../images/cyn_red.png","../images/org_blu.png","../images/gry_blk.png"],"mutagen_generator_assignment":[1,0],"goal":5,"start":4,"action_noise":0.1,"location_history":"[4,0,2,6,5]","action_history":"[1,0,1,1]","mutagen_history":"[0,1,0,0]","location_rts":"[19916,853,279,389]","trial_type":"fractal-mutation","trial_index":68,"time_elapsed":2914179,"internal_node_id":"0.0-5.0-14.0"},{"group":"tri cycles (cube, non-group)","fractal_assignment":["../images/grn_red.png","../images/blu_wht.png","../images/ylw_pnk.png","../images/pnk_blu.png","../images/ylw_slt.png","../images/cyn_red.png","../images/org_blu.png","../images/gry_blk.png"],"mutagen_generator_assignment":[1,0],"goal":4,"start":5,"action_noise":0.1,"location_history":"[5,2,6,4]","action_history":"[1,1,0]","mutagen_history":"[0,0,1]","location_rts":"[48259,737,942]","trial_type":"fractal-mutation","trial_index":69,"time_elapsed":2971878,"internal_node_id":"0.0-5.0-15.0"},{"group":"tri cycles (cube, non-group)","fractal_assignment":["../images/grn_red.png","../images/blu_wht.png","../images/ylw_pnk.png","../images/pnk_blu.png","../images/ylw_slt.png","../images/cyn_red.png","../images/org_blu.png","../images/gry_blk.png"],"mutagen_generator_assignment":[1,0],"goal":0,"start":4,"action_noise":0.1,"location_history":"[4,0]","action_history":"[1]","mutagen_history":"[0]","location_rts":"[4003]","trial_type":"fractal-mutation","trial_index":70,"time_elapsed":2980450,"internal_node_id":"0.0-5.0-16.0"},{"group":"tri cycles (cube, non-group)","fractal_assignment":["../images/grn_red.png","../images/blu_wht.png","../images/ylw_pnk.png","../images/pnk_blu.png","../images/ylw_slt.png","../images/cyn_red.png","../images/org_blu.png","../images/gry_blk.png"],"mutagen_generator_assignment":[1,0],"goal":7,"start":0,"action_noise":0.1,"location_history":"[0,3,4,0,3,4,7]","action_history":"[1,1,1,1,1,0]","mutagen_history":"[0,0,0,0,0,1]","location_rts":"[1924,1061,11011,803,980,773]","trial_type":"fractal-mutation","trial_index":71,"time_elapsed":3006931,"internal_node_id":"0.0-5.0-17.0"},{"group":"tri cycles (cube, non-group)","fractal_assignment":["../images/grn_red.png","../images/blu_wht.png","../images/ylw_pnk.png","../images/pnk_blu.png","../images/ylw_slt.png","../images/cyn_red.png","../images/org_blu.png","../images/gry_blk.png"],"mutagen_generator_assignment":[1,0],"goal":2,"start":7,"action_noise":0.1,"location_history":"[7,3,7,3,4,7,3,4,0,2]","action_history":"[1,0,1,1,0,1,1,1,0]","mutagen_history":"[0,1,0,0,1,0,0,0,1]","location_rts":"[1849,383,394,471,397,463,572,489,792]","trial_type":"fractal-mutation","trial_index":72,"time_elapsed":3026003,"internal_node_id":"0.0-5.0-18.0"},{"group":"tri cycles (cube, non-group)","fractal_assignment":["../images/grn_red.png","../images/blu_wht.png","../images/ylw_pnk.png","../images/pnk_blu.png","../images/ylw_slt.png","../images/cyn_red.png","../images/org_blu.png","../images/gry_blk.png"],"mutagen_generator_assignment":[1,0],"goal":1,"start":2,"action_noise":0.1,"location_history":"[2,1]","action_history":"[0]","mutagen_history":"[1]","location_rts":"[2450]","trial_type":"fractal-mutation","trial_index":73,"time_elapsed":3033117,"internal_node_id":"0.0-5.0-19.0"},{"group":"tri cycles (cube, non-group)","fractal_assignment":["../images/grn_red.png","../images/blu_wht.png","../images/ylw_pnk.png","../images/pnk_blu.png","../images/ylw_slt.png","../images/cyn_red.png","../images/org_blu.png","../images/gry_blk.png"],"mutagen_generator_assignment":[1,0],"goal":3,"start":1,"action_noise":0.1,"location_history":"[1,5,2,6,5,2,1,5,2,6,5,2,6,4,0,3]","action_history":"[1,1,1,1,1,0,1,1,1,1,1,1,0,1,1]","mutagen_history":"[0,0,0,0,0,1,0,0,0,0,0,0,1,0,0]","location_rts":"[36151,1109,825,1291,993,386,342,566,384,439,460,392,81,27,394]","trial_type":"fractal-mutation","trial_index":74,"time_elapsed":3097619,"internal_node_id":"0.0-5.0-20.0"},{"group":"tri cycles (cube, non-group)","fractal_assignment":["../images/grn_red.png","../images/blu_wht.png","../images/ylw_pnk.png","../images/pnk_blu.png","../images/ylw_slt.png","../images/cyn_red.png","../images/org_blu.png","../images/gry_blk.png"],"mutagen_generator_assignment":[1,0],"goal":6,"start":3,"action_noise":0.1,"location_history":"[3,4,0,3,4,7,6]","action_history":"[1,1,1,1,0,0]","mutagen_history":"[0,0,0,0,1,1]","location_rts":"[1445,355,573,547,352,444]","trial_type":"fractal-mutation","trial_index":75,"time_elapsed":3111455,"internal_node_id":"0.0-5.0-21.0"},{"group":"tri cycles (cube, non-group)","fractal_assignment":["../images/grn_red.png","../images/blu_wht.png","../images/ylw_pnk.png","../images/pnk_blu.png","../images/ylw_slt.png","../images/cyn_red.png","../images/org_blu.png","../images/gry_blk.png"],"mutagen_generator_assignment":[1,0],"goal":5,"start":6,"action_noise":0.1,"location_history":"[6,5]","action_history":"[1]","mutagen_history":"[0]","location_rts":"[1025]","trial_type":"fractal-mutation","trial_index":76,"time_elapsed":3117116,"internal_node_id":"0.0-5.0-22.0"},{"group":"tri cycles (cube, non-group)","fractal_assignment":["../images/grn_red.png","../images/blu_wht.png","../images/ylw_pnk.png","../images/pnk_blu.png","../images/ylw_slt.png","../images/cyn_red.png","../images/org_blu.png","../images/gry_blk.png"],"mutagen_generator_assignment":[1,0],"goal":3,"start":5,"action_noise":0.1,"location_history":"[5,2,1,5,2,6,4,0,3]","action_history":"[1,0,1,1,1,0,1,1]","mutagen_history":"[0,1,0,0,0,1,0,0]","location_rts":"[1185,742,121,496,429,464,39,386]","trial_type":"fractal-mutation","trial_index":77,"time_elapsed":3133119,"internal_node_id":"0.0-5.0-23.0"},{"group":"tri cycles (cube, non-group)","fractal_assignment":["../images/grn_red.png","../images/blu_wht.png","../images/ylw_pnk.png","../images/pnk_blu.png","../images/ylw_slt.png","../images/cyn_red.png","../images/org_blu.png","../images/gry_blk.png"],"mutagen_generator_assignment":[1,0],"goal":0,"start":3,"action_noise":0.1,"location_history":"[3,7,3,4,7,3,4,0]","action_history":"[1,1,1,0,1,1,1]","mutagen_history":"[0,0,0,1,0,0,0]","location_rts":"[1247,464,551,373,439,456,420]","trial_type":"fractal-mutation","trial_index":78,"time_elapsed":3148136,"internal_node_id":"0.0-5.0-24.0"},{"group":"tri cycles (cube, non-group)","fractal_assignment":["../images/grn_red.png","../images/blu_wht.png","../images/ylw_pnk.png","../images/pnk_blu.png","../images/ylw_slt.png","../images/cyn_red.png","../images/org_blu.png","../images/gry_blk.png"],"mutagen_generator_assignment":[1,0],"goal":7,"start":0,"action_noise":0.1,"location_history":"[0,3,7]","action_history":"[1,0]","mutagen_history":"[0,1]","location_rts":"[849,633]","trial_type":"fractal-mutation","trial_index":79,"time_elapsed":3155264,"internal_node_id":"0.0-5.0-25.0"},{"group":"tri cycles (cube, non-group)","fractal_assignment":["../images/grn_red.png","../images/blu_wht.png","../images/ylw_pnk.png","../images/pnk_blu.png","../images/ylw_slt.png","../images/cyn_red.png","../images/org_blu.png","../images/gry_blk.png"],"mutagen_generator_assignment":[1,0],"goal":2,"start":7,"action_noise":0.1,"location_history":"[7,3,4,7,6,4,7,6,4,0,2]","action_history":"[1,1,0,0,0,0,0,0,1,0]","mutagen_history":"[0,0,1,1,1,1,1,1,0,1]","location_rts":"[689,1052,275,360,640,1169,572,1050,512,756]","trial_type":"fractal-mutation","trial_index":80,"time_elapsed":3177116,"internal_node_id":"0.0-5.0-26.0"},{"group":"tri cycles (cube, non-group)","fractal_assignment":["../images/grn_red.png","../images/blu_wht.png","../images/ylw_pnk.png","../images/pnk_blu.png","../images/ylw_slt.png","../images/cyn_red.png","../images/org_blu.png","../images/gry_blk.png"],"mutagen_generator_assignment":[1,0],"goal":1,"start":2,"action_noise":0.1,"location_history":"[2,6,5,2,1]","action_history":"[1,1,1,0]","mutagen_history":"[0,0,0,1]","location_rts":"[868,887,829,359]","trial_type":"fractal-mutation","trial_index":81,"time_elapsed":3188356,"internal_node_id":"0.0-5.0-27.0"},{"group":"tri cycles (cube, non-group)","fractal_assignment":["../images/grn_red.png","../images/blu_wht.png","../images/ylw_pnk.png","../images/pnk_blu.png","../images/ylw_slt.png","../images/cyn_red.png","../images/org_blu.png","../images/gry_blk.png"],"mutagen_generator_assignment":[1,0],"goal":5,"start":1,"action_noise":0.1,"location_history":"[1,5]","action_history":"[1]","mutagen_history":"[0]","location_rts":"[5757]","trial_type":"fractal-mutation","trial_index":82,"time_elapsed":3199142,"internal_node_id":"0.0-5.0-28.0"},{"group":"tri cycles (cube, non-group)","fractal_assignment":["../images/grn_red.png","../images/blu_wht.png","../images/ylw_pnk.png","../images/pnk_blu.png","../images/ylw_slt.png","../images/cyn_red.png","../images/org_blu.png","../images/gry_blk.png"],"mutagen_generator_assignment":[1,0],"goal":4,"start":5,"action_noise":0.1,"location_history":"[5,1,5,1,0,2,6,4]","action_history":"[1,1,1,0,1,1,0]","mutagen_history":"[0,0,0,1,0,0,1]","location_rts":"[34214,979,684,400,54,598,691]","trial_type":"fractal-mutation","trial_index":83,"time_elapsed":3250478,"internal_node_id":"0.0-5.0-29.0"},{"group":"tri cycles (cube, non-group)","fractal_assignment":["../images/grn_red.png","../images/blu_wht.png","../images/ylw_pnk.png","../images/pnk_blu.png","../images/ylw_slt.png","../images/cyn_red.png","../images/org_blu.png","../images/gry_blk.png"],"mutagen_generator_assignment":[1,0],"goal":6,"start":4,"action_noise":0.1,"location_history":"[4,7,6]","action_history":"[0,0]","mutagen_history":"[1,1]","location_rts":"[2149,210]","trial_type":"fractal-mutation","trial_index":84,"time_elapsed":3258829,"internal_node_id":"0.0-5.0-30.0"},{"group":"tri cycles (cube, non-group)","fractal_assignment":["../images/grn_red.png","../images/blu_wht.png","../images/ylw_pnk.png","../images/pnk_blu.png","../images/ylw_slt.png","../images/cyn_red.png","../images/org_blu.png","../images/gry_blk.png"],"mutagen_generator_assignment":[1,0],"goal":4,"start":6,"action_noise":0.1,"location_history":"[6,4]","action_history":"[0]","mutagen_history":"[1]","location_rts":"[901]","trial_type":"fractal-mutation","trial_index":85,"time_elapsed":3264469,"internal_node_id":"0.0-5.0-31.0"},{"group":"tri cycles (cube, non-group)","fractal_assignment":["../images/grn_red.png","../images/blu_wht.png","../images/ylw_pnk.png","../images/pnk_blu.png","../images/ylw_slt.png","../images/cyn_red.png","../images/org_blu.png","../images/gry_blk.png"],"mutagen_generator_assignment":[1,0],"goal":2,"start":4,"action_noise":0.1,"location_history":"[4,7,3,4,7,3,7,3,4,7,3,4,0,2]","action_history":"[0,1,1,0,1,0,1,1,0,1,1,1,0]","mutagen_history":"[1,0,0,1,0,1,0,0,1,0,0,0,1]","location_rts":"[817,1141,531,600,155,4194,337,444,1072,416,311,472,436]","trial_type":"fractal-mutation","trial_index":86,"time_elapsed":3293145,"internal_node_id":"0.0-5.0-32.0"},{"group":"tri cycles (cube, non-group)","fractal_assignment":["../images/grn_red.png","../images/blu_wht.png","../images/ylw_pnk.png","../images/pnk_blu.png","../images/ylw_slt.png","../images/cyn_red.png","../images/org_blu.png","../images/gry_blk.png"],"mutagen_generator_assignment":[1,0],"goal":0,"start":2,"action_noise":0.1,"location_history":"[2,1,0]","action_history":"[0,0]","mutagen_history":"[1,1]","location_rts":"[1747,397]","trial_type":"fractal-mutation","trial_index":87,"time_elapsed":3300995,"internal_node_id":"0.0-5.0-33.0"},{"group":"tri cycles (cube, non-group)","fractal_assignment":["../images/grn_red.png","../images/blu_wht.png","../images/ylw_pnk.png","../images/pnk_blu.png","../images/ylw_slt.png","../images/cyn_red.png","../images/org_blu.png","../images/gry_blk.png"],"mutagen_generator_assignment":[1,0],"goal":5,"start":0,"action_noise":0.1,"location_history":"[0,3,7,3,7,6,5]","action_history":"[1,0,1,0,0,1]","mutagen_history":"[0,1,0,1,1,0]","location_rts":"[954,717,547,717,176,130]","trial_type":"fractal-mutation","trial_index":88,"time_elapsed":3314440,"internal_node_id":"0.0-5.0-34.0"},{"group":"tri cycles (cube, non-group)","fractal_assignment":["../images/grn_red.png","../images/blu_wht.png","../images/ylw_pnk.png","../images/pnk_blu.png","../images/ylw_slt.png","../images/cyn_red.png","../images/org_blu.png","../images/gry_blk.png"],"mutagen_generator_assignment":[1,0],"goal":1,"start":5,"action_noise":0.1,"location_history":"[5,2,1]","action_history":"[1,0]","mutagen_history":"[0,1]","location_rts":"[1387,571]","trial_type":"fractal-mutation","trial_index":89,"time_elapsed":3322146,"internal_node_id":"0.0-5.0-35.0"},{"group":"tri cycles (cube, non-group)","fractal_assignment":["../images/grn_red.png","../images/blu_wht.png","../images/ylw_pnk.png","../images/pnk_blu.png","../images/ylw_slt.png","../images/cyn_red.png","../images/org_blu.png","../images/gry_blk.png"],"mutagen_generator_assignment":[1,0],"goal":7,"start":1,"action_noise":0.1,"location_history":"[1,5,2,1,5,2,6,4,7]","action_history":"[1,1,0,1,1,1,0,0]","mutagen_history":"[0,0,1,0,0,0,1,1]","location_rts":"[5107,766,572,238,180,96,436,386]","trial_type":"fractal-mutation","trial_index":90,"time_elapsed":3342687,"internal_node_id":"0.0-5.0-36.0"},{"group":"tri cycles (cube, non-group)","fractal_assignment":["../images/grn_red.png","../images/blu_wht.png","../images/ylw_pnk.png","../images/pnk_blu.png","../images/ylw_slt.png","../images/cyn_red.png","../images/org_blu.png","../images/gry_blk.png"],"mutagen_generator_assignment":[1,0],"goal":3,"start":7,"action_noise":0.1,"location_history":"[7,3]","action_history":"[1]","mutagen_history":"[0]","location_rts":"[1095]","trial_type":"fractal-mutation","trial_index":91,"time_elapsed":3348485,"internal_node_id":"0.0-5.0-37.0"},{"group":"tri cycles (cube, non-group)","fractal_assignment":["../images/grn_red.png","../images/blu_wht.png","../images/ylw_pnk.png","../images/pnk_blu.png","../images/ylw_slt.png","../images/cyn_red.png","../images/org_blu.png","../images/gry_blk.png"],"mutagen_generator_assignment":[1,0],"goal":6,"start":3,"action_noise":0.1,"location_history":"[3,7,6]","action_history":"[0,0]","mutagen_history":"[1,1]","location_rts":"[1179,1030]","trial_type":"fractal-mutation","trial_index":92,"time_elapsed":3356461,"internal_node_id":"0.0-5.0-38.0"},{"group":"tri cycles (cube, non-group)","fractal_assignment":["../images/grn_red.png","../images/blu_wht.png","../images/ylw_pnk.png","../images/pnk_blu.png","../images/ylw_slt.png","../images/cyn_red.png","../images/org_blu.png","../images/gry_blk.png"],"mutagen_generator_assignment":[1,0],"goal":2,"start":6,"action_noise":0.1,"location_history":"[6,5,1,0,3,4,0,2]","action_history":"[1,0,0,0,0,1,0]","mutagen_history":"[0,1,1,1,1,0,1]","location_rts":"[1704,426,849,373,619,624,110]","trial_type":"fractal-mutation","trial_index":93,"time_elapsed":3372450,"internal_node_id":"0.0-5.0-39.0"},{"group":"tri cycles (cube, non-group)","fractal_assignment":["../images/grn_red.png","../images/blu_wht.png","../images/ylw_pnk.png","../images/pnk_blu.png","../images/ylw_slt.png","../images/cyn_red.png","../images/org_blu.png","../images/gry_blk.png"],"mutagen_generator_assignment":[1,0],"goal":1,"start":2,"action_noise":0.1,"location_history":"[2,1]","action_history":"[0]","mutagen_history":"[1]","location_rts":"[1410]","trial_type":"fractal-mutation","trial_index":94,"time_elapsed":3378503,"internal_node_id":"0.0-5.0-40.0"},{"group":"tri cycles (cube, non-group)","fractal_assignment":["../images/grn_red.png","../images/blu_wht.png","../images/ylw_pnk.png","../images/pnk_blu.png","../images/ylw_slt.png","../images/cyn_red.png","../images/org_blu.png","../images/gry_blk.png"],"mutagen_generator_assignment":[1,0],"goal":0,"start":1,"action_noise":0.1,"location_history":"[1,0]","action_history":"[0]","mutagen_history":"[1]","location_rts":"[825]","trial_type":"fractal-mutation","trial_index":95,"time_elapsed":3383937,"internal_node_id":"0.0-5.0-41.0"},{"group":"tri cycles (cube, non-group)","fractal_assignment":["../images/grn_red.png","../images/blu_wht.png","../images/ylw_pnk.png","../images/pnk_blu.png","../images/ylw_slt.png","../images/cyn_red.png","../images/org_blu.png","../images/gry_blk.png"],"mutagen_generator_assignment":[1,0],"goal":4,"start":0,"action_noise":0.1,"location_history":"[0,3,4]","action_history":"[1,1]","mutagen_history":"[0,0]","location_rts":"[8729,729]","trial_type":"fractal-mutation","trial_index":96,"time_elapsed":3399054,"internal_node_id":"0.0-5.0-42.0"},{"group":"tri cycles (cube, non-group)","fractal_assignment":["../images/grn_red.png","../images/blu_wht.png","../images/ylw_pnk.png","../images/pnk_blu.png","../images/ylw_slt.png","../images/cyn_red.png","../images/org_blu.png","../images/gry_blk.png"],"mutagen_generator_assignment":[1,0],"goal":6,"start":4,"action_noise":0.1,"location_history":"[4,7,6]","action_history":"[0,0]","mutagen_history":"[1,1]","location_rts":"[1898,416]","trial_type":"fractal-mutation","trial_index":97,"time_elapsed":3407162,"internal_node_id":"0.0-5.0-43.0"},{"group":"tri cycles (cube, non-group)","fractal_assignment":["../images/grn_red.png","../images/blu_wht.png","../images/ylw_pnk.png","../images/pnk_blu.png","../images/ylw_slt.png","../images/cyn_red.png","../images/org_blu.png","../images/gry_blk.png"],"mutagen_generator_assignment":[1,0],"goal":3,"start":6,"action_noise":0.1,"location_history":"[6,4,7,6,4,0,3]","action_history":"[0,0,0,0,1,1]","mutagen_history":"[1,1,1,1,0,0]","location_rts":"[1385,382,421,478,1261,424]","trial_type":"fractal-mutation","trial_index":98,"time_elapsed":3421763,"internal_node_id":"0.0-5.0-44.0"},{"group":"tri cycles (cube, non-group)","fractal_assignment":["../images/grn_red.png","../images/blu_wht.png","../images/ylw_pnk.png","../images/pnk_blu.png","../images/ylw_slt.png","../images/cyn_red.png","../images/org_blu.png","../images/gry_blk.png"],"mutagen_generator_assignment":[1,0],"goal":7,"start":3,"action_noise":0.1,"location_history":"[3,4,7]","action_history":"[1,0]","mutagen_history":"[0,1]","location_rts":"[964,467]","trial_type":"fractal-mutation","trial_index":99,"time_elapsed":3428872,"internal_node_id":"0.0-5.0-45.0"},{"group":"tri cycles (cube, non-group)","fractal_assignment":["../images/grn_red.png","../images/blu_wht.png","../images/ylw_pnk.png","../images/pnk_blu.png","../images/ylw_slt.png","../images/cyn_red.png","../images/org_blu.png","../images/gry_blk.png"],"mutagen_generator_assignment":[1,0],"goal":5,"start":7,"action_noise":0.1,"location_history":"[7,3,7,3,4,0,2,6,4,0,3,4,7,6,5]","action_history":"[1,0,1,1,1,0,1,0,1,1,1,0,0,1]","mutagen_history":"[0,1,0,0,0,1,0,1,0,0,0,1,1,0]","location_rts":"[866,432,88,313,436,756,150,369,256,425,525,377,451,278]","trial_type":"fractal-mutation","trial_index":100,"time_elapsed":3453601,"internal_node_id":"0.0-5.0-46.0"},{"group":"tri cycles (cube, non-group)","fractal_assignment":["../images/grn_red.png","../images/blu_wht.png","../images/ylw_pnk.png","../images/pnk_blu.png","../images/ylw_slt.png","../images/cyn_red.png","../images/org_blu.png","../images/gry_blk.png"],"mutagen_generator_assignment":[1,0],"goal":1,"start":5,"action_noise":0.1,"location_history":"[5,1]","action_history":"[0]","mutagen_history":"[1]","location_rts":"[5674]","trial_type":"fractal-mutation","trial_index":101,"time_elapsed":3463864,"internal_node_id":"0.0-5.0-47.0"},{"group":"tri cycles (cube, non-group)","fractal_assignment":["../images/grn_red.png","../images/blu_wht.png","../images/ylw_pnk.png","../images/pnk_blu.png","../images/ylw_slt.png","../images/cyn_red.png","../images/org_blu.png","../images/gry_blk.png"],"mutagen_generator_assignment":[1,0],"goal":6,"start":1,"action_noise":0.1,"location_history":"[1,5,2,1,5,2,6]","action_history":"[1,1,0,1,1,1]","mutagen_history":"[0,0,1,0,0,0]","location_rts":"[1392,1710,862,72,423,400]","trial_type":"fractal-mutation","trial_index":102,"time_elapsed":3478714,"internal_node_id":"0.0-5.0-48.0"},{"group":"tri cycles (cube, non-group)","fractal_assignment":["../images/grn_red.png","../images/blu_wht.png","../images/ylw_pnk.png","../images/pnk_blu.png","../images/ylw_slt.png","../images/cyn_red.png","../images/org_blu.png","../images/gry_blk.png"],"mutagen_generator_assignment":[1,0],"goal":0,"start":6,"action_noise":0.1,"location_history":"[6,4,0]","action_history":"[0,1]","mutagen_history":"[1,0]","location_rts":"[2287,21]","trial_type":"fractal-mutation","trial_index":103,"time_elapsed":3487150,"internal_node_id":"0.0-5.0-49.0"},{"view_history":"[{\"page_index\":0,\"viewing_time\":2075}]","rt":2076,"trial_type":"instructions","trial_index":104,"time_elapsed":3490227,"internal_node_id":"0.0-6.0"},{"rt":938,"responses":"{\"Q0\":\"\"}","trial_type":"survey-text","trial_index":105,"time_elapsed":3492179,"internal_node_id":"0.0-7.0"}]