[{"view_history":"[{\"page_index\":0,\"viewing_time\":5906},{\"page_index\":1,\"viewing_time\":4005}]","rt":9912,"trial_type":"instructions","trial_index":0,"time_elapsed":9914,"internal_node_id":"0.0-0.0"},{"view_history":"[{\"page_index\":0,\"viewing_time\":3705},{\"page_index\":1,\"viewing_time\":1899}]","rt":5605,"trial_type":"instructions","trial_index":1,"time_elapsed":16521,"internal_node_id":"0.0-1.0"},{"group":"square cycles (cube, non-group)","room_assignment":["yellow","purple","grey","pink","brown","green","blue","red"],"door_color_assignment":["black","white"],"door_generator_assignment":[0,1],"goal":6,"start":3,"action_noise":0.1,"location_history":"[3,2,3,2,6]","action_history":"[1,0,1,1]","door_history":"[1,0,1,1]","location_rts":"[2087,409,38,791]","trial_type":"two-door-navigation","trial_index":2,"time_elapsed":27723,"internal_node_id":"0.0-2.0-0.0"},{"group":"square cycles (cube, non-group)","room_assignment":["yellow","purple","grey","pink","brown","green","blue","red"],"door_color_assignment":["black","white"],"door_generator_assignment":[0,1],"goal":1,"start":6,"action_noise":0.1,"location_history":"[6,5,4,5,4,7,3,0,1]","action_history":"[0,0,1,0,0,1,0,1]","door_history":"[0,0,1,0,0,1,0,1]","location_rts":"[817,774,977,870,682,854,80,2058]","trial_type":"two-door-navigation","trial_index":3,"time_elapsed":46636,"internal_node_id":"0.0-2.0-1.0"},{"group":"square cycles (cube, non-group)","room_assignment":["yellow","purple","grey","pink","brown","green","blue","red"],"door_color_assignment":["black","white"],"door_generator_assignment":[0,1],"goal":2,"start":1,"action_noise":0.1,"location_history":"[1,2]","action_history":"[0]","door_history":"[0]","location_rts":"[1148]","trial_type":"two-door-navigation","trial_index":4,"time_elapsed":52327,"internal_node_id":"0.0-2.0-2.0"},{"group":"square cycles (cube, non-group)","room_assignment":["yellow","purple","grey","pink","brown","green","blue","red"],"door_color_assignment":["black","white"],"door_generator_assignment":[0,1],"goal":0,"start":2,"action_noise":0.1,"location_history":"[2,6,5,4,5,4,7,6,7,3,2,3,2,6,5,4,5,1,2,3,0]","action_history":"[1,0,0,1,1,0,0,1,1,0,0,1,1,0,0,1,1,0,0,0]","door_history":"[1,0,0,1,1,0,0,1,1,0,0,1,1,0,0,1,1,0,0,0]","location_rts":"[785,742,672,1198,712,747,748,754,808,566,920,634,678,560,612,833,1386,409,2477,2262]","trial_type":"two-door-navigation","trial_index":5,"time_elapsed":94989,"internal_node_id":"0.0-2.0-3.0"},{"group":"square cycles (cube, non-group)","room_assignment":["yellow","purple","grey","pink","brown","green","blue","red"],"door_color_assignment":["black","white"],"door_generator_assignment":[0,1],"goal":7,"start":0,"action_noise":0.1,"location_history":"[0,1,2,6,5,4,7]","action_history":"[0,1,1,0,0,0]","door_history":"[0,1,1,0,0,0]","location_rts":"[978,851,838,2655,2135,2343]","trial_type":"two-door-navigation","trial_index":6,"time_elapsed":114468,"internal_node_id":"0.0-2.0-4.0"},{"group":"square cycles (cube, non-group)","room_assignment":["yellow","purple","grey","pink","brown","green","blue","red"],"door_color_assignment":["black","white"],"door_generator_assignment":[0,1],"goal":5,"start":7,"action_noise":0.1,"location_history":"[7,3,2,3,0,1,0,4,7,6,7,3,2,3,0,1,2,6,7,6,7,6,7,6,7,6,7,6,5]","action_history":"[0,1,1,0,0,1,1,0,0,0,1,1,0,0,0,0,1,1,0,1,0,1,0,1,0,1,0,0]","door_history":"[0,1,1,0,0,1,1,0,0,0,1,1,0,0,0,0,1,1,0,1,0,1,0,1,0,1,0,0]","location_rts":"[12947,66,519,279,463,860,615,711,1826,1576,704,505,637,1830,621,435,808,1761,1029,1035,878,600,814,435,300,227,240,696]","trial_type":"two-door-navigation","trial_index":7,"time_elapsed":180226,"internal_node_id":"0.0-2.0-5.0"},{"group":"square cycles (cube, non-group)","room_assignment":["yellow","purple","grey","pink","brown","green","blue","red"],"door_color_assignment":["black","white"],"door_generator_assignment":[0,1],"goal":4,"start":5,"action_noise":0.1,"location_history":"[5,4]","action_history":"[0]","door_history":"[0]","location_rts":"[1095]","trial_type":"two-door-navigation","trial_index":8,"time_elapsed":185869,"internal_node_id":"0.0-2.0-6.0"},{"group":"square cycles (cube, non-group)","room_assignment":["yellow","purple","grey","pink","brown","green","blue","red"],"door_color_assignment":["black","white"],"door_generator_assignment":[0,1],"goal":2,"start":4,"action_noise":0.1,"location_history":"[4,7,6,5,1,0,1,2]","action_history":"[1,0,0,1,1,0,0]","door_history":"[1,0,0,1,1,0,0]","location_rts":"[729,144,679,689,732,115,944]","trial_type":"two-door-navigation","trial_index":9,"time_elapsed":200585,"internal_node_id":"0.0-2.0-7.0"},{"group":"square cycles (cube, non-group)","room_assignment":["yellow","purple","grey","pink","brown","green","blue","red"],"door_color_assignment":["black","white"],"door_generator_assignment":[0,1],"goal":3,"start":2,"action_noise":0.1,"location_history":"[2,3]","action_history":"[0]","door_history":"[0]","location_rts":"[965]","trial_type":"two-door-navigation","trial_index":10,"time_elapsed":206087,"internal_node_id":"0.0-2.0-8.0"},{"group":"square cycles (cube, non-group)","room_assignment":["yellow","purple","grey","pink","brown","green","blue","red"],"door_color_assignment":["black","white"],"door_generator_assignment":[0,1],"goal":7,"start":3,"action_noise":0.1,"location_history":"[3,2,6,5,4,7]","action_history":"[1,0,0,1,0]","door_history":"[1,0,0,1,0]","location_rts":"[679,340,669,871,745]","trial_type":"two-door-navigation","trial_index":11,"time_elapsed":218126,"internal_node_id":"0.0-2.0-9.0"},{"group":"square cycles (cube, non-group)","room_assignment":["yellow","purple","grey","pink","brown","green","blue","red"],"door_color_assignment":["black","white"],"door_generator_assignment":[0,1],"goal":0,"start":7,"action_noise":0.1,"location_history":"[7,6,7,6,5,1,0]","action_history":"[0,1,0,0,1,1]","door_history":"[0,1,0,0,1,1]","location_rts":"[878,660,1131,2571,100,879]","trial_type":"two-door-navigation","trial_index":12,"time_elapsed":234029,"internal_node_id":"0.0-2.0-10.0"},{"group":"square cycles (cube, non-group)","room_assignment":["yellow","purple","grey","pink","brown","green","blue","red"],"door_color_assignment":["black","white"],"door_generator_assignment":[0,1],"goal":1,"start":0,"action_noise":0.1,"location_history":"[0,1]","action_history":"[0]","door_history":"[0]","location_rts":"[1504]","trial_type":"two-door-navigation","trial_index":13,"time_elapsed":240091,"internal_node_id":"0.0-2.0-11.0"},{"group":"square cycles (cube, non-group)","room_assignment":["yellow","purple","grey","pink","brown","green","blue","red"],"door_color_assignment":["black","white"],"door_generator_assignment":[0,1],"goal":6,"start":1,"action_noise":0.1,"location_history":"[1,0,1,2,6]","action_history":"[1,0,0,1]","door_history":"[1,0,0,1]","location_rts":"[730,839,1113,906]","trial_type":"two-door-navigation","trial_index":14,"time_elapsed":251598,"internal_node_id":"0.0-2.0-12.0"},{"group":"square cycles (cube, non-group)","room_assignment":["yellow","purple","grey","pink","brown","green","blue","red"],"door_color_assignment":["black","white"],"door_generator_assignment":[0,1],"goal":4,"start":6,"action_noise":0.1,"location_history":"[6,5,1,2,6,7,6,5,1,0,1,2,6,7,3,0,1,0,4]","action_history":"[0,0,0,1,1,0,0,1,1,0,0,1,1,1,0,0,1,1]","door_history":"[0,0,0,1,1,0,0,1,1,0,0,1,1,1,0,0,1,1]","location_rts":"[777,477,2587,55,1408,637,456,662,549,425,1521,933,2377,658,416,623,1577,1336]","trial_type":"two-door-navigation","trial_index":15,"time_elapsed":292445,"internal_node_id":"0.0-2.0-13.0"},{"group":"square cycles (cube, non-group)","room_assignment":["yellow","purple","grey","pink","brown","green","blue","red"],"door_color_assignment":["black","white"],"door_generator_assignment":[0,1],"goal":5,"start":4,"action_noise":0.1,"location_history":"[4,7,3,2,6,5]","action_history":"[0,1,1,0,0]","door_history":"[0,1,1,0,0]","location_rts":"[735,725,760,831,724]","trial_type":"two-door-navigation","trial_index":16,"time_elapsed":305180,"internal_node_id":"0.0-2.0-14.0"},{"group":"square cycles (cube, non-group)","room_assignment":["yellow","purple","grey","pink","brown","green","blue","red"],"door_color_assignment":["black","white"],"door_generator_assignment":[0,1],"goal":4,"start":5,"action_noise":0.1,"location_history":"[5,4]","action_history":"[0]","door_history":"[0]","location_rts":"[713]","trial_type":"two-door-navigation","trial_index":17,"time_elapsed":310522,"internal_node_id":"0.0-2.0-15.0"},{"group":"square cycles (cube, non-group)","room_assignment":["yellow","purple","grey","pink","brown","green","blue","red"],"door_color_assignment":["black","white"],"door_generator_assignment":[0,1],"goal":0,"start":4,"action_noise":0.1,"location_history":"[4,5,4,7,3,0]","action_history":"[1,0,0,1,0]","door_history":"[1,0,0,1,0]","location_rts":"[863,2070,720,766,844]","trial_type":"two-door-navigation","trial_index":18,"time_elapsed":324760,"internal_node_id":"0.0-2.0-16.0"},{"group":"square cycles (cube, non-group)","room_assignment":["yellow","purple","grey","pink","brown","green","blue","red"],"door_color_assignment":["black","white"],"door_generator_assignment":[0,1],"goal":7,"start":0,"action_noise":0.1,"location_history":"[0,1,2,6,5,4,7]","action_history":"[0,1,1,0,0,1]","door_history":"[0,1,1,0,0,1]","location_rts":"[738,661,716,251,691,967]","trial_type":"two-door-navigation","trial_index":19,"time_elapsed":339503,"internal_node_id":"0.0-2.0-17.0"},{"group":"square cycles (cube, non-group)","room_assignment":["yellow","purple","grey","pink","brown","green","blue","red"],"door_color_assignment":["black","white"],"door_generator_assignment":[0,1],"goal":2,"start":7,"action_noise":0.1,"location_history":"[7,6,7,6,5,1,0,1,2]","action_history":"[0,1,0,0,1,1,0,0]","door_history":"[0,1,0,0,1,1,0,0]","location_rts":"[728,640,301,668,144,907,128,742]","trial_type":"two-door-navigation","trial_index":20,"time_elapsed":356416,"internal_node_id":"0.0-2.0-18.0"},{"group":"square cycles (cube, non-group)","room_assignment":["yellow","purple","grey","pink","brown","green","blue","red"],"door_color_assignment":["black","white"],"door_generator_assignment":[0,1],"goal":1,"start":2,"action_noise":0.1,"location_history":"[2,6,7,3,0,1]","action_history":"[0,1,1,0,0]","door_history":"[0,1,1,0,0]","location_rts":"[659,348,467,204,450]","trial_type":"two-door-navigation","trial_index":21,"time_elapsed":367754,"internal_node_id":"0.0-2.0-19.0"},{"group":"square cycles (cube, non-group)","room_assignment":["yellow","purple","grey","pink","brown","green","blue","red"],"door_color_assignment":["black","white"],"door_generator_assignment":[0,1],"goal":3,"start":1,"action_noise":0.1,"location_history":"[1,0,1,2,6,7,6,5,1,2,3]","action_history":"[1,0,0,1,1,0,0,1,1,0]","door_history":"[1,0,0,1,1,0,0,1,1,0]","location_rts":"[760,346,858,606,3812,96,148,20,628,337]","trial_type":"two-door-navigation","trial_index":22,"time_elapsed":389847,"internal_node_id":"0.0-2.0-20.0"},{"group":"square cycles (cube, non-group)","room_assignment":["yellow","purple","grey","pink","brown","green","blue","red"],"door_color_assignment":["black","white"],"door_generator_assignment":[0,1],"goal":6,"start":3,"action_noise":0.1,"location_history":"[3,0,1,0,1,2,6]","action_history":"[0,1,1,0,0,1]","door_history":"[0,1,1,0,0,1]","location_rts":"[798,1031,672,15,716,608]","trial_type":"two-door-navigation","trial_index":23,"time_elapsed":403810,"internal_node_id":"0.0-2.0-21.0"},{"group":"square cycles (cube, non-group)","room_assignment":["yellow","purple","grey","pink","brown","green","blue","red"],"door_color_assignment":["black","white"],"door_generator_assignment":[0,1],"goal":5,"start":6,"action_noise":0.1,"location_history":"[6,5]","action_history":"[0]","door_history":"[0]","location_rts":"[900]","trial_type":"two-door-navigation","trial_index":24,"time_elapsed":409547,"internal_node_id":"0.0-2.0-22.0"},{"group":"square cycles (cube, non-group)","room_assignment":["yellow","purple","grey","pink","brown","green","blue","red"],"door_color_assignment":["black","white"],"door_generator_assignment":[0,1],"goal":3,"start":5,"action_noise":0.1,"location_history":"[5,1,2,3]","action_history":"[1,0,0]","door_history":"[1,0,0]","location_rts":"[723,222,963]","trial_type":"two-door-navigation","trial_index":25,"time_elapsed":418338,"internal_node_id":"0.0-2.0-23.0"},{"group":"square cycles (cube, non-group)","room_assignment":["yellow","purple","grey","pink","brown","green","blue","red"],"door_color_assignment":["black","white"],"door_generator_assignment":[0,1],"goal":0,"start":3,"action_noise":0.1,"location_history":"[3,2,3,0]","action_history":"[1,0,0]","door_history":"[1,0,0]","location_rts":"[737,418,684]","trial_type":"two-door-navigation","trial_index":26,"time_elapsed":427101,"internal_node_id":"0.0-2.0-24.0"},{"group":"square cycles (cube, non-group)","room_assignment":["yellow","purple","grey","pink","brown","green","blue","red"],"door_color_assignment":["black","white"],"door_generator_assignment":[0,1],"goal":7,"start":0,"action_noise":0.1,"location_history":"[0,4,5,4,5,4,7]","action_history":"[1,0,0,1,0,0]","door_history":"[1,0,0,1,0,0]","location_rts":"[761,1221,878,763,1136,654]","trial_type":"two-door-navigation","trial_index":27,"time_elapsed":442615,"internal_node_id":"0.0-2.0-25.0"},{"group":"square cycles (cube, non-group)","room_assignment":["yellow","purple","grey","pink","brown","green","blue","red"],"door_color_assignment":["black","white"],"door_generator_assignment":[0,1],"goal":2,"start":7,"action_noise":0.1,"location_history":"[7,3,0,1,0,4,7,6,7,6,5,1,0,1,2]","action_history":"[1,0,0,1,1,0,0,1,0,0,1,1,0,0]","door_history":"[1,0,0,1,1,0,0,1,0,0,1,1,0,0]","location_rts":"[745,691,893,729,642,210,594,912,524,696,261,658,28,681]","trial_type":"two-door-navigation","trial_index":28,"time_elapsed":470290,"internal_node_id":"0.0-2.0-26.0"},{"group":"square cycles (cube, non-group)","room_assignment":["yellow","purple","grey","pink","brown","green","blue","red"],"door_color_assignment":["black","white"],"door_generator_assignment":[0,1],"goal":1,"start":2,"action_noise":0.1,"location_history":"[2,6,5,1]","action_history":"[0,0,1]","door_history":"[0,0,1]","location_rts":"[695,314,918]","trial_type":"two-door-navigation","trial_index":29,"time_elapsed":479161,"internal_node_id":"0.0-2.0-27.0"},{"group":"square cycles (cube, non-group)","room_assignment":["yellow","purple","grey","pink","brown","green","blue","red"],"door_color_assignment":["black","white"],"door_generator_assignment":[0,1],"goal":5,"start":1,"action_noise":0.1,"location_history":"[1,0,1,0,4,7,6,7,3,0,1,0,1,0,4,7,3,2,3,2,3,2,6,5]","action_history":"[0,0,1,1,0,0,1,1,0,0,1,0,1,1,0,1,1,0,0,0,1,1,0]","door_history":"[0,0,1,1,0,0,1,1,0,0,1,0,1,1,0,1,1,0,0,0,1,1,0]","location_rts":"[904,720,490,841,1080,838,984,858,308,888,808,4,32,499,484,624,619,257,796,604,567,892,120]","trial_type":"two-door-navigation","trial_index":30,"time_elapsed":522399,"internal_node_id":"0.0-2.0-28.0"},{"group":"square cycles (cube, non-group)","room_assignment":["yellow","purple","grey","pink","brown","green","blue","red"],"door_color_assignment":["black","white"],"door_generator_assignment":[0,1],"goal":4,"start":5,"action_noise":0.1,"location_history":"[5,4]","action_history":"[0]","door_history":"[0]","location_rts":"[578]","trial_type":"two-door-navigation","trial_index":31,"time_elapsed":527692,"internal_node_id":"0.0-2.0-29.0"},{"group":"square cycles (cube, non-group)","room_assignment":["yellow","purple","grey","pink","brown","green","blue","red"],"door_color_assignment":["black","white"],"door_generator_assignment":[0,1],"goal":6,"start":4,"action_noise":0.1,"location_history":"[4,5,4,7,3,2,6]","action_history":"[1,0,0,1,1,0]","door_history":"[1,0,0,1,1,0]","location_rts":"[708,583,552,396,617,291]","trial_type":"two-door-navigation","trial_index":32,"time_elapsed":540803,"internal_node_id":"0.0-2.0-30.0"},{"group":"square cycles (cube, non-group)","room_assignment":["yellow","purple","grey","pink","brown","green","blue","red"],"door_color_assignment":["black","white"],"door_generator_assignment":[0,1],"goal":4,"start":6,"action_noise":0.1,"location_history":"[6,5,1,0,1,2,3,2,3,0,1,0,4]","action_history":"[0,1,1,0,0,0,1,1,0,0,1,1]","door_history":"[0,1,1,0,0,0,1,1,0,0,1,1]","location_rts":"[812,259,394,163,782,595,187,632,432,616,1756,695]","trial_type":"two-door-navigation","trial_index":33,"time_elapsed":565620,"internal_node_id":"0.0-2.0-31.0"},{"group":"square cycles (cube, non-group)","room_assignment":["yellow","purple","grey","pink","brown","green","blue","red"],"door_color_assignment":["black","white"],"door_generator_assignment":[0,1],"goal":2,"start":4,"action_noise":0.1,"location_history":"[4,7,6,7,3,0,1,0,1,2]","action_history":"[0,0,1,1,0,0,1,1,0]","door_history":"[0,0,1,1,0,0,1,1,0]","location_rts":"[767,703,801,718,604,648,604,667,738]","trial_type":"two-door-navigation","trial_index":34,"time_elapsed":585587,"internal_node_id":"0.0-2.0-32.0"},{"group":"square cycles (cube, non-group)","room_assignment":["yellow","purple","grey","pink","brown","green","blue","red"],"door_color_assignment":["black","white"],"door_generator_assignment":[0,1],"goal":0,"start":2,"action_noise":0.1,"location_history":"[2,3,2,3,0]","action_history":"[0,1,0,0]","door_history":"[0,1,0,0]","location_rts":"[799,518,282,582]","trial_type":"two-door-navigation","trial_index":35,"time_elapsed":595872,"internal_node_id":"0.0-2.0-33.0"},{"group":"square cycles (cube, non-group)","room_assignment":["yellow","purple","grey","pink","brown","green","blue","red"],"door_color_assignment":["black","white"],"door_generator_assignment":[0,1],"goal":5,"start":0,"action_noise":0.1,"location_history":"[0,1,0,4,7,6,7,3,0,1,0,4,7,6,7,6,5]","action_history":"[0,1,1,0,0,1,1,0,0,1,1,0,0,1,1,0]","door_history":"[0,1,1,0,0,1,1,0,0,1,1,0,0,1,1,0]","location_rts":"[817,728,483,688,772,239,653,459,851,769,637,194,916,829,594,465]","trial_type":"two-door-navigation","trial_index":36,"time_elapsed":627168,"internal_node_id":"0.0-2.0-34.0"},{"group":"square cycles (cube, non-group)","room_assignment":["yellow","purple","grey","pink","brown","green","blue","red"],"door_color_assignment":["black","white"],"door_generator_assignment":[0,1],"goal":1,"start":5,"action_noise":0.1,"location_history":"[5,4,5,1]","action_history":"[0,1,1]","door_history":"[0,1,1]","location_rts":"[838,618,704]","trial_type":"two-door-navigation","trial_index":37,"time_elapsed":636214,"internal_node_id":"0.0-2.0-35.0"},{"group":"square cycles (cube, non-group)","room_assignment":["yellow","purple","grey","pink","brown","green","blue","red"],"door_color_assignment":["black","white"],"door_generator_assignment":[0,1],"goal":7,"start":1,"action_noise":0.1,"location_history":"[1,2,6,5,4,5,1,2,3,2,3,0,4,5,1,2,6,7]","action_history":"[0,1,0,0,1,1,0,0,1,0,0,1,1,0,0,1,1]","door_history":"[0,1,0,0,1,1,0,0,1,0,0,1,1,0,0,1,1]","location_rts":"[895,1061,829,712,645,652,145,712,421,484,437,660,559,628,661,1009,741]","trial_type":"two-door-navigation","trial_index":38,"time_elapsed":669808,"internal_node_id":"0.0-2.0-36.0"},{"group":"square cycles (cube, non-group)","room_assignment":["yellow","purple","grey","pink","brown","green","blue","red"],"door_color_assignment":["black","white"],"door_generator_assignment":[0,1],"goal":3,"start":7,"action_noise":0.1,"location_history":"[7,6,5,1,2,3]","action_history":"[0,1,1,0,0]","door_history":"[0,1,1,0,0]","location_rts":"[710,345,457,378,284]","trial_type":"two-door-navigation","trial_index":39,"time_elapsed":680889,"internal_node_id":"0.0-2.0-37.0"},{"group":"square cycles (cube, non-group)","room_assignment":["yellow","purple","grey","pink","brown","green","blue","red"],"door_color_assignment":["black","white"],"door_generator_assignment":[0,1],"goal":6,"start":3,"action_noise":0.1,"location_history":"[3,0,4,7,6]","action_history":"[0,1,0,0]","door_history":"[0,1,0,0]","location_rts":"[7984,3581,251,641]","trial_type":"two-door-navigation","trial_index":40,"time_elapsed":701213,"internal_node_id":"0.0-2.0-38.0"},{"group":"square cycles (cube, non-group)","room_assignment":["yellow","purple","grey","pink","brown","green","blue","red"],"door_color_assignment":["black","white"],"door_generator_assignment":[0,1],"goal":2,"start":6,"action_noise":0.1,"location_history":"[6,5,4,7,6,7,3,2]","action_history":"[1,0,0,0,1,1,1]","door_history":"[1,0,0,0,1,1,1]","location_rts":"[914,527,665,7602,690,766,622]","trial_type":"two-door-navigation","trial_index":41,"time_elapsed":724354,"internal_node_id":"0.0-2.0-39.0"},{"group":"square cycles (cube, non-group)","room_assignment":["yellow","purple","grey","pink","brown","green","blue","red"],"door_color_assignment":["black","white"],"door_generator_assignment":[0,1],"goal":1,"start":2,"action_noise":0.1,"location_history":"[2,6,5,4,5,1]","action_history":"[1,0,0,1,1]","door_history":"[1,0,0,1,1]","location_rts":"[704,624,752,852,815]","trial_type":"two-door-navigation","trial_index":42,"time_elapsed":736971,"internal_node_id":"0.0-2.0-40.0"},{"group":"square cycles (cube, non-group)","room_assignment":["yellow","purple","grey","pink","brown","green","blue","red"],"door_color_assignment":["black","white"],"door_generator_assignment":[0,1],"goal":0,"start":1,"action_noise":0.1,"location_history":"[1,2,3,2,3,0]","action_history":"[0,0,1,1,0]","door_history":"[0,0,1,1,0]","location_rts":"[670,790,1059,3638,312]","trial_type":"two-door-navigation","trial_index":43,"time_elapsed":752494,"internal_node_id":"0.0-2.0-41.0"},{"group":"square cycles (cube, non-group)","room_assignment":["yellow","purple","grey","pink","brown","green","blue","red"],"door_color_assignment":["black","white"],"door_generator_assignment":[0,1],"goal":4,"start":0,"action_noise":0.1,"location_history":"[0,4]","action_history":"[1]","door_history":"[1]","location_rts":"[937]","trial_type":"two-door-navigation","trial_index":44,"time_elapsed":758081,"internal_node_id":"0.0-2.0-42.0"},{"group":"square cycles (cube, non-group)","room_assignment":["yellow","purple","grey","pink","brown","green","blue","red"],"door_color_assignment":["black","white"],"door_generator_assignment":[0,1],"goal":6,"start":4,"action_noise":0.1,"location_history":"[4,5,4,7,3,2,6]","action_history":"[0,0,0,1,1,1]","door_history":"[0,0,0,1,1,1]","location_rts":"[1158,668,1898,2159,1372,476]","trial_type":"two-door-navigation","trial_index":45,"time_elapsed":775851,"internal_node_id":"0.0-2.0-43.0"},{"group":"square cycles (cube, non-group)","room_assignment":["yellow","purple","grey","pink","brown","green","blue","red"],"door_color_assignment":["black","white"],"door_generator_assignment":[0,1],"goal":3,"start":6,"action_noise":0.1,"location_history":"[6,5,1,0,4,5,4,7,3]","action_history":"[0,0,1,1,1,0,0,1]","door_history":"[0,0,1,1,1,0,0,1]","location_rts":"[741,790,320,1010,1211,1096,744,1095]","trial_type":"two-door-navigation","trial_index":46,"time_elapsed":795281,"internal_node_id":"0.0-2.0-44.0"},{"group":"square cycles (cube, non-group)","room_assignment":["yellow","purple","grey","pink","brown","green","blue","red"],"door_color_assignment":["black","white"],"door_generator_assignment":[0,1],"goal":7,"start":3,"action_noise":0.1,"location_history":"[3,0,1,2,3,2,6,5,4,7]","action_history":"[1,0,0,0,1,1,0,0,0]","door_history":"[1,0,0,0,1,1,0,0,0]","location_rts":"[755,1601,868,686,856,964,222,802,875]","trial_type":"two-door-navigation","trial_index":47,"time_elapsed":816779,"internal_node_id":"0.0-2.0-45.0"},{"group":"square cycles (cube, non-group)","room_assignment":["yellow","purple","grey","pink","brown","green","blue","red"],"door_color_assignment":["black","white"],"door_generator_assignment":[0,1],"goal":5,"start":7,"action_noise":0.1,"location_history":"[7,6,7,6,5]","action_history":"[0,1,1,0]","door_history":"[0,1,1,0]","location_rts":"[145,534,1198,772]","trial_type":"two-door-navigation","trial_index":48,"time_elapsed":827243,"internal_node_id":"0.0-2.0-46.0"},{"group":"square cycles (cube, non-group)","room_assignment":["yellow","purple","grey","pink","brown","green","blue","red"],"door_color_assignment":["black","white"],"door_generator_assignment":[0,1],"goal":1,"start":5,"action_noise":0.1,"location_history":"[5,4,5,1]","action_history":"[0,1,1]","door_history":"[0,1,1]","location_rts":"[657,617,629]","trial_type":"two-door-navigation","trial_index":49,"time_elapsed":835874,"internal_node_id":"0.0-2.0-47.0"},{"group":"square cycles (cube, non-group)","room_assignment":["yellow","purple","grey","pink","brown","green","blue","red"],"door_color_assignment":["black","white"],"door_generator_assignment":[0,1],"goal":6,"start":1,"action_noise":0.1,"location_history":"[1,2,3,0,1,0,4,7,6]","action_history":"[0,0,0,1,1,0,0,1]","door_history":"[0,0,0,1,1,0,0,1]","location_rts":"[687,773,660,758,719,727,733,532]","trial_type":"two-door-navigation","trial_index":50,"time_elapsed":853917,"internal_node_id":"0.0-2.0-48.0"},{"group":"square cycles (cube, non-group)","room_assignment":["yellow","purple","grey","pink","brown","green","blue","red"],"door_color_assignment":["black","white"],"door_generator_assignment":[0,1],"goal":0,"start":6,"action_noise":0.1,"location_history":"[6,7,6,5,4,7,3,0]","action_history":"[1,0,0,0,1,1,0]","door_history":"[1,0,0,0,1,1,0]","location_rts":"[819,523,723,709,735,720,343]","trial_type":"two-door-navigation","trial_index":51,"time_elapsed":869793,"internal_node_id":"0.0-2.0-49.0"},{"view_history":"[{\"page_index\":0,\"viewing_time\":904484}]","rt":904485,"trial_type":"instructions","trial_index":52,"time_elapsed":1775290,"internal_node_id":"0.0-3.0"},{"view_history":"[{\"page_index\":0,\"viewing_time\":7575},{\"page_index\":1,\"viewing_time\":1410}]","rt":8986,"trial_type":"instructions","trial_index":53,"time_elapsed":1785289,"internal_node_id":"0.0-4.0"},{"group":"square cycles (cube, non-group)","fractal_assignment":["../images/cyn_red.png","../images/pnk_blu.png","../images/ylw_slt.png","../images/grn_red.png","../images/blu_wht.png","../images/org_blu.png","../images/ylw_pnk.png","../images/gry_blk.png"],"mutagen_generator_assignment":[1,0],"goal":6,"start":3,"action_noise":0.1,"location_history":"[3,2,3,0,4,7,6]","action_history":"[1,0,0,1,0,0]","mutagen_history":"[0,1,1,0,1,1]","location_rts":"[9169,453,38,808,565,205]","trial_type":"fractal-mutation","trial_index":54,"time_elapsed":1807687,"internal_node_id":"0.0-5.0-0.0"},{"group":"square cycles (cube, non-group)","fractal_assignment":["../images/cyn_red.png","../images/pnk_blu.png","../images/ylw_slt.png","../images/grn_red.png","../images/blu_wht.png","../images/org_blu.png","../images/ylw_pnk.png","../images/gry_blk.png"],"mutagen_generator_assignment":[1,0],"goal":1,"start":6,"action_noise":0.1,"location_history":"[6,7,6,5,1]","action_history":"[1,0,0,1]","mutagen_history":"[0,1,1,0]","location_rts":"[644,342,42,1037]","trial_type":"fractal-mutation","trial_index":55,"time_elapsed":1818576,"internal_node_id":"0.0-5.0-1.0"},{"group":"square cycles (cube, non-group)","fractal_assignment":["../images/cyn_red.png","../images/pnk_blu.png","../images/ylw_slt.png","../images/grn_red.png","../images/blu_wht.png","../images/org_blu.png","../images/ylw_pnk.png","../images/gry_blk.png"],"mutagen_generator_assignment":[1,0],"goal":2,"start":1,"action_noise":0.1,"location_history":"[1,2]","action_history":"[0]","mutagen_history":"[1]","location_rts":"[717]","trial_type":"fractal-mutation","trial_index":56,"time_elapsed":1824220,"internal_node_id":"0.0-5.0-2.0"},{"group":"square cycles (cube, non-group)","fractal_assignment":["../images/cyn_red.png","../images/pnk_blu.png","../images/ylw_slt.png","../images/grn_red.png","../images/blu_wht.png","../images/org_blu.png","../images/ylw_pnk.png","../images/gry_blk.png"],"mutagen_generator_assignment":[1,0],"goal":0,"start":2,"action_noise":0.1,"location_history":"[2,6,5,4,7,3,2,3,2,6,5,4,7,3,2,6,7,6,5,1,0]","action_history":"[1,0,0,0,1,1,0,0,1,1,0,0,1,1,1,0,0,0,1,1]","mutagen_history":"[0,1,1,1,0,0,1,1,0,0,1,1,0,0,0,1,1,1,0,0]","location_rts":"[642,352,401,353,303,165,507,532,242,271,491,494,140,154,678,539,288,758,123,502]","trial_type":"fractal-mutation","trial_index":57,"time_elapsed":1860732,"internal_node_id":"0.0-5.0-3.0"},{"group":"square cycles (cube, non-group)","fractal_assignment":["../images/cyn_red.png","../images/pnk_blu.png","../images/ylw_slt.png","../images/grn_red.png","../images/blu_wht.png","../images/org_blu.png","../images/ylw_pnk.png","../images/gry_blk.png"],"mutagen_generator_assignment":[1,0],"goal":7,"start":0,"action_noise":0.1,"location_history":"[0,4,7]","action_history":"[1,0]","mutagen_history":"[0,1]","location_rts":"[17516,859]","trial_type":"fractal-mutation","trial_index":58,"time_elapsed":1885514,"internal_node_id":"0.0-5.0-4.0"},{"group":"square cycles (cube, non-group)","fractal_assignment":["../images/cyn_red.png","../images/pnk_blu.png","../images/ylw_slt.png","../images/grn_red.png","../images/blu_wht.png","../images/org_blu.png","../images/ylw_pnk.png","../images/gry_blk.png"],"mutagen_generator_assignment":[1,0],"goal":5,"start":7,"action_noise":0.1,"location_history":"[7,6,7,3,2,3,0,4,5]","action_history":"[0,1,1,1,0,0,1,1]","mutagen_history":"[1,0,0,0,1,1,0,0]","location_rts":"[722,787,774,692,729,202,310,1067]","trial_type":"fractal-mutation","trial_index":59,"time_elapsed":1903935,"internal_node_id":"0.0-5.0-5.0"},{"group":"square cycles (cube, non-group)","fractal_assignment":["../images/cyn_red.png","../images/pnk_blu.png","../images/ylw_slt.png","../images/grn_red.png","../images/blu_wht.png","../images/org_blu.png","../images/ylw_pnk.png","../images/gry_blk.png"],"mutagen_generator_assignment":[1,0],"goal":4,"start":5,"action_noise":0.1,"location_history":"[5,4]","action_history":"[0]","mutagen_history":"[1]","location_rts":"[292]","trial_type":"fractal-mutation","trial_index":60,"time_elapsed":1908977,"internal_node_id":"0.0-5.0-6.0"},{"group":"square cycles (cube, non-group)","fractal_assignment":["../images/cyn_red.png","../images/pnk_blu.png","../images/ylw_slt.png","../images/grn_red.png","../images/blu_wht.png","../images/org_blu.png","../images/ylw_pnk.png","../images/gry_blk.png"],"mutagen_generator_assignment":[1,0],"goal":2,"start":4,"action_noise":0.1,"location_history":"[4,5,4,7,6,5,1,0,4,7,6,7,3,0,1,0,4,7,6,5,1,0,4,5,1,0,4,7,6,5,4,7,6,5,1,0,4,7,6,7,6,7,3,0,1,2]","action_history":"[1,1,0,0,0,1,1,1,0,0,1,1,0,0,1,1,1,0,0,1,1,1,1,1,1,1,0,0,0,0,0,0,0,1,1,1,0,0,1,0,1,1,0,0,0]","mutagen_history":"[0,0,1,1,1,0,0,0,1,1,0,0,1,1,0,0,0,1,1,0,0,0,0,0,0,0,1,1,1,1,1,1,1,0,0,0,1,1,0,1,0,0,1,1,1]","location_rts":"[2556,1478,1127,189,662,721,461,2244,684,129,458,359,283,3639,72,829,1251,1168,958,339,432,805,684,779,839,985,237,942,832,1292,1099,865,945,238,492,495,692,743,798,259,1104,856,684,854,763]","trial_type":"fractal-mutation","trial_index":61,"time_elapsed":2008280,"internal_node_id":"0.0-5.0-7.0"},{"group":"square cycles (cube, non-group)","fractal_assignment":["../images/cyn_red.png","../images/pnk_blu.png","../images/ylw_slt.png","../images/grn_red.png","../images/blu_wht.png","../images/org_blu.png","../images/ylw_pnk.png","../images/gry_blk.png"],"mutagen_generator_assignment":[1,0],"goal":3,"start":2,"action_noise":0.1,"location_history":"[2,3]","action_history":"[0]","mutagen_history":"[1]","location_rts":"[2385]","trial_type":"fractal-mutation","trial_index":62,"time_elapsed":2015708,"internal_node_id":"0.0-5.0-8.0"},{"group":"square cycles (cube, non-group)","fractal_assignment":["../images/cyn_red.png","../images/pnk_blu.png","../images/ylw_slt.png","../images/grn_red.png","../images/blu_wht.png","../images/org_blu.png","../images/ylw_pnk.png","../images/gry_blk.png"],"mutagen_generator_assignment":[1,0],"goal":7,"start":3,"action_noise":0.1,"location_history":"[3,0,4,5,4,7]","action_history":"[0,1,1,0,0]","mutagen_history":"[1,0,0,1,1]","location_rts":"[10991,787,333,750,289]","trial_type":"fractal-mutation","trial_index":63,"time_elapsed":2038595,"internal_node_id":"0.0-5.0-9.0"},{"group":"square cycles (cube, non-group)","fractal_assignment":["../images/cyn_red.png","../images/pnk_blu.png","../images/ylw_slt.png","../images/grn_red.png","../images/blu_wht.png","../images/org_blu.png","../images/ylw_pnk.png","../images/gry_blk.png"],"mutagen_generator_assignment":[1,0],"goal":0,"start":7,"action_noise":0.1,"location_history":"[7,6,5,4,5,1,0]","action_history":"[1,0,0,1,1,1]","mutagen_history":"[0,1,1,0,0,0]","location_rts":"[835,885,516,746,791,677]","trial_type":"fractal-mutation","trial_index":64,"time_elapsed":2054570,"internal_node_id":"0.0-5.0-10.0"},{"group":"square cycles (cube, non-group)","fractal_assignment":["../images/cyn_red.png","../images/pnk_blu.png","../images/ylw_slt.png","../images/grn_red.png","../images/blu_wht.png","../images/org_blu.png","../images/ylw_pnk.png","../images/gry_blk.png"],"mutagen_generator_assignment":[1,0],"goal":1,"start":0,"action_noise":0.1,"location_history":"[0,1]","action_history":"[0]","mutagen_history":"[1]","location_rts":"[2957]","trial_type":"fractal-mutation","trial_index":65,"time_elapsed":2062240,"internal_node_id":"0.0-5.0-11.0"},{"group":"square cycles (cube, non-group)","fractal_assignment":["../images/cyn_red.png","../images/pnk_blu.png","../images/ylw_slt.png","../images/grn_red.png","../images/blu_wht.png","../images/org_blu.png","../images/ylw_pnk.png","../images/gry_blk.png"],"mutagen_generator_assignment":[1,0],"goal":6,"start":1,"action_noise":0.1,"location_history":"[1,2,6]","action_history":"[0,1]","mutagen_history":"[1,0]","location_rts":"[11013,1065]","trial_type":"fractal-mutation","trial_index":66,"time_elapsed":2080215,"internal_node_id":"0.0-5.0-12.0"},{"group":"square cycles (cube, non-group)","fractal_assignment":["../images/cyn_red.png","../images/pnk_blu.png","../images/ylw_slt.png","../images/grn_red.png","../images/blu_wht.png","../images/org_blu.png","../images/ylw_pnk.png","../images/gry_blk.png"],"mutagen_generator_assignment":[1,0],"goal":4,"start":6,"action_noise":0.1,"location_history":"[6,5,4]","action_history":"[0,0]","mutagen_history":"[1,1]","location_rts":"[692,643]","trial_type":"fractal-mutation","trial_index":67,"time_elapsed":2087559,"internal_node_id":"0.0-5.0-13.0"},{"group":"square cycles (cube, non-group)","fractal_assignment":["../images/cyn_red.png","../images/pnk_blu.png","../images/ylw_slt.png","../images/grn_red.png","../images/blu_wht.png","../images/org_blu.png","../images/ylw_pnk.png","../images/gry_blk.png"],"mutagen_generator_assignment":[1,0],"goal":5,"start":4,"action_noise":0.1,"location_history":"[4,5]","action_history":"[1]","mutagen_history":"[0]","location_rts":"[668]","trial_type":"fractal-mutation","trial_index":68,"time_elapsed":2092949,"internal_node_id":"0.0-5.0-14.0"},{"group":"square cycles (cube, non-group)","fractal_assignment":["../images/cyn_red.png","../images/pnk_blu.png","../images/ylw_slt.png","../images/grn_red.png","../images/blu_wht.png","../images/org_blu.png","../images/ylw_pnk.png","../images/gry_blk.png"],"mutagen_generator_assignment":[1,0],"goal":4,"start":5,"action_noise":0.1,"location_history":"[5,4]","action_history":"[0]","mutagen_history":"[1]","location_rts":"[967]","trial_type":"fractal-mutation","trial_index":69,"time_elapsed":2098964,"internal_node_id":"0.0-5.0-15.0"},{"group":"square cycles (cube, non-group)","fractal_assignment":["../images/cyn_red.png","../images/pnk_blu.png","../images/ylw_slt.png","../images/grn_red.png","../images/blu_wht.png","../images/org_blu.png","../images/ylw_pnk.png","../images/gry_blk.png"],"mutagen_generator_assignment":[1,0],"goal":0,"start":4,"action_noise":0.1,"location_history":"[4,5,4,7,3,2,6,7,6,7,6,5,1,0]","action_history":"[1,0,0,1,1,1,1,0,0,0,1,1,1]","mutagen_history":"[0,1,1,0,0,0,0,1,1,1,0,0,0]","location_rts":"[1736,294,1398,2816,926,987,871,915,1047,1061,783,957,1874]","trial_type":"fractal-mutation","trial_index":70,"time_elapsed":2134530,"internal_node_id":"0.0-5.0-16.0"},{"group":"square cycles (cube, non-group)","fractal_assignment":["../images/cyn_red.png","../images/pnk_blu.png","../images/ylw_slt.png","../images/grn_red.png","../images/blu_wht.png","../images/org_blu.png","../images/ylw_pnk.png","../images/gry_blk.png"],"mutagen_generator_assignment":[1,0],"goal":7,"start":0,"action_noise":0.1,"location_history":"[0,1,2,6,7]","action_history":"[0,0,1,1]","mutagen_history":"[1,1,0,0]","location_rts":"[36012,585,143,738]","trial_type":"fractal-mutation","trial_index":71,"time_elapsed":2180478,"internal_node_id":"0.0-5.0-17.0"},{"group":"square cycles (cube, non-group)","fractal_assignment":["../images/cyn_red.png","../images/pnk_blu.png","../images/ylw_slt.png","../images/grn_red.png","../images/blu_wht.png","../images/org_blu.png","../images/ylw_pnk.png","../images/gry_blk.png"],"mutagen_generator_assignment":[1,0],"goal":2,"start":7,"action_noise":0.1,"location_history":"[7,6,7,3,2]","action_history":"[0,1,1,1]","mutagen_history":"[1,0,0,0]","location_rts":"[2969,850,3911,596]","trial_type":"fractal-mutation","trial_index":72,"time_elapsed":2197395,"internal_node_id":"0.0-5.0-18.0"},{"group":"square cycles (cube, non-group)","fractal_assignment":["../images/cyn_red.png","../images/pnk_blu.png","../images/ylw_slt.png","../images/grn_red.png","../images/blu_wht.png","../images/org_blu.png","../images/ylw_pnk.png","../images/gry_blk.png"],"mutagen_generator_assignment":[1,0],"goal":1,"start":2,"action_noise":0.1,"location_history":"[2,6,5,4,5,4,7,3,2,6,7,6,7,6,7,3,2,3,2,6,5,1]","action_history":"[1,0,0,1,0,0,1,1,1,1,0,1,0,1,1,0,0,1,1,0,0]","mutagen_history":"[0,1,1,0,1,1,0,0,0,0,1,0,1,0,0,1,1,0,0,1,1]","location_rts":"[1719,179,4785,849,765,497,524,616,538,2224,1707,456,9871,329,235,425,123,407,520,796,729]","trial_type":"fractal-mutation","trial_index":73,"time_elapsed":2255514,"internal_node_id":"0.0-5.0-19.0"},{"group":"square cycles (cube, non-group)","fractal_assignment":["../images/cyn_red.png","../images/pnk_blu.png","../images/ylw_slt.png","../images/grn_red.png","../images/blu_wht.png","../images/org_blu.png","../images/ylw_pnk.png","../images/gry_blk.png"],"mutagen_generator_assignment":[1,0],"goal":3,"start":1,"action_noise":0.1,"location_history":"[1,0,1,2,6,7,6,7,3]","action_history":"[1,0,0,1,1,0,0,1]","mutagen_history":"[0,1,1,0,0,1,1,0]","location_rts":"[417,1002,814,148,302,917,457,3145]","trial_type":"fractal-mutation","trial_index":74,"time_elapsed":2276225,"internal_node_id":"0.0-5.0-20.0"},{"group":"square cycles (cube, non-group)","fractal_assignment":["../images/cyn_red.png","../images/pnk_blu.png","../images/ylw_slt.png","../images/grn_red.png","../images/blu_wht.png","../images/org_blu.png","../images/ylw_pnk.png","../images/gry_blk.png"],"mutagen_generator_assignment":[1,0],"goal":6,"start":3,"action_noise":0.1,"location_history":"[3,0,4,5,4,7,6]","action_history":"[0,1,1,0,0,0]","mutagen_history":"[1,0,0,1,1,1]","location_rts":"[659,885,630,434,691,418]","trial_type":"fractal-mutation","trial_index":75,"time_elapsed":2290462,"internal_node_id":"0.0-5.0-21.0"},{"group":"square cycles (cube, non-group)","fractal_assignment":["../images/cyn_red.png","../images/pnk_blu.png","../images/ylw_slt.png","../images/grn_red.png","../images/blu_wht.png","../images/org_blu.png","../images/ylw_pnk.png","../images/gry_blk.png"],"mutagen_generator_assignment":[1,0],"goal":5,"start":6,"action_noise":0.1,"location_history":"[6,5]","action_history":"[1]","mutagen_history":"[0]","location_rts":"[547]","trial_type":"fractal-mutation","trial_index":76,"time_elapsed":2295674,"internal_node_id":"0.0-5.0-22.0"},{"group":"square cycles (cube, non-group)","fractal_assignment":["../images/cyn_red.png","../images/pnk_blu.png","../images/ylw_slt.png","../images/grn_red.png","../images/blu_wht.png","../images/org_blu.png","../images/ylw_pnk.png","../images/gry_blk.png"],"mutagen_generator_assignment":[1,0],"goal":3,"start":5,"action_noise":0.1,"location_history":"[5,4,7,3]","action_history":"[0,0,1]","mutagen_history":"[1,1,0]","location_rts":"[759,1151,894]","trial_type":"fractal-mutation","trial_index":77,"time_elapsed":2305736,"internal_node_id":"0.0-5.0-23.0"},{"group":"square cycles (cube, non-group)","fractal_assignment":["../images/cyn_red.png","../images/pnk_blu.png","../images/ylw_slt.png","../images/grn_red.png","../images/blu_wht.png","../images/org_blu.png","../images/ylw_pnk.png","../images/gry_blk.png"],"mutagen_generator_assignment":[1,0],"goal":0,"start":3,"action_noise":0.1,"location_history":"[3,0]","action_history":"[0]","mutagen_history":"[1]","location_rts":"[727]","trial_type":"fractal-mutation","trial_index":78,"time_elapsed":2311359,"internal_node_id":"0.0-5.0-24.0"},{"group":"square cycles (cube, non-group)","fractal_assignment":["../images/cyn_red.png","../images/pnk_blu.png","../images/ylw_slt.png","../images/grn_red.png","../images/blu_wht.png","../images/org_blu.png","../images/ylw_pnk.png","../images/gry_blk.png"],"mutagen_generator_assignment":[1,0],"goal":7,"start":0,"action_noise":0.1,"location_history":"[0,4,5,4,7]","action_history":"[1,1,0,0]","mutagen_history":"[0,0,1,1]","location_rts":"[1053,2889,1587,724]","trial_type":"fractal-mutation","trial_index":79,"time_elapsed":2326071,"internal_node_id":"0.0-5.0-25.0"},{"group":"square cycles (cube, non-group)","fractal_assignment":["../images/cyn_red.png","../images/pnk_blu.png","../images/ylw_slt.png","../images/grn_red.png","../images/blu_wht.png","../images/org_blu.png","../images/ylw_pnk.png","../images/gry_blk.png"],"mutagen_generator_assignment":[1,0],"goal":2,"start":7,"action_noise":0.1,"location_history":"[7,6,7,3,2]","action_history":"[0,1,1,1]","mutagen_history":"[1,0,0,0]","location_rts":"[832,1706,779,825]","trial_type":"fractal-mutation","trial_index":80,"time_elapsed":2338517,"internal_node_id":"0.0-5.0-26.0"},{"group":"square cycles (cube, non-group)","fractal_assignment":["../images/cyn_red.png","../images/pnk_blu.png","../images/ylw_slt.png","../images/grn_red.png","../images/blu_wht.png","../images/org_blu.png","../images/ylw_pnk.png","../images/gry_blk.png"],"mutagen_generator_assignment":[1,0],"goal":1,"start":2,"action_noise":0.1,"location_history":"[2,6,7,3,2,6,7,3,0,1]","action_history":"[1,1,1,1,1,1,1,0,0]","mutagen_history":"[0,0,0,0,0,0,0,1,1]","location_rts":"[770,797,646,847,745,852,955,730,777]","trial_type":"fractal-mutation","trial_index":81,"time_elapsed":2359796,"internal_node_id":"0.0-5.0-27.0"},{"group":"square cycles (cube, non-group)","fractal_assignment":["../images/cyn_red.png","../images/pnk_blu.png","../images/ylw_slt.png","../images/grn_red.png","../images/blu_wht.png","../images/org_blu.png","../images/ylw_pnk.png","../images/gry_blk.png"],"mutagen_generator_assignment":[1,0],"goal":5,"start":1,"action_noise":0.1,"location_history":"[1,2,3,2,6,7,6,7,3,2,6,7,3,2,6,7,3,0,4,7,6,5]","action_history":"[0,0,1,1,1,0,0,0,1,1,1,1,1,1,1,1,0,0,0,0,0]","mutagen_history":"[1,1,0,0,0,1,1,1,0,0,0,0,0,0,0,0,1,1,1,1,1]","location_rts":"[816,1061,1258,764,938,1019,1039,849,1083,689,823,892,869,769,873,940,738,769,857,2334,950]","trial_type":"fractal-mutation","trial_index":82,"time_elapsed":2409498,"internal_node_id":"0.0-5.0-28.0"},{"group":"square cycles (cube, non-group)","fractal_assignment":["../images/cyn_red.png","../images/pnk_blu.png","../images/ylw_slt.png","../images/grn_red.png","../images/blu_wht.png","../images/org_blu.png","../images/ylw_pnk.png","../images/gry_blk.png"],"mutagen_generator_assignment":[1,0],"goal":4,"start":5,"action_noise":0.1,"location_history":"[5,4]","action_history":"[0]","mutagen_history":"[1]","location_rts":"[2008]","trial_type":"fractal-mutation","trial_index":83,"time_elapsed":2416222,"internal_node_id":"0.0-5.0-29.0"},{"group":"square cycles (cube, non-group)","fractal_assignment":["../images/cyn_red.png","../images/pnk_blu.png","../images/ylw_slt.png","../images/grn_red.png","../images/blu_wht.png","../images/org_blu.png","../images/ylw_pnk.png","../images/gry_blk.png"],"mutagen_generator_assignment":[1,0],"goal":6,"start":4,"action_noise":0.1,"location_history":"[4,5,4,7,6]","action_history":"[0,0,0,0]","mutagen_history":"[1,1,1,1]","location_rts":"[1745,978,797,985]","trial_type":"fractal-mutation","trial_index":84,"time_elapsed":2429392,"internal_node_id":"0.0-5.0-30.0"},{"group":"square cycles (cube, non-group)","fractal_assignment":["../images/cyn_red.png","../images/pnk_blu.png","../images/ylw_slt.png","../images/grn_red.png","../images/blu_wht.png","../images/org_blu.png","../images/ylw_pnk.png","../images/gry_blk.png"],"mutagen_generator_assignment":[1,0],"goal":4,"start":6,"action_noise":0.1,"location_history":"[6,5,4]","action_history":"[0,0]","mutagen_history":"[1,1]","location_rts":"[1429,836]","trial_type":"fractal-mutation","trial_index":85,"time_elapsed":2437748,"internal_node_id":"0.0-5.0-31.0"},{"group":"square cycles (cube, non-group)","fractal_assignment":["../images/cyn_red.png","../images/pnk_blu.png","../images/ylw_slt.png","../images/grn_red.png","../images/blu_wht.png","../images/org_blu.png","../images/ylw_pnk.png","../images/gry_blk.png"],"mutagen_generator_assignment":[1,0],"goal":2,"start":4,"action_noise":0.1,"location_history":"[4,5,1,0,4,5,4,7,6,5,4,7,6,5,4,7,6,7,3,2]","action_history":"[1,1,1,1,1,1,0,0,0,0,0,0,0,0,0,0,1,1,1]","mutagen_history":"[0,0,0,0,0,0,1,1,1,1,1,1,1,1,1,1,0,0,0]","location_rts":"[2715,880,659,839,1019,934,735,776,676,440,728,692,504,790,684,1243,608,704,756]","trial_type":"fractal-mutation","trial_index":86,"time_elapsed":2481674,"internal_node_id":"0.0-5.0-32.0"},{"group":"square cycles (cube, non-group)","fractal_assignment":["../images/cyn_red.png","../images/pnk_blu.png","../images/ylw_slt.png","../images/grn_red.png","../images/blu_wht.png","../images/org_blu.png","../images/ylw_pnk.png","../images/gry_blk.png"],"mutagen_generator_assignment":[1,0],"goal":0,"start":2,"action_noise":0.1,"location_history":"[2,3,2,6,7,6,5,1,2,3,2,3,2,6,7,3,2,6,7,3,2,6,5,4,5,4,7,6,5,4,7,3,0]","action_history":"[0,1,1,1,0,0,0,0,0,1,1,1,1,1,1,1,1,1,1,1,1,0,0,0,0,0,0,0,0,0,0,0]","mutagen_history":"[1,0,0,0,1,1,1,1,1,0,0,0,0,0,0,0,0,0,0,0,0,1,1,1,1,1,1,1,1,1,1,1]","location_rts":"[1066,710,209,757,671,625,545,180,632,735,740,731,707,734,1835,817,681,774,728,763,787,460,761,1000,816,848,790,773,819,806,1838,1603]","trial_type":"fractal-mutation","trial_index":87,"time_elapsed":2551433,"internal_node_id":"0.0-5.0-33.0"},{"group":"square cycles (cube, non-group)","fractal_assignment":["../images/cyn_red.png","../images/pnk_blu.png","../images/ylw_slt.png","../images/grn_red.png","../images/blu_wht.png","../images/org_blu.png","../images/ylw_pnk.png","../images/gry_blk.png"],"mutagen_generator_assignment":[1,0],"goal":5,"start":0,"action_noise":0.1,"location_history":"[0,1,0,1,2,6,5]","action_history":"[0,1,0,0,0,0]","mutagen_history":"[1,0,1,1,1,1]","location_rts":"[3694,1075,836,824,992,2227]","trial_type":"fractal-mutation","trial_index":88,"time_elapsed":2572495,"internal_node_id":"0.0-5.0-34.0"},{"group":"square cycles (cube, non-group)","fractal_assignment":["../images/cyn_red.png","../images/pnk_blu.png","../images/ylw_slt.png","../images/grn_red.png","../images/blu_wht.png","../images/org_blu.png","../images/ylw_pnk.png","../images/gry_blk.png"],"mutagen_generator_assignment":[1,0],"goal":1,"start":5,"action_noise":0.1,"location_history":"[5,4,5,4,7,6,5,1]","action_history":"[1,1,0,0,0,0,1]","mutagen_history":"[0,0,1,1,1,1,0]","location_rts":"[1210,977,668,3010,883,631,783]","trial_type":"fractal-mutation","trial_index":89,"time_elapsed":2592976,"internal_node_id":"0.0-5.0-35.0"},{"group":"square cycles (cube, non-group)","fractal_assignment":["../images/cyn_red.png","../images/pnk_blu.png","../images/ylw_slt.png","../images/grn_red.png","../images/blu_wht.png","../images/org_blu.png","../images/ylw_pnk.png","../images/gry_blk.png"],"mutagen_generator_assignment":[1,0],"goal":7,"start":1,"action_noise":0.1,"location_history":"[1,0,1,2,3,0,1,2,3,0,1,2,3,0,4,7]","action_history":"[1,0,0,0,0,0,0,0,0,0,0,0,0,0,0]","mutagen_history":"[0,1,1,1,1,1,1,1,1,1,1,1,1,1,1]","location_rts":"[1547,880,907,2935,3719,3225,1484,1476,905,2308,2131,888,2598,2446,979]","trial_type":"fractal-mutation","trial_index":90,"time_elapsed":2643666,"internal_node_id":"0.0-5.0-36.0"},{"group":"square cycles (cube, non-group)","fractal_assignment":["../images/cyn_red.png","../images/pnk_blu.png","../images/ylw_slt.png","../images/grn_red.png","../images/blu_wht.png","../images/org_blu.png","../images/ylw_pnk.png","../images/gry_blk.png"],"mutagen_generator_assignment":[1,0],"goal":3,"start":7,"action_noise":0.1,"location_history":"[7,6,5,4,5,4,7,6,5,4,7,6,5,1,0,4,5,1,0,4,7,6,7,3]","action_history":"[0,0,0,0,0,0,0,0,0,1,0,0,1,1,1,1,1,1,0,0,0,1,1]","mutagen_history":"[1,1,1,1,1,1,1,1,1,0,1,1,0,0,0,0,0,0,1,1,1,0,0]","location_rts":"[2643,460,2055,982,2105,2369,1008,1402,2452,17207,2642,3383,1268,2058,825,431,290,414,305,37,158,1804,946]","trial_type":"fractal-mutation","trial_index":91,"time_elapsed":2723833,"internal_node_id":"0.0-5.0-37.0"},{"group":"square cycles (cube, non-group)","fractal_assignment":["../images/cyn_red.png","../images/pnk_blu.png","../images/ylw_slt.png","../images/grn_red.png","../images/blu_wht.png","../images/org_blu.png","../images/ylw_pnk.png","../images/gry_blk.png"],"mutagen_generator_assignment":[1,0],"goal":6,"start":3,"action_noise":0.1,"location_history":"[3,2,3,0,1,2,3,2,6]","action_history":"[1,0,0,0,0,0,0,1]","mutagen_history":"[0,1,1,1,1,1,1,0]","location_rts":"[1604,1307,1876,430,335,337,728,191]","trial_type":"fractal-mutation","trial_index":92,"time_elapsed":2744395,"internal_node_id":"0.0-5.0-38.0"},{"group":"square cycles (cube, non-group)","fractal_assignment":["../images/cyn_red.png","../images/pnk_blu.png","../images/ylw_slt.png","../images/grn_red.png","../images/blu_wht.png","../images/org_blu.png","../images/ylw_pnk.png","../images/gry_blk.png"],"mutagen_generator_assignment":[1,0],"goal":2,"start":6,"action_noise":0.1,"location_history":"[6,7,6,7,3,2]","action_history":"[1,0,1,1,1]","mutagen_history":"[0,1,0,0,0]","location_rts":"[1365,15,3443,1888,1071]","trial_type":"fractal-mutation","trial_index":93,"time_elapsed":2761752,"internal_node_id":"0.0-5.0-39.0"},{"group":"square cycles (cube, non-group)","fractal_assignment":["../images/cyn_red.png","../images/pnk_blu.png","../images/ylw_slt.png","../images/grn_red.png","../images/blu_wht.png","../images/org_blu.png","../images/ylw_pnk.png","../images/gry_blk.png"],"mutagen_generator_assignment":[1,0],"goal":1,"start":2,"action_noise":0.1,"location_history":"[2,6,5,4,7,6,5,4,7,3,0,4,5,1]","action_history":"[1,0,0,0,0,0,0,0,1,0,0,1,1]","mutagen_history":"[0,1,1,1,1,1,1,1,0,1,1,0,0]","location_rts":"[37,998,1359,55,966,1221,372,1753,1520,3637,1198,136,916]","trial_type":"fractal-mutation","trial_index":94,"time_elapsed":2798044,"internal_node_id":"0.0-5.0-40.0"},{"group":"square cycles (cube, non-group)","fractal_assignment":["../images/cyn_red.png","../images/pnk_blu.png","../images/ylw_slt.png","../images/grn_red.png","../images/blu_wht.png","../images/org_blu.png","../images/ylw_pnk.png","../images/gry_blk.png"],"mutagen_generator_assignment":[1,0],"goal":0,"start":1,"action_noise":0.1,"location_history":"[1,2,3,0]","action_history":"[0,0,0]","mutagen_history":"[1,1,1]","location_rts":"[295,24383,954]","trial_type":"fractal-mutation","trial_index":95,"time_elapsed":2831039,"internal_node_id":"0.0-5.0-41.0"},{"group":"square cycles (cube, non-group)","fractal_assignment":["../images/cyn_red.png","../images/pnk_blu.png","../images/ylw_slt.png","../images/grn_red.png","../images/blu_wht.png","../images/org_blu.png","../images/ylw_pnk.png","../images/gry_blk.png"],"mutagen_generator_assignment":[1,0],"goal":4,"start":0,"action_noise":0.1,"location_history":"[0,1,2,3,2,3,0,1,2,6,5,4]","action_history":"[0,1,1,1,0,0,0,0,1,0,0]","mutagen_history":"[1,0,0,0,1,1,1,1,0,1,1]","location_rts":"[3491,384,291,461,73,704,1835,3979,2580,1332,3497]","trial_type":"fractal-mutation","trial_index":96,"time_elapsed":2871564,"internal_node_id":"0.0-5.0-42.0"},{"group":"square cycles (cube, non-group)","fractal_assignment":["../images/cyn_red.png","../images/pnk_blu.png","../images/ylw_slt.png","../images/grn_red.png","../images/blu_wht.png","../images/org_blu.png","../images/ylw_pnk.png","../images/gry_blk.png"],"mutagen_generator_assignment":[1,0],"goal":6,"start":4,"action_noise":0.1,"location_history":"[4,5,1,2,6]","action_history":"[1,1,1,1]","mutagen_history":"[0,0,0,0]","location_rts":"[1318,702,522,459]","trial_type":"fractal-mutation","trial_index":97,"time_elapsed":2882792,"internal_node_id":"0.0-5.0-43.0"},{"group":"square cycles (cube, non-group)","fractal_assignment":["../images/cyn_red.png","../images/pnk_blu.png","../images/ylw_slt.png","../images/grn_red.png","../images/blu_wht.png","../images/org_blu.png","../images/ylw_pnk.png","../images/gry_blk.png"],"mutagen_generator_assignment":[1,0],"goal":3,"start":6,"action_noise":0.1,"location_history":"[6,5,1,0,4,7,6,7,3]","action_history":"[0,1,1,1,0,0,1,1]","mutagen_history":"[1,0,0,0,1,1,0,0]","location_rts":"[1173,509,1300,788,42,481,2725,1256]","trial_type":"fractal-mutation","trial_index":98,"time_elapsed":2904595,"internal_node_id":"0.0-5.0-44.0"},{"group":"square cycles (cube, non-group)","fractal_assignment":["../images/cyn_red.png","../images/pnk_blu.png","../images/ylw_slt.png","../images/grn_red.png","../images/blu_wht.png","../images/org_blu.png","../images/ylw_pnk.png","../images/gry_blk.png"],"mutagen_generator_assignment":[1,0],"goal":7,"start":3,"action_noise":0.1,"location_history":"[3,2,6,5,4,5,1,2,6,7]","action_history":"[1,1,0,0,0,1,0,0,1]","mutagen_history":"[0,0,1,1,1,0,1,1,0]","location_rts":"[625,122,332,263,1188,930,270,494,1121]","trial_type":"fractal-mutation","trial_index":99,"time_elapsed":2924807,"internal_node_id":"0.0-5.0-45.0"},{"group":"square cycles (cube, non-group)","fractal_assignment":["../images/cyn_red.png","../images/pnk_blu.png","../images/ylw_slt.png","../images/grn_red.png","../images/blu_wht.png","../images/org_blu.png","../images/ylw_pnk.png","../images/gry_blk.png"],"mutagen_generator_assignment":[1,0],"goal":5,"start":7,"action_noise":0.1,"location_history":"[7,3,2,6,7,6,7,3,2,3,0,4,5]","action_history":"[1,1,1,1,0,1,1,1,0,0,1,1]","mutagen_history":"[0,0,0,0,1,0,0,0,1,1,0,0]","location_rts":"[2497,1093,605,909,1091,1378,2212,1916,1311,811,2755,509]","trial_type":"fractal-mutation","trial_index":100,"time_elapsed":2959751,"internal_node_id":"0.0-5.0-46.0"},{"group":"square cycles (cube, non-group)","fractal_assignment":["../images/cyn_red.png","../images/pnk_blu.png","../images/ylw_slt.png","../images/grn_red.png","../images/blu_wht.png","../images/org_blu.png","../images/ylw_pnk.png","../images/gry_blk.png"],"mutagen_generator_assignment":[1,0],"goal":1,"start":5,"action_noise":0.1,"location_history":"[5,4,5,4,7,3,0,1]","action_history":"[1,1,0,0,1,0,0]","mutagen_history":"[0,0,1,1,0,1,1]","location_rts":"[2799,5907,818,657,3153,971,834]","trial_type":"fractal-mutation","trial_index":101,"time_elapsed":2986777,"internal_node_id":"0.0-5.0-47.0"},{"group":"square cycles (cube, non-group)","fractal_assignment":["../images/cyn_red.png","../images/pnk_blu.png","../images/ylw_slt.png","../images/grn_red.png","../images/blu_wht.png","../images/org_blu.png","../images/ylw_pnk.png","../images/gry_blk.png"],"mutagen_generator_assignment":[1,0],"goal":6,"start":1,"action_noise":0.1,"location_history":"[1,2,3,0,1,2,3,2,6]","action_history":"[0,0,1,0,1,0,1,1]","mutagen_history":"[1,1,0,1,0,1,0,0]","location_rts":"[330,557,742,74,108,1406,370,632]","trial_type":"fractal-mutation","trial_index":102,"time_elapsed":3003948,"internal_node_id":"0.0-5.0-48.0"},{"group":"square cycles (cube, non-group)","fractal_assignment":["../images/cyn_red.png","../images/pnk_blu.png","../images/ylw_slt.png","../images/grn_red.png","../images/blu_wht.png","../images/org_blu.png","../images/ylw_pnk.png","../images/gry_blk.png"],"mutagen_generator_assignment":[1,0],"goal":0,"start":6,"action_noise":0.1,"location_history":"[6,7,3,0]","action_history":"[1,1,0]","mutagen_history":"[0,0,1]","location_rts":"[687,296,1309]","trial_type":"fractal-mutation","trial_index":103,"time_elapsed":3013312,"internal_node_id":"0.0-5.0-49.0"},{"view_history":"[{\"page_index\":0,\"viewing_time\":6367}]","rt":6367,"trial_type":"instructions","trial_index":104,"time_elapsed":3020691,"internal_node_id":"0.0-6.0"},{"rt":1838,"responses":"{\"Q0\":\"\"}","trial_type":"survey-text","trial_index":105,"time_elapsed":3023604,"internal_node_id":"0.0-7.0"}]