[{"view_history":"[{\"page_index\":0,\"viewing_time\":6264},{\"page_index\":1,\"viewing_time\":4894}]","rt":11159,"trial_type":"instructions","trial_index":0,"time_elapsed":11160,"internal_node_id":"0.0-0.0"},{"view_history":"[{\"page_index\":0,\"viewing_time\":1410},{\"page_index\":1,\"viewing_time\":3861}]","rt":5271,"trial_type":"instructions","trial_index":1,"time_elapsed":17430,"internal_node_id":"0.0-1.0"},{"group":"square cycles (cube, non-group)","room_assignment":["red","brown","purple","blue","yellow","pink","green","grey"],"door_color_assignment":["white","black"],"door_generator_assignment":[1,0],"goal":6,"start":3,"action_noise":0.1,"location_history":"[3,0,4,5,1,0,4,7,6]","action_history":"[1,1,1,1,1,1,1,1]","door_history":"[0,0,0,0,0,0,0,0]","location_rts":"[3078,1192,275,75,414,242,328,235]","trial_type":"two-door-navigation","trial_index":2,"time_elapsed":34829,"internal_node_id":"0.0-2.0-0.0"},{"group":"square cycles (cube, non-group)","room_assignment":["red","brown","purple","blue","yellow","pink","green","grey"],"door_color_assignment":["white","black"],"door_generator_assignment":[1,0],"goal":1,"start":6,"action_noise":0.1,"location_history":"[6,7,3,2,6,7,3,2,6,7,3,2,6,7,3,2,6,7,3,2,6,7,3,0,4,7,3,2,3,0,1]","action_history":"[1,1,1,1,1,1,1,1,1,1,1,1,1,1,1,1,1,1,1,1,1,1,1,1,1,1,1,0,0,0]","door_history":"[0,0,0,0,0,0,0,0,0,0,0,0,0,0,0,0,0,0,0,0,0,0,0,0,0,0,0,1,1,1]","location_rts":"[496,275,273,151,17953,242,45312,3726,4003,3988,3986,4002,3987,4007,3989,4007,3990,3988,4003,3989,4004,3988,4006,3989,4008,3989,4006,3993,3987,4003]","trial_type":"two-door-navigation","trial_index":3,"time_elapsed":224820,"internal_node_id":"0.0-2.0-1.0"},{"group":"square cycles (cube, non-group)","room_assignment":["red","brown","purple","blue","yellow","pink","green","grey"],"door_color_assignment":["white","black"],"door_generator_assignment":[1,0],"goal":2,"start":1,"action_noise":0.1,"location_history":"[1,2]","action_history":"[0]","door_history":"[1]","location_rts":"[488]","trial_type":"two-door-navigation","trial_index":4,"time_elapsed":229810,"internal_node_id":"0.0-2.0-2.0"},{"group":"square cycles (cube, non-group)","room_assignment":["red","brown","purple","blue","yellow","pink","green","grey"],"door_color_assignment":["white","black"],"door_generator_assignment":[1,0],"goal":0,"start":2,"action_noise":0.1,"location_history":"[2,3,0]","action_history":"[0,0]","door_history":"[1,1]","location_rts":"[505,3988]","trial_type":"two-door-navigation","trial_index":5,"time_elapsed":239816,"internal_node_id":"0.0-2.0-3.0"},{"group":"square cycles (cube, non-group)","room_assignment":["red","brown","purple","blue","yellow","pink","green","grey"],"door_color_assignment":["white","black"],"door_generator_assignment":[1,0],"goal":7,"start":0,"action_noise":0.1,"location_history":"[0,1,2,3,0,1,2,6,5,4,7]","action_history":"[0,0,0,0,0,0,0,0,0,0]","door_history":"[1,1,1,1,1,1,1,1,1,1]","location_rts":"[501,3995,3984,4006,3991,4006,3986,3988,4023,3970]","trial_type":"two-door-navigation","trial_index":6,"time_elapsed":289807,"internal_node_id":"0.0-2.0-4.0"},{"group":"square cycles (cube, non-group)","room_assignment":["red","brown","purple","blue","yellow","pink","green","grey"],"door_color_assignment":["white","black"],"door_generator_assignment":[1,0],"goal":5,"start":7,"action_noise":0.1,"location_history":"[7,6,5]","action_history":"[0,0]","door_history":"[1,1]","location_rts":"[505,10006]","trial_type":"two-door-navigation","trial_index":7,"time_elapsed":305823,"internal_node_id":"0.0-2.0-5.0"},{"group":"square cycles (cube, non-group)","room_assignment":["red","brown","purple","blue","yellow","pink","green","grey"],"door_color_assignment":["white","black"],"door_generator_assignment":[1,0],"goal":4,"start":5,"action_noise":0.1,"location_history":"[5,4]","action_history":"[0]","door_history":"[1]","location_rts":"[4476]","trial_type":"two-door-navigation","trial_index":8,"time_elapsed":314807,"internal_node_id":"0.0-2.0-6.0"},{"group":"square cycles (cube, non-group)","room_assignment":["red","brown","purple","blue","yellow","pink","green","grey"],"door_color_assignment":["white","black"],"door_generator_assignment":[1,0],"goal":2,"start":4,"action_noise":0.1,"location_history":"[4,7,6,5,4,7,6,5,4,7,6,5,4,7,6,5,4,7,6,7,3,2]","action_history":"[0,0,0,0,0,0,0,0,0,0,0,0,0,0,0,0,0,0,0,1,1]","door_history":"[1,1,1,1,1,1,1,1,1,1,1,1,1,1,1,1,1,1,1,0,0]","location_rts":"[521,3971,4005,4006,3983,3983,4009,3983,4005,3989,3991,4007,3982,4008,3989,4005,3991,3989,4002,3987,3999]","trial_type":"two-door-navigation","trial_index":9,"time_elapsed":419820,"internal_node_id":"0.0-2.0-7.0"},{"group":"square cycles (cube, non-group)","room_assignment":["red","brown","purple","blue","yellow","pink","green","grey"],"door_color_assignment":["white","black"],"door_generator_assignment":[1,0],"goal":3,"start":2,"action_noise":0.1,"location_history":"[2,6,7,3]","action_history":"[1,1,1]","door_history":"[0,0,0]","location_rts":"[505,3971,4009]","trial_type":"two-door-navigation","trial_index":10,"time_elapsed":434818,"internal_node_id":"0.0-2.0-8.0"},{"group":"square cycles (cube, non-group)","room_assignment":["red","brown","purple","blue","yellow","pink","green","grey"],"door_color_assignment":["white","black"],"door_generator_assignment":[1,0],"goal":7,"start":3,"action_noise":0.1,"location_history":"[3,2,6,7]","action_history":"[1,1,1]","door_history":"[0,0,0]","location_rts":"[485,3997,3987]","trial_type":"two-door-navigation","trial_index":11,"time_elapsed":449814,"internal_node_id":"0.0-2.0-9.0"},{"group":"square cycles (cube, non-group)","room_assignment":["red","brown","purple","blue","yellow","pink","green","grey"],"door_color_assignment":["white","black"],"door_generator_assignment":[1,0],"goal":0,"start":7,"action_noise":0.1,"location_history":"[7,3,2,6,7,3,2,6,7,3,2,6,7,3,2,6,7,3,2,6,7,3,2,6,7,6,5,4,7,6,5,4,7,6,5,4,7,6,5,4,7,6,5,4,5,4,7,6,5,4,7,3,0]","action_history":"[1,1,1,1,1,1,1,1,1,1,1,1,1,1,1,1,1,1,1,1,1,1,1,1,0,0,0,0,0,0,0,0,0,0,0,0,0,0,0,0,0,0,0,0,0,0,0,0,0,0,1,1]","door_history":"[0,0,0,0,0,0,0,0,0,0,0,0,0,0,0,0,0,0,0,0,0,0,0,0,1,1,1,1,1,1,1,1,1,1,1,1,1,1,1,1,1,1,1,1,1,1,1,1,1,1,0,0]","location_rts":"[499,3989,4005,4000,3990,4005,4003,3988,3983,4007,3989,4007,3988,3989,4008,3990,4006,3988,4006,3987,3985,4002,3987,4000,3991,4005,3988,3991,4004,3994,4002,3991,4007,3991,3989,4002,3991,4000,3989,4007,3989,4000,3988,3990,4005,3990,4005,3987,4003,3987,3985,4003]","trial_type":"two-door-navigation","trial_index":12,"time_elapsed":709830,"internal_node_id":"0.0-2.0-10.0"},{"group":"square cycles (cube, non-group)","room_assignment":["red","brown","purple","blue","yellow","pink","green","grey"],"door_color_assignment":["white","black"],"door_generator_assignment":[1,0],"goal":1,"start":0,"action_noise":0.1,"location_history":"[0,1]","action_history":"[1]","door_history":"[0]","location_rts":"[489]","trial_type":"two-door-navigation","trial_index":13,"time_elapsed":714826,"internal_node_id":"0.0-2.0-11.0"},{"group":"square cycles (cube, non-group)","room_assignment":["red","brown","purple","blue","yellow","pink","green","grey"],"door_color_assignment":["white","black"],"door_generator_assignment":[1,0],"goal":6,"start":1,"action_noise":0.1,"location_history":"[1,0,4,5,1,0,4,5,1,0,4,5,1,0,4,5,1,0,4,5,1,0,1,2,3,2,3,2,6]","action_history":"[1,1,1,1,1,1,1,1,1,1,1,1,1,1,1,1,1,1,1,1,1,0,1,1,1,1,1,1]","door_history":"[0,0,0,0,0,0,0,0,0,0,0,0,0,0,0,0,0,0,0,0,0,1,0,0,0,0,0,0]","location_rts":"[506,3990,4001,3989,4006,3991,3986,4008,3988,3991,4003,4002,3991,4002,3990,3988,4001,3988,3985,4004,4005,3988,3985,4011,3991,3987,4004,3983]","trial_type":"two-door-navigation","trial_index":14,"time_elapsed":854822,"internal_node_id":"0.0-2.0-12.0"},{"group":"square cycles (cube, non-group)","room_assignment":["red","brown","purple","blue","yellow","pink","green","grey"],"door_color_assignment":["white","black"],"door_generator_assignment":[1,0],"goal":4,"start":6,"action_noise":0.1,"location_history":"[6,7,3,2,3,2,6,7,3,0,1,2,3,0,1,0,4]","action_history":"[1,1,1,1,1,1,1,1,0,0,0,0,0,0,1,1]","door_history":"[0,0,0,0,0,0,0,0,1,1,1,1,1,1,0,0]","location_rts":"[489,4009,3999,3989,4003,3993,3987,4004,3990,4006,3986,3989,4006,3989,4005,3989]","trial_type":"two-door-navigation","trial_index":15,"time_elapsed":934824,"internal_node_id":"0.0-2.0-13.0"},{"group":"square cycles (cube, non-group)","room_assignment":["red","brown","purple","blue","yellow","pink","green","grey"],"door_color_assignment":["white","black"],"door_generator_assignment":[1,0],"goal":5,"start":4,"action_noise":0.1,"location_history":"[4,5]","action_history":"[1]","door_history":"[0]","location_rts":"[489]","trial_type":"two-door-navigation","trial_index":16,"time_elapsed":939816,"internal_node_id":"0.0-2.0-14.0"},{"group":"square cycles (cube, non-group)","room_assignment":["red","brown","purple","blue","yellow","pink","green","grey"],"door_color_assignment":["white","black"],"door_generator_assignment":[1,0],"goal":4,"start":5,"action_noise":0.1,"location_history":"[5,1,0,4]","action_history":"[1,1,1]","door_history":"[0,0,0]","location_rts":"[508,4008,3992]","trial_type":"two-door-navigation","trial_index":17,"time_elapsed":954829,"internal_node_id":"0.0-2.0-15.0"},{"group":"square cycles (cube, non-group)","room_assignment":["red","brown","purple","blue","yellow","pink","green","grey"],"door_color_assignment":["white","black"],"door_generator_assignment":[1,0],"goal":0,"start":4,"action_noise":0.1,"location_history":"[4,5,1,0]","action_history":"[1,1,1]","door_history":"[0,0,0]","location_rts":"[489,4007,4007]","trial_type":"two-door-navigation","trial_index":18,"time_elapsed":969843,"internal_node_id":"0.0-2.0-16.0"},{"group":"square cycles (cube, non-group)","room_assignment":["red","brown","purple","blue","yellow","pink","green","grey"],"door_color_assignment":["white","black"],"door_generator_assignment":[1,0],"goal":7,"start":0,"action_noise":0.1,"location_history":"[0,4,5,1,0,4,5,1,0,4,5,1,0,4,5,4,5,1,2,3,0,1,2,3,0,1,0,1,0,4,5,1,0,1,0,1,2,3,0,1,2,3,0,4,5,1,0,4,5,1,0,1,0,4,7]","action_history":"[1,1,1,1,1,1,1,1,1,1,1,1,1,1,1,1,1,0,0,0,0,0,0,0,0,0,0,1,1,1,1,1,1,1,1,1,0,0,0,0,0,0,1,1,1,1,1,1,1,1,1,1,1,1]","door_history":"[0,0,0,0,0,0,0,0,0,0,0,0,0,0,0,0,0,1,1,1,1,1,1,1,1,1,1,0,0,0,0,0,0,0,0,0,1,1,1,1,1,1,0,0,0,0,0,0,0,0,0,0,0,0]","location_rts":"[484,4007,3975,4006,3994,4004,3991,4007,3989,3987,4009,3986,4001,3992,4003,3985,3985,4005,3990,4006,3986,4005,4005,3988,3990,3983,4008,3990,4004,3988,4005,3987,4006,3989,3985,4008,8991,3991,3998,3991,3989,4008,3988,4008,4004,3989,3992,3989,4007,3990,4001,3986,3989,4005]","trial_type":"two-door-navigation","trial_index":19,"time_elapsed":1244826,"internal_node_id":"0.0-2.0-17.0"},{"group":"square cycles (cube, non-group)","room_assignment":["red","brown","purple","blue","yellow","pink","green","grey"],"door_color_assignment":["white","black"],"door_generator_assignment":[1,0],"goal":2,"start":7,"action_noise":0.1,"location_history":"[7,6,5,4,7,6,7,3,0,1,0,1,2]","action_history":"[0,0,0,0,0,0,0,0,0,0,0,0]","door_history":"[1,1,1,1,1,1,1,1,1,1,1,1]","location_rts":"[506,3989,3989,4002,3992,4004,3988,4005,3989,3986,4006,3987]","trial_type":"two-door-navigation","trial_index":20,"time_elapsed":1304821,"internal_node_id":"0.0-2.0-18.0"},{"group":"square cycles (cube, non-group)","room_assignment":["red","brown","purple","blue","yellow","pink","green","grey"],"door_color_assignment":["white","black"],"door_generator_assignment":[1,0],"goal":1,"start":2,"action_noise":0.1,"location_history":"[2,3,0,4,5,1]","action_history":"[0,0,1,1,1]","door_history":"[1,1,0,0,0]","location_rts":"[505,3986,4009,3988,4006]","trial_type":"two-door-navigation","trial_index":21,"time_elapsed":1329836,"internal_node_id":"0.0-2.0-19.0"},{"group":"square cycles (cube, non-group)","room_assignment":["red","brown","purple","blue","yellow","pink","green","grey"],"door_color_assignment":["white","black"],"door_generator_assignment":[1,0],"goal":3,"start":1,"action_noise":0.1,"location_history":"[1,0,1,2,3]","action_history":"[1,0,0,0]","door_history":"[0,1,1,1]","location_rts":"[486,3990,4005,4003]","trial_type":"two-door-navigation","trial_index":22,"time_elapsed":1349841,"internal_node_id":"0.0-2.0-20.0"},{"group":"square cycles (cube, non-group)","room_assignment":["red","brown","purple","blue","yellow","pink","green","grey"],"door_color_assignment":["white","black"],"door_generator_assignment":[1,0],"goal":6,"start":3,"action_noise":0.1,"location_history":"[3,0,1,2,3,0,1,2,3,0,1,2,3,0,4,5,1,0,4,5,1,0,4,7,3,0,4,5,1,0,4,5,1,0,4,5,1,0,4,5,1,0,1,0,1,2,3,0,1,0,1,2,3,0,1,0,4,5,4,5,1,0,4,5,1,0,4,5,1,0,4,7,6]","action_history":"[0,0,0,0,0,0,0,0,0,0,0,0,0,1,1,1,1,1,1,1,1,1,1,1,1,1,1,1,1,1,1,1,1,1,1,1,1,1,1,1,1,1,1,0,0,0,0,0,0,0,0,0,0,0,1,1,1,1,1,1,1,1,1,1,1,1,1,1,1,0,0,0]","door_history":"[1,1,1,1,1,1,1,1,1,1,1,1,1,0,0,0,0,0,0,0,0,0,0,0,0,0,0,0,0,0,0,0,0,0,0,0,0,0,0,0,0,0,0,1,1,1,1,1,1,1,1,1,1,1,0,0,0,0,0,0,0,0,0,0,0,0,0,0,0,1,1,1]","location_rts":"[488,3990,4008,3985,4006,3987,3988,4000,3986,4005,3984,4002,3991,3985,4006,3986,4008,3986,3991,4005,3989,4005,3991,4003,3992,4002,4004,3988,4007,3988,4005,3991,4001,3989,3991,4009,3990,4002,3986,4008,3988,4009,3990,3989,3999,9001,3990,4005,3990,3988,4007,3987,3986,4007,4004,3983,3989,4005,3983,4010,3987,4009,3990,3991,4006,3989,4006,4003,3979,3990,3987,4008]","trial_type":"two-door-navigation","trial_index":23,"time_elapsed":1714844,"internal_node_id":"0.0-2.0-21.0"},{"group":"square cycles (cube, non-group)","room_assignment":["red","brown","purple","blue","yellow","pink","green","grey"],"door_color_assignment":["white","black"],"door_generator_assignment":[1,0],"goal":5,"start":6,"action_noise":0.1,"location_history":"[6,5]","action_history":"[0]","door_history":"[1]","location_rts":"[490]","trial_type":"two-door-navigation","trial_index":24,"time_elapsed":1719842,"internal_node_id":"0.0-2.0-22.0"},{"group":"square cycles (cube, non-group)","room_assignment":["red","brown","purple","blue","yellow","pink","green","grey"],"door_color_assignment":["white","black"],"door_generator_assignment":[1,0],"goal":3,"start":5,"action_noise":0.1,"location_history":"[5,4,7,6,5,4,7,6,5,4,5,4,7,3]","action_history":"[0,0,0,0,0,0,0,0,0,0,0,0,1]","door_history":"[1,1,1,1,1,1,1,1,1,1,1,1,0]","location_rts":"[501,3984,4001,3990,4005,3990,3979,4007,3990,4006,3990,4006,3987]","trial_type":"two-door-navigation","trial_index":25,"time_elapsed":1784844,"internal_node_id":"0.0-2.0-23.0"},{"group":"square cycles (cube, non-group)","room_assignment":["red","brown","purple","blue","yellow","pink","green","grey"],"door_color_assignment":["white","black"],"door_generator_assignment":[1,0],"goal":0,"start":3,"action_noise":0.1,"location_history":"[3,2,6,7,3,2,6,7,3,2,6,7,3,2,6,7,3,2,6,5,4,5,1,0]","action_history":"[1,1,1,1,1,1,1,1,1,1,1,1,1,1,1,1,1,1,0,0,0,0,0]","door_history":"[0,0,0,0,0,0,0,0,0,0,0,0,0,0,0,0,0,0,1,1,1,1,1]","location_rts":"[504,3989,3990,3989,4008,3987,4006,3989,4002,3984,4001,3994,3988,4009,4006,3985,4005,3990,3989,4006,3988,4003,3988]","trial_type":"two-door-navigation","trial_index":26,"time_elapsed":1899849,"internal_node_id":"0.0-2.0-24.0"},{"group":"square cycles (cube, non-group)","room_assignment":["red","brown","purple","blue","yellow","pink","green","grey"],"door_color_assignment":["white","black"],"door_generator_assignment":[1,0],"goal":7,"start":0,"action_noise":0.1,"location_history":"[0,1,2,3,0,1,2,3,0,1,2,3,0,1,2,3,0,1,2,6,5,4,5,4,7]","action_history":"[0,0,0,0,0,0,0,0,0,0,0,0,0,0,0,0,0,0,0,0,0,0,0,0]","door_history":"[1,1,1,1,1,1,1,1,1,1,1,1,1,1,1,1,1,1,1,1,1,1,1,1]","location_rts":"[501,3988,3986,4026,3972,4008,3986,3985,4007,4005,3987,4006,3973,4003,4002,3991,4003,3992,3986,3986,4005,4007,3989,4008]","trial_type":"two-door-navigation","trial_index":27,"time_elapsed":2019856,"internal_node_id":"0.0-2.0-25.0"},{"group":"square cycles (cube, non-group)","room_assignment":["red","brown","purple","blue","yellow","pink","green","grey"],"door_color_assignment":["white","black"],"door_generator_assignment":[1,0],"goal":2,"start":7,"action_noise":0.1,"location_history":"[7,6,5,4,5,4,7,6,5,4,7,3,0,1,2]","action_history":"[0,0,0,0,0,0,0,0,0,0,0,0,0,0]","door_history":"[1,1,1,1,1,1,1,1,1,1,1,1,1,1]","location_rts":"[488,3987,4004,3985,3988,4005,3984,4005,4005,4006,3973,4008,3987,3996]","trial_type":"two-door-navigation","trial_index":28,"time_elapsed":2089854,"internal_node_id":"0.0-2.0-26.0"},{"group":"square cycles (cube, non-group)","room_assignment":["red","brown","purple","blue","yellow","pink","green","grey"],"door_color_assignment":["white","black"],"door_generator_assignment":[1,0],"goal":1,"start":2,"action_noise":0.1,"location_history":"[2,3,0,1]","action_history":"[0,0,0]","door_history":"[1,1,1]","location_rts":"[486,4001,3992]","trial_type":"two-door-navigation","trial_index":29,"time_elapsed":2104849,"internal_node_id":"0.0-2.0-27.0"},{"group":"square cycles (cube, non-group)","room_assignment":["red","brown","purple","blue","yellow","pink","green","grey"],"door_color_assignment":["white","black"],"door_generator_assignment":[1,0],"goal":5,"start":1,"action_noise":0.1,"location_history":"[1,0,4,5]","action_history":"[1,1,1]","door_history":"[0,0,0]","location_rts":"[504,3989,3988]","trial_type":"two-door-navigation","trial_index":30,"time_elapsed":2119844,"internal_node_id":"0.0-2.0-28.0"},{"group":"square cycles (cube, non-group)","room_assignment":["red","brown","purple","blue","yellow","pink","green","grey"],"door_color_assignment":["white","black"],"door_generator_assignment":[1,0],"goal":4,"start":5,"action_noise":0.1,"location_history":"[5,1,0,1,0,1,0,4]","action_history":"[1,1,1,1,1,1,1]","door_history":"[0,0,0,0,0,0,0]","location_rts":"[505,3983,3985,4006,4006,3989,4002]","trial_type":"two-door-navigation","trial_index":31,"time_elapsed":2154857,"internal_node_id":"0.0-2.0-29.0"},{"group":"square cycles (cube, non-group)","room_assignment":["red","brown","purple","blue","yellow","pink","green","grey"],"door_color_assignment":["white","black"],"door_generator_assignment":[1,0],"goal":6,"start":4,"action_noise":0.1,"location_history":"[4,5,1,0,4,5,1,0,4,5,1,0,4,5,1,0,4,7,3,2,6]","action_history":"[1,1,1,1,1,1,1,1,1,1,1,1,1,1,1,1,1,1,1,1]","door_history":"[0,0,0,0,0,0,0,0,0,0,0,0,0,0,0,0,0,0,0,0]","location_rts":"[490,3988,4008,3988,3993,4006,3989,4001,3992,4005,3992,4008,3987,3987,4009,3986,4007,3986,4005,3986]","trial_type":"two-door-navigation","trial_index":32,"time_elapsed":2254853,"internal_node_id":"0.0-2.0-30.0"},{"group":"square cycles (cube, non-group)","room_assignment":["red","brown","purple","blue","yellow","pink","green","grey"],"door_color_assignment":["white","black"],"door_generator_assignment":[1,0],"goal":4,"start":6,"action_noise":0.1,"location_history":"[6,5,1,0,4]","action_history":"[1,1,1,1]","door_history":"[0,0,0,0]","location_rts":"[481,4007,3989,4002]","trial_type":"two-door-navigation","trial_index":33,"time_elapsed":2274853,"internal_node_id":"0.0-2.0-31.0"},{"group":"square cycles (cube, non-group)","room_assignment":["red","brown","purple","blue","yellow","pink","green","grey"],"door_color_assignment":["white","black"],"door_generator_assignment":[1,0],"goal":2,"start":4,"action_noise":0.1,"location_history":"[4,5,1,0,4,5,1,0,1,0,4,5,1,2]","action_history":"[1,1,1,1,1,1,1,1,1,1,1,1,1]","door_history":"[0,0,0,0,0,0,0,0,0,0,0,0,0]","location_rts":"[485,3982,4010,4009,3990,3988,3987,4008,4004,4006,3972,4003,4008]","trial_type":"two-door-navigation","trial_index":34,"time_elapsed":2339856,"internal_node_id":"0.0-2.0-32.0"},{"group":"square cycles (cube, non-group)","room_assignment":["red","brown","purple","blue","yellow","pink","green","grey"],"door_color_assignment":["white","black"],"door_generator_assignment":[1,0],"goal":0,"start":2,"action_noise":0.1,"location_history":"[2,6,5,4,5,1,2,3,0]","action_history":"[1,0,0,0,0,0,0,0]","door_history":"[0,1,1,1,1,1,1,1]","location_rts":"[490,3989,4004,3987,3988,4005,3987,4005]","trial_type":"two-door-navigation","trial_index":35,"time_elapsed":2379851,"internal_node_id":"0.0-2.0-33.0"},{"group":"square cycles (cube, non-group)","room_assignment":["red","brown","purple","blue","yellow","pink","green","grey"],"door_color_assignment":["white","black"],"door_generator_assignment":[1,0],"goal":5,"start":0,"action_noise":0.1,"location_history":"[0,4,7,6,5]","action_history":"[0,0,0,0]","door_history":"[1,1,1,1]","location_rts":"[488,4006,3991,3990]","trial_type":"two-door-navigation","trial_index":36,"time_elapsed":2399844,"internal_node_id":"0.0-2.0-34.0"},{"group":"square cycles (cube, non-group)","room_assignment":["red","brown","purple","blue","yellow","pink","green","grey"],"door_color_assignment":["white","black"],"door_generator_assignment":[1,0],"goal":1,"start":5,"action_noise":0.1,"location_history":"[5,4,7,6,5,4,7,6,5,4,7,6,5,4,7,6,5,1]","action_history":"[0,0,0,0,0,0,0,0,0,0,0,0,0,0,0,0,0]","door_history":"[1,1,1,1,1,1,1,1,1,1,1,1,1,1,1,1,1]","location_rts":"[500,3999,3973,4004,4006,3984,3989,4007,4003,3989,4008,3974,4007,4006,3991,3992,4000]","trial_type":"two-door-navigation","trial_index":37,"time_elapsed":2484845,"internal_node_id":"0.0-2.0-35.0"},{"group":"square cycles (cube, non-group)","room_assignment":["red","brown","purple","blue","yellow","pink","green","grey"],"door_color_assignment":["white","black"],"door_generator_assignment":[1,0],"goal":7,"start":1,"action_noise":0.1,"location_history":"[1,2,3,2,6,7]","action_history":"[0,0,1,1,1]","door_history":"[1,1,0,0,0]","location_rts":"[507,3987,4006,3972,4007]","trial_type":"two-door-navigation","trial_index":38,"time_elapsed":2509844,"internal_node_id":"0.0-2.0-36.0"},{"group":"square cycles (cube, non-group)","room_assignment":["red","brown","purple","blue","yellow","pink","green","grey"],"door_color_assignment":["white","black"],"door_generator_assignment":[1,0],"goal":3,"start":7,"action_noise":0.1,"location_history":"[7,3]","action_history":"[1]","door_history":"[0]","location_rts":"[491]","trial_type":"two-door-navigation","trial_index":39,"time_elapsed":2514840,"internal_node_id":"0.0-2.0-37.0"},{"group":"square cycles (cube, non-group)","room_assignment":["red","brown","purple","blue","yellow","pink","green","grey"],"door_color_assignment":["white","black"],"door_generator_assignment":[1,0],"goal":6,"start":3,"action_noise":0.1,"location_history":"[3,2,3,2,6]","action_history":"[1,1,1,1]","door_history":"[0,0,0,0]","location_rts":"[502,3988,3985,4002]","trial_type":"two-door-navigation","trial_index":40,"time_elapsed":2534844,"internal_node_id":"0.0-2.0-38.0"},{"group":"square cycles (cube, non-group)","room_assignment":["red","brown","purple","blue","yellow","pink","green","grey"],"door_color_assignment":["white","black"],"door_generator_assignment":[1,0],"goal":2,"start":6,"action_noise":0.1,"location_history":"[6,7,3,0,4,5,1,0,1,0,4,5,1,0,4,5,4,7,6,5,4,7,6,5,4,7,6,5,1,2]","action_history":"[1,1,1,1,1,1,1,1,1,1,1,1,1,1,1,0,0,0,0,0,0,0,0,0,0,0,0,0,0]","door_history":"[0,0,0,0,0,0,0,0,0,0,0,0,0,0,0,1,1,1,1,1,1,1,1,1,1,1,1,1,1]","location_rts":"[504,4208,3772,4006,3991,4006,3992,3989,4022,3990,3988,4006,3987,3990,3990,4002,4005,4002,3967,4002,4005,3993,3986,3998,3990,3988,4006,3982,4006]","trial_type":"two-door-navigation","trial_index":41,"time_elapsed":2679848,"internal_node_id":"0.0-2.0-39.0"},{"group":"square cycles (cube, non-group)","room_assignment":["red","brown","purple","blue","yellow","pink","green","grey"],"door_color_assignment":["white","black"],"door_generator_assignment":[1,0],"goal":1,"start":2,"action_noise":0.1,"location_history":"[2,3,0,1]","action_history":"[0,0,0]","door_history":"[1,1,1]","location_rts":"[492,4003,3988]","trial_type":"two-door-navigation","trial_index":42,"time_elapsed":2694846,"internal_node_id":"0.0-2.0-40.0"},{"group":"square cycles (cube, non-group)","room_assignment":["red","brown","purple","blue","yellow","pink","green","grey"],"door_color_assignment":["white","black"],"door_generator_assignment":[1,0],"goal":0,"start":1,"action_noise":0.1,"location_history":"[1,2,3,0]","action_history":"[0,0,0]","door_history":"[1,1,1]","location_rts":"[489,4009,3991]","trial_type":"two-door-navigation","trial_index":43,"time_elapsed":2709847,"internal_node_id":"0.0-2.0-41.0"},{"group":"square cycles (cube, non-group)","room_assignment":["red","brown","purple","blue","yellow","pink","green","grey"],"door_color_assignment":["white","black"],"door_generator_assignment":[1,0],"goal":4,"start":0,"action_noise":0.1,"location_history":"[0,1,2,3,0,1,0,1,0,1,0,1,0,4]","action_history":"[0,0,0,0,0,0,0,1,1,1,1,1,1]","door_history":"[1,1,1,1,1,1,1,0,0,0,0,0,0]","location_rts":"[498,3988,3989,4008,4003,3991,4002,4000,3984,3990,4008,3984,4009]","trial_type":"two-door-navigation","trial_index":44,"time_elapsed":2774861,"internal_node_id":"0.0-2.0-42.0"},{"group":"square cycles (cube, non-group)","room_assignment":["red","brown","purple","blue","yellow","pink","green","grey"],"door_color_assignment":["white","black"],"door_generator_assignment":[1,0],"goal":6,"start":4,"action_noise":0.1,"location_history":"[4,5,1,0,4,5,1,0,4,5,4,7,6]","action_history":"[1,1,1,1,1,1,1,1,1,0,0,0]","door_history":"[0,0,0,0,0,0,0,0,0,1,1,1]","location_rts":"[490,4003,3989,3987,4005,4005,3980,3991,4000,3990,4002,3991]","trial_type":"two-door-navigation","trial_index":45,"time_elapsed":2834860,"internal_node_id":"0.0-2.0-43.0"},{"group":"square cycles (cube, non-group)","room_assignment":["red","brown","purple","blue","yellow","pink","green","grey"],"door_color_assignment":["white","black"],"door_generator_assignment":[1,0],"goal":3,"start":6,"action_noise":0.1,"location_history":"[6,5,4,7,6,7,6,5,4,7,6,5,4,7,6,5,4,7,6,5,4,7,6,5,4,7,6,5,1,0,1,2,3]","action_history":"[0,0,0,0,0,0,0,0,0,0,0,0,0,0,0,0,0,0,0,0,0,0,0,0,0,0,0,0,0,0,0,0]","door_history":"[1,1,1,1,1,1,1,1,1,1,1,1,1,1,1,1,1,1,1,1,1,1,1,1,1,1,1,1,1,1,1,1]","location_rts":"[489,4001,3988,4003,3979,4004,3985,3992,4008,3988,4005,3989,4007,3989,3997,3986,4008,3988,3989,4007,3985,3976,4010,4004,3989,3982,4004,3989,3999,3988,3989,4004]","trial_type":"two-door-navigation","trial_index":46,"time_elapsed":2994861,"internal_node_id":"0.0-2.0-44.0"},{"group":"square cycles (cube, non-group)","room_assignment":["red","brown","purple","blue","yellow","pink","green","grey"],"door_color_assignment":["white","black"],"door_generator_assignment":[1,0],"goal":7,"start":3,"action_noise":0.1,"location_history":"[3,2,3,0,1,2,3,0,1,2,3,0,1,2,3,0,1,2,3,0,4,7]","action_history":"[0,0,0,0,0,0,0,0,0,0,0,0,0,0,0,0,0,0,0,0,0]","door_history":"[1,1,1,1,1,1,1,1,1,1,1,1,1,1,1,1,1,1,1,1,1]","location_rts":"[487,4004,3986,4007,3984,4010,3979,3987,4006,3989,4008,3993,3990,4006,3991,4005,3989,4006,3982,3988,4003]","trial_type":"two-door-navigation","trial_index":47,"time_elapsed":3099858,"internal_node_id":"0.0-2.0-45.0"},{"group":"square cycles (cube, non-group)","room_assignment":["red","brown","purple","blue","yellow","pink","green","grey"],"door_color_assignment":["white","black"],"door_generator_assignment":[1,0],"goal":5,"start":7,"action_noise":0.1,"location_history":"[7,3,2,6,7,3,2,6,5]","action_history":"[1,1,1,1,1,1,1,1]","door_history":"[0,0,0,0,0,0,0,0]","location_rts":"[489,4003,4002,3991,3987,4004,3983,3986]","trial_type":"two-door-navigation","trial_index":48,"time_elapsed":3139853,"internal_node_id":"0.0-2.0-46.0"},{"group":"square cycles (cube, non-group)","room_assignment":["red","brown","purple","blue","yellow","pink","green","grey"],"door_color_assignment":["white","black"],"door_generator_assignment":[1,0],"goal":1,"start":5,"action_noise":0.1,"location_history":"[5,1]","action_history":"[1]","door_history":"[0]","location_rts":"[503]","trial_type":"two-door-navigation","trial_index":49,"time_elapsed":3144866,"internal_node_id":"0.0-2.0-47.0"},{"group":"square cycles (cube, non-group)","room_assignment":["red","brown","purple","blue","yellow","pink","green","grey"],"door_color_assignment":["white","black"],"door_generator_assignment":[1,0],"goal":6,"start":1,"action_noise":0.1,"location_history":"[1,0,1,0,4,5,1,0,4,7,3,2,6]","action_history":"[1,1,1,1,1,1,1,1,1,1,1,1]","door_history":"[0,0,0,0,0,0,0,0,0,0,0,0]","location_rts":"[498,3989,3989,4006,3990,3991,4008,3988,4005,3988,4007,3989]","trial_type":"two-door-navigation","trial_index":50,"time_elapsed":3204855,"internal_node_id":"0.0-2.0-48.0"},{"group":"square cycles (cube, non-group)","room_assignment":["red","brown","purple","blue","yellow","pink","green","grey"],"door_color_assignment":["white","black"],"door_generator_assignment":[1,0],"goal":0,"start":6,"action_noise":0.1,"location_history":"[6,7,3,2,3,2,6,7,6,7,3,2,6,7,6,7,3,2,3,0]","action_history":"[1,1,1,1,1,1,1,1,1,1,1,1,1,1,1,1,0,0,0]","door_history":"[0,0,0,0,0,0,0,0,0,0,0,0,0,0,0,0,1,1,1]","location_rts":"[508,3987,3987,4002,3986,4004,3990,4010,3991,3998,3985,4022,3967,3985,3986,4003,3986,4006,3989]","trial_type":"two-door-navigation","trial_index":51,"time_elapsed":3299852,"internal_node_id":"0.0-2.0-49.0"},{"view_history":"[{\"page_index\":0,\"viewing_time\":72371}]","rt":72371,"trial_type":"instructions","trial_index":52,"time_elapsed":3373223,"internal_node_id":"0.0-3.0"},{"view_history":"[{\"page_index\":0,\"viewing_time\":2943},{\"page_index\":1,\"viewing_time\":1953}]","rt":4896,"trial_type":"instructions","trial_index":53,"time_elapsed":3379119,"internal_node_id":"0.0-4.0"},{"group":"square cycles (cube, non-group)","fractal_assignment":["../images/org_blu.png","../images/grn_red.png","../images/cyn_red.png","../images/ylw_pnk.png","../images/gry_blk.png","../images/ylw_slt.png","../images/blu_wht.png","../images/pnk_blu.png"],"mutagen_generator_assignment":[1,0],"goal":6,"start":3,"action_noise":0.1,"location_history":"[3,2,3,2,3,2,6]","action_history":"[1,0,1,0,1,0]","mutagen_history":"[0,1,0,1,0,1]","location_rts":"[16317,490,17451,804,59119,4520]","trial_type":"fractal-mutation","trial_index":54,"time_elapsed":3487434,"internal_node_id":"0.0-5.0-0.0"},{"group":"square cycles (cube, non-group)","fractal_assignment":["../images/org_blu.png","../images/grn_red.png","../images/cyn_red.png","../images/ylw_pnk.png","../images/gry_blk.png","../images/ylw_slt.png","../images/blu_wht.png","../images/pnk_blu.png"],"mutagen_generator_assignment":[1,0],"goal":1,"start":6,"action_noise":0.1,"location_history":"[6,5,4,7,6,7,6,7,6,7,6,7,6,7,6,7,6,7,6,7,6,7,3,2,3,2,3,2,6,7,6,7,6,7,6,7,6,7,6,7,6,7,6,7,6,7,6,7,3,2,3,2,3,2,6,7,6,7,6,7,6,7,6,5,4,5,4,5,4,5,4,5,4,5,4,5,4,7,6,7,3,2,3,2,3,2,3,2,3,2,3,2,6,7,6,7,6,7,6,7,6,7,6,7,6,7,6,7,6,7,6,5,4,5,4,7,6,7,3,2,3,2,3,2,3,2,3,2,3,2,3,2,3,2,6,7,3,2,3,2,3,2,3,2,3,2,3,2,3,2,3,0,1]","action_history":"[1,0,1,0,1,0,1,0,1,0,1,0,1,0,1,0,1,0,1,0,1,0,1,0,1,0,1,0,1,0,1,0,1,0,1,0,1,0,1,0,1,0,1,0,1,0,1,0,1,0,1,0,1,0,1,0,1,0,1,0,1,0,1,0,1,0,1,0,1,0,1,0,1,0,1,0,1,0,1,0,1,0,1,0,1,0,1,0,1,0,1,0,1,0,1,0,1,0,1,0,1,0,1,0,1,0,1,0,1,0,1,0,1,0,1,0,1,0,1,0,1,0,1,0,1,0,1,0,1,0,1,0,1,0,1,0,1,0,1,0,1,0,1,0,1,0,1,0,1,0,1,0]","mutagen_history":"[0,1,0,1,0,1,0,1,0,1,0,1,0,1,0,1,0,1,0,1,0,1,0,1,0,1,0,1,0,1,0,1,0,1,0,1,0,1,0,1,0,1,0,1,0,1,0,1,0,1,0,1,0,1,0,1,0,1,0,1,0,1,0,1,0,1,0,1,0,1,0,1,0,1,0,1,0,1,0,1,0,1,0,1,0,1,0,1,0,1,0,1,0,1,0,1,0,1,0,1,0,1,0,1,0,1,0,1,0,1,0,1,0,1,0,1,0,1,0,1,0,1,0,1,0,1,0,1,0,1,0,1,0,1,0,1,0,1,0,1,0,1,0,1,0,1,0,1,0,1,0,1]","location_rts":"[1036,4525,4535,4529,4537,4528,4553,4524,4548,4533,4534,4529,4547,4535,4541,4536,4551,4537,4551,4526,4546,4527,4545,4538,4545,4531,4552,4527,4546,4529,4556,4537,4545,4523,4544,4539,4545,4526,4548,4536,4552,4541,4537,4539,4545,4518,4554,4523,4546,4531,4545,4531,4547,4536,4545,4529,4550,4533,4541,4531,4548,4529,4545,4523,4551,4535,4551,4536,4542,4526,4551,4531,4540,4538,4537,4537,4542,4533,4539,4526,4553,4524,4541,4534,4550,4532,4545,4532,4540,4538,4548,4525,4549,4536,4551,4530,4539,4533,4544,4523,4546,4535,4544,4539,4551,4537,4535,4527,4546,4532,4531,4525,4543,4534,4550,4522,4533,4535,4540,4536,4530,4525,4538,4525,4545,4529,4541,4530,4542,4524,4547,4535,4542,4529,4552,4534,4552,4535,4546,4537,4555,4524,4549,4535,4540,4536,4539,4534,4536,4528,4538,4537]","trial_type":"fractal-mutation","trial_index":55,"time_elapsed":4330799,"internal_node_id":"0.0-5.0-1.0"},{"group":"square cycles (cube, non-group)","fractal_assignment":["../images/org_blu.png","../images/grn_red.png","../images/cyn_red.png","../images/ylw_pnk.png","../images/gry_blk.png","../images/ylw_slt.png","../images/blu_wht.png","../images/pnk_blu.png"],"mutagen_generator_assignment":[1,0],"goal":2,"start":1,"action_noise":0.1,"location_history":"[1,0,1,0,1,0,4,5,4,7,6,5,4,5,4,5,4,5,4,5,4,5,4,5,4,5,4,5,4,5,4,5,4,5,1,0,1,0,1,0,1,0,1,0,1,0,1,0,1,0,1,0,1,0,1,0,1,2]","action_history":"[1,0,1,0,1,0,1,0,1,0,1,0,1,0,1,0,1,0,1,0,1,0,1,0,1,0,1,0,1,0,1,0,1,0,1,0,1,0,1,0,1,0,1,0,1,0,1,0,1,0,1,0,1,0,1,0,1]","mutagen_history":"[0,1,0,1,0,1,0,1,0,1,0,1,0,1,0,1,0,1,0,1,0,1,0,1,0,1,0,1,0,1,0,1,0,1,0,1,0,1,0,1,0,1,0,1,0,1,0,1,0,1,0,1,0,1,0,1,0]","location_rts":"[1053,4531,4535,4536,4548,4529,4549,4530,4536,4535,4552,4538,4549,4534,4545,4535,4539,4532,4548,4526,4547,4528,4560,4531,4535,4521,4546,4538,4549,4531,4542,4540,4542,4534,4545,4527,4543,4526,4544,4530,4553,4532,4551,4531,4554,4527,4537,4534,4541,4530,4554,4533,4543,4529,4542,4533,4542]","trial_type":"fractal-mutation","trial_index":56,"time_elapsed":4647036,"internal_node_id":"0.0-5.0-2.0"},{"group":"square cycles (cube, non-group)","fractal_assignment":["../images/org_blu.png","../images/grn_red.png","../images/cyn_red.png","../images/ylw_pnk.png","../images/gry_blk.png","../images/ylw_slt.png","../images/blu_wht.png","../images/pnk_blu.png"],"mutagen_generator_assignment":[1,0],"goal":0,"start":2,"action_noise":0.1,"location_history":"[2,3,2,3,2,3,2,3,2,3,2,3,2,3,2,3,2,3,2,3,0]","action_history":"[0,1,0,1,0,1,0,1,0,1,0,1,0,1,0,1,0,1,0,1]","mutagen_history":"[1,0,1,0,1,0,1,0,1,0,1,0,1,0,1,0,1,0,1,0]","location_rts":"[1033,4548,4535,4542,4526,4541,4532,4547,4539,4551,4535,4539,4534,4544,4532,4538,4531,4544,4533,4545]","trial_type":"fractal-mutation","trial_index":57,"time_elapsed":4758004,"internal_node_id":"0.0-5.0-3.0"},{"group":"square cycles (cube, non-group)","fractal_assignment":["../images/org_blu.png","../images/grn_red.png","../images/cyn_red.png","../images/ylw_pnk.png","../images/gry_blk.png","../images/ylw_slt.png","../images/blu_wht.png","../images/pnk_blu.png"],"mutagen_generator_assignment":[1,0],"goal":7,"start":0,"action_noise":0.1,"location_history":"[0,1,0,1,0,1,0,1,0,1,0,1,0,1,0,1,0,1,0,1,0,1,0,4,5,1,0,4,5,1,0,4,5,1,0,4,5,1,0,4,5,1,0,4,5,1,0,4,5,4,5,1,0,4,5,1,0,4,5,1,2,6,7]","action_history":"[0,1,0,1,0,1,0,1,0,1,0,1,0,1,0,1,0,1,0,1,0,1,0,1,1,1,1,1,1,1,1,1,1,1,1,1,1,1,1,1,1,1,1,1,1,1,1,1,1,1,1,1,1,1,1,1,1,1,1,1,1,1]","mutagen_history":"[1,0,1,0,1,0,1,0,1,0,1,0,1,0,1,0,1,0,1,0,1,0,1,0,0,0,0,0,0,0,0,0,0,0,0,0,0,0,0,0,0,0,0,0,0,0,0,0,0,0,0,0,0,0,0,0,0,0,0,0,0,0]","location_rts":"[1034,4536,4533,4557,4533,4541,4524,4541,4530,4549,4533,4553,4532,4550,4536,4548,4539,4539,4529,4538,4529,4549,4530,23043,51,51,37,54,41,53,51,42,43,41,40,38,41,55,54,45,37,40,44,44,43,50,55,56,47,44,41,42,44,45,54,45,42,44,46,53,42,47]","trial_type":"fractal-mutation","trial_index":58,"time_elapsed":4949706,"internal_node_id":"0.0-5.0-4.0"},{"group":"square cycles (cube, non-group)","fractal_assignment":["../images/org_blu.png","../images/grn_red.png","../images/cyn_red.png","../images/ylw_pnk.png","../images/gry_blk.png","../images/ylw_slt.png","../images/blu_wht.png","../images/pnk_blu.png"],"mutagen_generator_assignment":[1,0],"goal":5,"start":7,"action_noise":0.1,"location_history":"[7,6,5]","action_history":"[0,0]","mutagen_history":"[1,1]","location_rts":"[227,41]","trial_type":"fractal-mutation","trial_index":59,"time_elapsed":4955502,"internal_node_id":"0.0-5.0-5.0"},{"group":"square cycles (cube, non-group)","fractal_assignment":["../images/org_blu.png","../images/grn_red.png","../images/cyn_red.png","../images/ylw_pnk.png","../images/gry_blk.png","../images/ylw_slt.png","../images/blu_wht.png","../images/pnk_blu.png"],"mutagen_generator_assignment":[1,0],"goal":4,"start":5,"action_noise":0.1,"location_history":"[5,1,0,4]","action_history":"[1,1,1]","mutagen_history":"[0,0,0]","location_rts":"[240,41,36]","trial_type":"fractal-mutation","trial_index":60,"time_elapsed":4962348,"internal_node_id":"0.0-5.0-6.0"},{"group":"square cycles (cube, non-group)","fractal_assignment":["../images/org_blu.png","../images/grn_red.png","../images/cyn_red.png","../images/ylw_pnk.png","../images/gry_blk.png","../images/ylw_slt.png","../images/blu_wht.png","../images/pnk_blu.png"],"mutagen_generator_assignment":[1,0],"goal":2,"start":4,"action_noise":0.1,"location_history":"[4,7,6,5,4,5,4,7,6,5,4,7,6,5,4,7,6,5,4,7,6,5,4,7,6,5,4,5,4,7,6,7,6,5,4,7,6,7,3,2]","action_history":"[0,0,0,0,0,0,0,0,0,0,0,0,0,0,0,0,0,0,0,0,0,0,0,0,0,0,0,0,0,0,0,0,0,0,0,0,1,0,1]","mutagen_history":"[1,1,1,1,1,1,1,1,1,1,1,1,1,1,1,1,1,1,1,1,1,1,1,1,1,1,1,1,1,1,1,1,1,1,1,1,0,1,0]","location_rts":"[230,38,47,33,47,46,51,30,50,44,35,37,46,39,47,38,41,36,43,37,50,43,35,36,48,41,41,40,35,53,37,31,44,49,41,38,19941,511,519]","trial_type":"fractal-mutation","trial_index":61,"time_elapsed":5028032,"internal_node_id":"0.0-5.0-7.0"},{"group":"square cycles (cube, non-group)","fractal_assignment":["../images/org_blu.png","../images/grn_red.png","../images/cyn_red.png","../images/ylw_pnk.png","../images/gry_blk.png","../images/ylw_slt.png","../images/blu_wht.png","../images/pnk_blu.png"],"mutagen_generator_assignment":[1,0],"goal":3,"start":2,"action_noise":0.1,"location_history":"[2,3]","action_history":"[0]","mutagen_history":"[1]","location_rts":"[73]","trial_type":"fractal-mutation","trial_index":62,"time_elapsed":5032624,"internal_node_id":"0.0-5.0-8.0"},{"group":"square cycles (cube, non-group)","fractal_assignment":["../images/org_blu.png","../images/grn_red.png","../images/cyn_red.png","../images/ylw_pnk.png","../images/gry_blk.png","../images/ylw_slt.png","../images/blu_wht.png","../images/pnk_blu.png"],"mutagen_generator_assignment":[1,0],"goal":7,"start":3,"action_noise":0.1,"location_history":"[3,2,3,2,3,2,3,2,3,2,3,2,3,2,3,2,3,0,1,0,1,2,6,7]","action_history":"[1,0,1,0,1,0,1,0,1,0,1,0,1,0,1,0,1,0,1,0,1,0,1]","mutagen_history":"[0,1,0,1,0,1,0,1,0,1,0,1,0,1,0,1,0,1,0,1,0,1,0]","location_rts":"[72,509,537,504,528,511,530,506,528,504,523,516,528,512,523,510,529,513,528,513,522,517,532]","trial_type":"fractal-mutation","trial_index":63,"time_elapsed":5070866,"internal_node_id":"0.0-5.0-9.0"},{"group":"square cycles (cube, non-group)","fractal_assignment":["../images/org_blu.png","../images/grn_red.png","../images/cyn_red.png","../images/ylw_pnk.png","../images/gry_blk.png","../images/ylw_slt.png","../images/blu_wht.png","../images/pnk_blu.png"],"mutagen_generator_assignment":[1,0],"goal":0,"start":7,"action_noise":0.1,"location_history":"[7,6,7,6,5,4,5,4,5,4,7,3,2,3,2,3,2,3,2,3,2,3,2,3,2,3,2,3,2,3,2,3,2,3,2,3,2,3,2,3,2,3,2,3,2,3,0]","action_history":"[0,1,0,1,0,1,0,1,0,1,0,1,0,1,0,1,0,1,0,1,0,1,0,1,0,1,0,1,0,1,0,1,0,1,0,1,0,1,0,1,0,1,0,1,0,1]","mutagen_history":"[1,0,1,0,1,0,1,0,1,0,1,0,1,0,1,0,1,0,1,0,1,0,1,0,1,0,1,0,1,0,1,0,1,0,1,0,1,0,1,0,1,0,1,0,1,0]","location_rts":"[64,524,504,522,516,532,510,528,506,532,515,530,505,534,521,523,511,527,518,532,515,532,513,520,519,521,511,522,517,532,492,528,507,523,517,530,511,526,502,524,510,523,518,533,510,529]","trial_type":"fractal-mutation","trial_index":64,"time_elapsed":5144314,"internal_node_id":"0.0-5.0-10.0"},{"group":"square cycles (cube, non-group)","fractal_assignment":["../images/org_blu.png","../images/grn_red.png","../images/cyn_red.png","../images/ylw_pnk.png","../images/gry_blk.png","../images/ylw_slt.png","../images/blu_wht.png","../images/pnk_blu.png"],"mutagen_generator_assignment":[1,0],"goal":1,"start":0,"action_noise":0.1,"location_history":"[0,1]","action_history":"[0]","mutagen_history":"[1]","location_rts":"[65]","trial_type":"fractal-mutation","trial_index":65,"time_elapsed":5148887,"internal_node_id":"0.0-5.0-11.0"},{"group":"square cycles (cube, non-group)","fractal_assignment":["../images/org_blu.png","../images/grn_red.png","../images/cyn_red.png","../images/ylw_pnk.png","../images/gry_blk.png","../images/ylw_slt.png","../images/blu_wht.png","../images/pnk_blu.png"],"mutagen_generator_assignment":[1,0],"goal":6,"start":1,"action_noise":0.1,"location_history":"[1,0,4,7,6]","action_history":"[1,0,1,0]","mutagen_history":"[0,1,0,1]","location_rts":"[95,519,534,510]","trial_type":"fractal-mutation","trial_index":66,"time_elapsed":5158091,"internal_node_id":"0.0-5.0-12.0"},{"group":"square cycles (cube, non-group)","fractal_assignment":["../images/org_blu.png","../images/grn_red.png","../images/cyn_red.png","../images/ylw_pnk.png","../images/gry_blk.png","../images/ylw_slt.png","../images/blu_wht.png","../images/pnk_blu.png"],"mutagen_generator_assignment":[1,0],"goal":4,"start":6,"action_noise":0.1,"location_history":"[6,7,6,7,6,5,4]","action_history":"[1,0,1,0,1,0]","mutagen_history":"[0,1,0,1,0,1]","location_rts":"[83,506,534,512,524,507]","trial_type":"fractal-mutation","trial_index":67,"time_elapsed":5170318,"internal_node_id":"0.0-5.0-13.0"},{"group":"square cycles (cube, non-group)","fractal_assignment":["../images/org_blu.png","../images/grn_red.png","../images/cyn_red.png","../images/ylw_pnk.png","../images/gry_blk.png","../images/ylw_slt.png","../images/blu_wht.png","../images/pnk_blu.png"],"mutagen_generator_assignment":[1,0],"goal":5,"start":4,"action_noise":0.1,"location_history":"[4,5]","action_history":"[1]","mutagen_history":"[0]","location_rts":"[94]","trial_type":"fractal-mutation","trial_index":68,"time_elapsed":5174920,"internal_node_id":"0.0-5.0-14.0"},{"group":"square cycles (cube, non-group)","fractal_assignment":["../images/org_blu.png","../images/grn_red.png","../images/cyn_red.png","../images/ylw_pnk.png","../images/gry_blk.png","../images/ylw_slt.png","../images/blu_wht.png","../images/pnk_blu.png"],"mutagen_generator_assignment":[1,0],"goal":4,"start":5,"action_noise":0.1,"location_history":"[5,4]","action_history":"[0]","mutagen_history":"[1]","location_rts":"[77]","trial_type":"fractal-mutation","trial_index":69,"time_elapsed":5179509,"internal_node_id":"0.0-5.0-15.0"},{"group":"square cycles (cube, non-group)","fractal_assignment":["../images/org_blu.png","../images/grn_red.png","../images/cyn_red.png","../images/ylw_pnk.png","../images/gry_blk.png","../images/ylw_slt.png","../images/blu_wht.png","../images/pnk_blu.png"],"mutagen_generator_assignment":[1,0],"goal":0,"start":4,"action_noise":0.1,"location_history":"[4,5,4,5,4,5,4,5,1,0]","action_history":"[1,0,1,0,1,0,1,0,1]","mutagen_history":"[0,1,0,1,0,1,0,1,0]","location_rts":"[87,512,517,524,515,506,513,505,531]","trial_type":"fractal-mutation","trial_index":70,"time_elapsed":5196371,"internal_node_id":"0.0-5.0-16.0"},{"group":"square cycles (cube, non-group)","fractal_assignment":["../images/org_blu.png","../images/grn_red.png","../images/cyn_red.png","../images/ylw_pnk.png","../images/gry_blk.png","../images/ylw_slt.png","../images/blu_wht.png","../images/pnk_blu.png"],"mutagen_generator_assignment":[1,0],"goal":7,"start":0,"action_noise":0.1,"location_history":"[0,1,0,1,0,4,5,4,5,4,5,4,5,4,5,4,5,4,5,4,5,4,5,4,5,4,5,4,5,4,5,4,5,4,5,4,5,4,5,4,5,1,0,1,0,1,0,1,0,1,0,1,0,1,0,1,0,1,0,1,0,4,5,4,5,4,5,4,5,4,5,1,0,1,0,1,0,1,0,1,2,3,2,3,2,3,2,3,2,3,0,1,0,1,2,3,2,3,0,4,5,4,5,4,7]","action_history":"[0,1,0,1,0,1,0,1,0,1,0,1,0,1,0,1,0,1,0,1,0,1,0,1,0,1,0,1,0,1,0,1,0,1,0,1,0,1,0,1,0,1,0,1,0,1,0,1,0,1,0,1,0,1,0,1,0,1,0,1,0,1,0,1,0,1,0,1,0,1,0,1,0,1,0,1,0,1,0,1,0,1,0,1,0,1,0,1,0,1,0,1,0,1,0,1,0,1,0,1,0,1,0,1]","mutagen_history":"[1,0,1,0,1,0,1,0,1,0,1,0,1,0,1,0,1,0,1,0,1,0,1,0,1,0,1,0,1,0,1,0,1,0,1,0,1,0,1,0,1,0,1,0,1,0,1,0,1,0,1,0,1,0,1,0,1,0,1,0,1,0,1,0,1,0,1,0,1,0,1,0,1,0,1,0,1,0,1,0,1,0,1,0,1,0,1,0,1,0,1,0,1,0,1,0,1,0,1,0,1,0,1,0]","location_rts":"[110,531,511,517,510,526,511,528,507,525,518,523,508,530,518,525,514,524,513,525,515,523,536,520,506,529,511,530,497,526,512,518,506,529,511,530,511,525,510,522,515,531,518,527,514,519,519,525,507,526,512,527,513,538,512,524,515,524,508,532,509,531,509,530,511,528,508,524,511,526,511,530,520,528,504,532,517,530,517,524,516,533,522,540,518,518,516,527,506,530,511,531,516,524,514,523,512,530,511,527,510,540,515,528]","trial_type":"fractal-mutation","trial_index":71,"time_elapsed":5358770,"internal_node_id":"0.0-5.0-17.0"},{"group":"square cycles (cube, non-group)","fractal_assignment":["../images/org_blu.png","../images/grn_red.png","../images/cyn_red.png","../images/ylw_pnk.png","../images/gry_blk.png","../images/ylw_slt.png","../images/blu_wht.png","../images/pnk_blu.png"],"mutagen_generator_assignment":[1,0],"goal":2,"start":7,"action_noise":0.1,"location_history":"[7,6,7,6,5,4,5,4,7,6,7,6,7,6,7,6,5,4,7,6,7,6,7,6,7,6,5,4,5,4,5,4,5,1,0,1,0,1,0,1,0,1,2]","action_history":"[0,1,0,1,0,1,0,1,0,1,0,1,0,1,0,1,0,1,0,1,0,1,0,1,0,0,0,1,0,1,0,1,0,1,0,1,0,1,0,1,0,0]","mutagen_history":"[1,0,1,0,1,0,1,0,1,0,1,0,1,0,1,0,1,0,1,0,1,0,1,0,1,1,1,0,1,0,1,0,1,0,1,0,1,0,1,0,1,1]","location_rts":"[72,526,523,533,510,535,516,520,514,519,516,528,510,516,509,528,521,539,513,527,517,531,520,530,509,76,11,1500,514,529,520,538,514,533,504,532,511,530,511,524,306,123]","trial_type":"fractal-mutation","trial_index":72,"time_elapsed":5425576,"internal_node_id":"0.0-5.0-18.0"},{"group":"square cycles (cube, non-group)","fractal_assignment":["../images/org_blu.png","../images/grn_red.png","../images/cyn_red.png","../images/ylw_pnk.png","../images/gry_blk.png","../images/ylw_slt.png","../images/blu_wht.png","../images/pnk_blu.png"],"mutagen_generator_assignment":[1,0],"goal":1,"start":2,"action_noise":0.1,"location_history":"[2,3,2,3,2,3,0,1]","action_history":"[0,1,0,1,0,1,0]","mutagen_history":"[1,0,1,0,1,0,1]","location_rts":"[699,528,519,529,513,526,513]","trial_type":"fractal-mutation","trial_index":73,"time_elapsed":5439983,"internal_node_id":"0.0-5.0-19.0"},{"group":"square cycles (cube, non-group)","fractal_assignment":["../images/org_blu.png","../images/grn_red.png","../images/cyn_red.png","../images/ylw_pnk.png","../images/gry_blk.png","../images/ylw_slt.png","../images/blu_wht.png","../images/pnk_blu.png"],"mutagen_generator_assignment":[1,0],"goal":3,"start":1,"action_noise":0.1,"location_history":"[1,0,1,0,1,0,1,0,1,0,1,0,4,7,6,7,6,7,6,7,6,5,4,5,4,5,4,5,4,5,4,7,6,5,4,5,4,5,1,0,4,5,1,0,4,5,1,0,1,2,3]","action_history":"[1,0,1,0,1,0,1,0,1,0,1,0,1,0,1,0,1,0,1,0,1,0,1,0,1,0,1,0,0,0,0,0,0,0,1,0,1,1,1,1,1,1,1,1,1,0,1,0,1,0]","mutagen_history":"[0,1,0,1,0,1,0,1,0,1,0,1,0,1,0,1,0,1,0,1,0,1,0,1,0,1,0,1,1,1,1,1,1,1,0,1,0,0,0,0,0,0,0,0,0,1,0,1,0,1]","location_rts":"[101,513,532,516,534,503,532,508,533,515,521,510,535,519,535,514,528,519,534,516,530,517,532,518,529,511,529,515,109,141,8,21,96,17,227,513,393,106,184,144,81,205,116,196,129,638,527,513,525,516]","trial_type":"fractal-mutation","trial_index":74,"time_elapsed":5513563,"internal_node_id":"0.0-5.0-20.0"},{"group":"square cycles (cube, non-group)","fractal_assignment":["../images/org_blu.png","../images/grn_red.png","../images/cyn_red.png","../images/ylw_pnk.png","../images/gry_blk.png","../images/ylw_slt.png","../images/blu_wht.png","../images/pnk_blu.png"],"mutagen_generator_assignment":[1,0],"goal":6,"start":3,"action_noise":0.1,"location_history":"[3,2,3,2,3,0,1,0,1,0,1,0,1,0,1,0,1,0,4,5,1,0,4,5,4,5,4,5,1,0,4,5,4,5,4,7,3,2,3,2,3,2,3,2,3,2,3,2,6]","action_history":"[1,0,1,0,1,0,1,0,1,0,1,0,1,0,1,0,1,0,1,0,1,0,1,0,1,0,1,0,1,0,1,0,1,0,1,0,1,0,1,0,1,0,1,0,1,1,1,1]","mutagen_history":"[0,1,0,1,0,1,0,1,0,1,0,1,0,1,0,1,0,1,0,1,0,1,0,1,0,1,0,1,0,1,0,1,0,1,0,1,0,1,0,1,0,1,0,1,0,0,0,0]","location_rts":"[94,515,524,513,528,515,536,517,529,517,526,520,530,511,534,518,526,515,533,516,532,511,534,519,532,522,541,513,525,516,529,513,542,522,533,528,536,505,533,522,530,522,523,516,43,189,2,146]","trial_type":"fractal-mutation","trial_index":75,"time_elapsed":5588505,"internal_node_id":"0.0-5.0-21.0"},{"group":"square cycles (cube, non-group)","fractal_assignment":["../images/org_blu.png","../images/grn_red.png","../images/cyn_red.png","../images/ylw_pnk.png","../images/gry_blk.png","../images/ylw_slt.png","../images/blu_wht.png","../images/pnk_blu.png"],"mutagen_generator_assignment":[1,0],"goal":5,"start":6,"action_noise":0.1,"location_history":"[6,5]","action_history":"[0]","mutagen_history":"[1]","location_rts":"[266]","trial_type":"fractal-mutation","trial_index":76,"time_elapsed":5593283,"internal_node_id":"0.0-5.0-22.0"},{"group":"square cycles (cube, non-group)","fractal_assignment":["../images/org_blu.png","../images/grn_red.png","../images/cyn_red.png","../images/ylw_pnk.png","../images/gry_blk.png","../images/ylw_slt.png","../images/blu_wht.png","../images/pnk_blu.png"],"mutagen_generator_assignment":[1,0],"goal":3,"start":5,"action_noise":0.1,"location_history":"[5,1,2,6,5,1,2,6,5,1,0,4,7,3]","action_history":"[1,0,1,0,1,0,1,0,1,0,1,0,1]","mutagen_history":"[0,1,0,1,0,1,0,1,0,1,0,1,0]","location_rts":"[94,507,533,516,524,517,531,512,539,518,524,510,528]","trial_type":"fractal-mutation","trial_index":77,"time_elapsed":5616274,"internal_node_id":"0.0-5.0-23.0"},{"group":"square cycles (cube, non-group)","fractal_assignment":["../images/org_blu.png","../images/grn_red.png","../images/cyn_red.png","../images/ylw_pnk.png","../images/gry_blk.png","../images/ylw_slt.png","../images/blu_wht.png","../images/pnk_blu.png"],"mutagen_generator_assignment":[1,0],"goal":0,"start":3,"action_noise":0.1,"location_history":"[3,0]","action_history":"[0]","mutagen_history":"[1]","location_rts":"[87]","trial_type":"fractal-mutation","trial_index":78,"time_elapsed":5620884,"internal_node_id":"0.0-5.0-24.0"},{"group":"square cycles (cube, non-group)","fractal_assignment":["../images/org_blu.png","../images/grn_red.png","../images/cyn_red.png","../images/ylw_pnk.png","../images/gry_blk.png","../images/ylw_slt.png","../images/blu_wht.png","../images/pnk_blu.png"],"mutagen_generator_assignment":[1,0],"goal":7,"start":0,"action_noise":0.1,"location_history":"[0,4,7]","action_history":"[1,0]","mutagen_history":"[0,1]","location_rts":"[94,512]","trial_type":"fractal-mutation","trial_index":79,"time_elapsed":5627012,"internal_node_id":"0.0-5.0-25.0"},{"group":"square cycles (cube, non-group)","fractal_assignment":["../images/org_blu.png","../images/grn_red.png","../images/cyn_red.png","../images/ylw_pnk.png","../images/gry_blk.png","../images/ylw_slt.png","../images/blu_wht.png","../images/pnk_blu.png"],"mutagen_generator_assignment":[1,0],"goal":2,"start":7,"action_noise":0.1,"location_history":"[7,3,0,4,7,3,0,4,7,3,2]","action_history":"[1,0,1,0,1,0,1,0,1,1]","mutagen_history":"[0,1,0,1,0,1,0,1,0,0]","location_rts":"[98,522,540,522,530,514,526,513,108,44]","trial_type":"fractal-mutation","trial_index":80,"time_elapsed":5644531,"internal_node_id":"0.0-5.0-26.0"},{"group":"square cycles (cube, non-group)","fractal_assignment":["../images/org_blu.png","../images/grn_red.png","../images/cyn_red.png","../images/ylw_pnk.png","../images/gry_blk.png","../images/ylw_slt.png","../images/blu_wht.png","../images/pnk_blu.png"],"mutagen_generator_assignment":[1,0],"goal":1,"start":2,"action_noise":0.1,"location_history":"[2,3,0,4,7,3,0,4,5,1]","action_history":"[1,0,1,0,1,0,1,0,1]","mutagen_history":"[0,1,0,1,0,1,0,1,0]","location_rts":"[1005,518,528,520,538,508,529,525,535]","trial_type":"fractal-mutation","trial_index":81,"time_elapsed":5662337,"internal_node_id":"0.0-5.0-27.0"},{"group":"square cycles (cube, non-group)","fractal_assignment":["../images/org_blu.png","../images/grn_red.png","../images/cyn_red.png","../images/ylw_pnk.png","../images/gry_blk.png","../images/ylw_slt.png","../images/blu_wht.png","../images/pnk_blu.png"],"mutagen_generator_assignment":[1,0],"goal":5,"start":1,"action_noise":0.1,"location_history":"[1,2,6,5]","action_history":"[0,1,0]","mutagen_history":"[1,0,1]","location_rts":"[91,532,519]","trial_type":"fractal-mutation","trial_index":82,"time_elapsed":5670016,"internal_node_id":"0.0-5.0-28.0"},{"group":"square cycles (cube, non-group)","fractal_assignment":["../images/org_blu.png","../images/grn_red.png","../images/cyn_red.png","../images/ylw_pnk.png","../images/gry_blk.png","../images/ylw_slt.png","../images/blu_wht.png","../images/pnk_blu.png"],"mutagen_generator_assignment":[1,0],"goal":4,"start":5,"action_noise":0.1,"location_history":"[5,1,2,6,5,1,2,6,7,3,0,4]","action_history":"[1,0,1,0,1,0,1,0,1,0,1]","mutagen_history":"[0,1,0,1,0,1,0,1,0,1,0]","location_rts":"[98,521,528,519,517,520,525,523,529,511,542]","trial_type":"fractal-mutation","trial_index":83,"time_elapsed":5689972,"internal_node_id":"0.0-5.0-29.0"},{"group":"square cycles (cube, non-group)","fractal_assignment":["../images/org_blu.png","../images/grn_red.png","../images/cyn_red.png","../images/ylw_pnk.png","../images/gry_blk.png","../images/ylw_slt.png","../images/blu_wht.png","../images/pnk_blu.png"],"mutagen_generator_assignment":[1,0],"goal":6,"start":4,"action_noise":0.1,"location_history":"[4,7,3,2,6]","action_history":"[0,1,1,1]","mutagen_history":"[1,0,0,0]","location_rts":"[93,533,196,30]","trial_type":"fractal-mutation","trial_index":84,"time_elapsed":5698361,"internal_node_id":"0.0-5.0-30.0"},{"group":"square cycles (cube, non-group)","fractal_assignment":["../images/org_blu.png","../images/grn_red.png","../images/cyn_red.png","../images/ylw_pnk.png","../images/gry_blk.png","../images/ylw_slt.png","../images/blu_wht.png","../images/pnk_blu.png"],"mutagen_generator_assignment":[1,0],"goal":4,"start":6,"action_noise":0.1,"location_history":"[6,5,1,2,3,2,6,7,3,2,6,7,3,2,6,5,1,2,3,0,1,2,3,0,1,2,3,2,3,0,1,2,3,0,1,0,1,0,4]","action_history":"[0,1,0,1,1,1,1,1,1,1,1,1,1,1,0,0,0,0,0,0,0,0,0,0,0,0,0,0,0,0,0,0,0,0,1,0,1,0]","mutagen_history":"[1,0,1,0,0,0,0,0,0,0,0,0,0,0,1,1,1,1,1,1,1,1,1,1,1,1,1,1,1,1,1,1,1,1,0,1,0,1]","location_rts":"[911,532,515,527,376,312,172,31,20,4,173,204,36,891,68,9,6,27,58,54,43,69,81,71,62,80,59,159,121,90,160,77,22,1491,532,511,536,516]","trial_type":"fractal-mutation","trial_index":85,"time_elapsed":5749852,"internal_node_id":"0.0-5.0-31.0"},{"group":"square cycles (cube, non-group)","fractal_assignment":["../images/org_blu.png","../images/grn_red.png","../images/cyn_red.png","../images/ylw_pnk.png","../images/gry_blk.png","../images/ylw_slt.png","../images/blu_wht.png","../images/pnk_blu.png"],"mutagen_generator_assignment":[1,0],"goal":2,"start":4,"action_noise":0.1,"location_history":"[4,5,4,5,4,5,4,5,4,5,4,5,4,5,4,5,4,5,4,5,1,0,4,5,4,5,1,0,4,5,1,2]","action_history":"[1,0,1,0,1,0,1,0,1,0,1,0,1,0,1,0,1,0,1,1,1,1,1,1,1,1,1,1,1,1,0]","mutagen_history":"[0,1,0,1,0,1,0,1,0,1,0,1,0,1,0,1,0,1,0,0,0,0,0,0,0,0,0,0,0,0,1]","location_rts":"[109,520,534,512,530,518,525,517,534,522,537,516,537,519,535,508,531,518,118,68,75,75,90,127,85,32,164,0,6,18,954]","trial_type":"fractal-mutation","trial_index":86,"time_elapsed":5795466,"internal_node_id":"0.0-5.0-32.0"},{"group":"square cycles (cube, non-group)","fractal_assignment":["../images/org_blu.png","../images/grn_red.png","../images/cyn_red.png","../images/ylw_pnk.png","../images/gry_blk.png","../images/ylw_slt.png","../images/blu_wht.png","../images/pnk_blu.png"],"mutagen_generator_assignment":[1,0],"goal":0,"start":2,"action_noise":0.1,"location_history":"[2,6,5,1,2,6,5,4,5,1,2,3,0]","action_history":"[1,0,1,0,1,0,1,0,1,0,1,0]","mutagen_history":"[0,1,0,1,0,1,0,1,0,1,0,1]","location_rts":"[559,520,526,518,533,517,528,512,529,516,537,517]","trial_type":"fractal-mutation","trial_index":87,"time_elapsed":5817388,"internal_node_id":"0.0-5.0-33.0"},{"group":"square cycles (cube, non-group)","fractal_assignment":["../images/org_blu.png","../images/grn_red.png","../images/cyn_red.png","../images/ylw_pnk.png","../images/gry_blk.png","../images/ylw_slt.png","../images/blu_wht.png","../images/pnk_blu.png"],"mutagen_generator_assignment":[1,0],"goal":5,"start":0,"action_noise":0.1,"location_history":"[0,4,7,3,0,4,7,3,0,4,7,6,5]","action_history":"[1,0,1,0,1,0,1,0,1,0,1,0]","mutagen_history":"[0,1,0,1,0,1,0,1,0,1,0,1]","location_rts":"[109,519,533,517,528,517,535,512,536,520,543,522]","trial_type":"fractal-mutation","trial_index":88,"time_elapsed":5838916,"internal_node_id":"0.0-5.0-34.0"},{"group":"square cycles (cube, non-group)","fractal_assignment":["../images/org_blu.png","../images/grn_red.png","../images/cyn_red.png","../images/ylw_pnk.png","../images/gry_blk.png","../images/ylw_slt.png","../images/blu_wht.png","../images/pnk_blu.png"],"mutagen_generator_assignment":[1,0],"goal":1,"start":5,"action_noise":0.1,"location_history":"[5,1]","action_history":"[1]","mutagen_history":"[0]","location_rts":"[96]","trial_type":"fractal-mutation","trial_index":89,"time_elapsed":5843522,"internal_node_id":"0.0-5.0-35.0"},{"group":"square cycles (cube, non-group)","fractal_assignment":["../images/org_blu.png","../images/grn_red.png","../images/cyn_red.png","../images/ylw_pnk.png","../images/gry_blk.png","../images/ylw_slt.png","../images/blu_wht.png","../images/pnk_blu.png"],"mutagen_generator_assignment":[1,0],"goal":7,"start":1,"action_noise":0.1,"location_history":"[1,2,3,0,4,7]","action_history":"[0,1,0,1,0]","mutagen_history":"[1,0,1,0,1]","location_rts":"[85,529,513,525,520]","trial_type":"fractal-mutation","trial_index":90,"time_elapsed":5854265,"internal_node_id":"0.0-5.0-36.0"},{"group":"square cycles (cube, non-group)","fractal_assignment":["../images/org_blu.png","../images/grn_red.png","../images/cyn_red.png","../images/ylw_pnk.png","../images/gry_blk.png","../images/ylw_slt.png","../images/blu_wht.png","../images/pnk_blu.png"],"mutagen_generator_assignment":[1,0],"goal":3,"start":7,"action_noise":0.1,"location_history":"[7,3]","action_history":"[1]","mutagen_history":"[0]","location_rts":"[99]","trial_type":"fractal-mutation","trial_index":91,"time_elapsed":5858873,"internal_node_id":"0.0-5.0-37.0"},{"group":"square cycles (cube, non-group)","fractal_assignment":["../images/org_blu.png","../images/grn_red.png","../images/cyn_red.png","../images/ylw_pnk.png","../images/gry_blk.png","../images/ylw_slt.png","../images/blu_wht.png","../images/pnk_blu.png"],"mutagen_generator_assignment":[1,0],"goal":6,"start":3,"action_noise":0.1,"location_history":"[3,0,4,7,6]","action_history":"[0,1,0,1]","mutagen_history":"[1,0,1,0]","location_rts":"[92,532,540,529]","trial_type":"fractal-mutation","trial_index":92,"time_elapsed":5868121,"internal_node_id":"0.0-5.0-38.0"},{"group":"square cycles (cube, non-group)","fractal_assignment":["../images/org_blu.png","../images/grn_red.png","../images/cyn_red.png","../images/ylw_pnk.png","../images/gry_blk.png","../images/ylw_slt.png","../images/blu_wht.png","../images/pnk_blu.png"],"mutagen_generator_assignment":[1,0],"goal":2,"start":6,"action_noise":0.1,"location_history":"[6,5,1,2]","action_history":"[0,1,0]","mutagen_history":"[1,0,1]","location_rts":"[79,527,512]","trial_type":"fractal-mutation","trial_index":93,"time_elapsed":5875785,"internal_node_id":"0.0-5.0-39.0"},{"group":"square cycles (cube, non-group)","fractal_assignment":["../images/org_blu.png","../images/grn_red.png","../images/cyn_red.png","../images/ylw_pnk.png","../images/gry_blk.png","../images/ylw_slt.png","../images/blu_wht.png","../images/pnk_blu.png"],"mutagen_generator_assignment":[1,0],"goal":1,"start":2,"action_noise":0.1,"location_history":"[2,6,5,4,7,3,0,1]","action_history":"[1,0,1,0,1,0,1]","mutagen_history":"[0,1,0,1,0,1,0]","location_rts":"[99,521,529,525,533,512,531]","trial_type":"fractal-mutation","trial_index":94,"time_elapsed":5889601,"internal_node_id":"0.0-5.0-40.0"},{"group":"square cycles (cube, non-group)","fractal_assignment":["../images/org_blu.png","../images/grn_red.png","../images/cyn_red.png","../images/ylw_pnk.png","../images/gry_blk.png","../images/ylw_slt.png","../images/blu_wht.png","../images/pnk_blu.png"],"mutagen_generator_assignment":[1,0],"goal":0,"start":1,"action_noise":0.1,"location_history":"[1,2,6,5,1,2,6,7,6,5,1,2,3,0]","action_history":"[0,1,0,1,0,1,0,1,0,1,0,1,0]","mutagen_history":"[1,0,1,0,1,0,1,0,1,0,1,0,1]","location_rts":"[109,529,513,527,516,536,517,533,524,525,518,525,520]","trial_type":"fractal-mutation","trial_index":95,"time_elapsed":5912654,"internal_node_id":"0.0-5.0-41.0"},{"group":"square cycles (cube, non-group)","fractal_assignment":["../images/org_blu.png","../images/grn_red.png","../images/cyn_red.png","../images/ylw_pnk.png","../images/gry_blk.png","../images/ylw_slt.png","../images/blu_wht.png","../images/pnk_blu.png"],"mutagen_generator_assignment":[1,0],"goal":4,"start":0,"action_noise":0.1,"location_history":"[0,4]","action_history":"[1]","mutagen_history":"[0]","location_rts":"[101]","trial_type":"fractal-mutation","trial_index":96,"time_elapsed":5917268,"internal_node_id":"0.0-5.0-42.0"},{"group":"square cycles (cube, non-group)","fractal_assignment":["../images/org_blu.png","../images/grn_red.png","../images/cyn_red.png","../images/ylw_pnk.png","../images/gry_blk.png","../images/ylw_slt.png","../images/blu_wht.png","../images/pnk_blu.png"],"mutagen_generator_assignment":[1,0],"goal":6,"start":4,"action_noise":0.1,"location_history":"[4,7,3,0,4,7,3,0,4,7,3,0,1,2,6]","action_history":"[0,1,0,1,0,1,0,1,0,1,0,1,0,1]","mutagen_history":"[1,0,1,0,1,0,1,0,1,0,1,0,1,0]","location_rts":"[83,530,522,526,525,540,526,529,517,537,522,539,522,537]","trial_type":"fractal-mutation","trial_index":97,"time_elapsed":5941855,"internal_node_id":"0.0-5.0-43.0"},{"group":"square cycles (cube, non-group)","fractal_assignment":["../images/org_blu.png","../images/grn_red.png","../images/cyn_red.png","../images/ylw_pnk.png","../images/gry_blk.png","../images/ylw_slt.png","../images/blu_wht.png","../images/pnk_blu.png"],"mutagen_generator_assignment":[1,0],"goal":3,"start":6,"action_noise":0.1,"location_history":"[6,5,1,2,6,5,1,2,6,5,4,7,3]","action_history":"[0,1,0,1,0,1,0,1,0,1,0,1]","mutagen_history":"[1,0,1,0,1,0,1,0,1,0,1,0]","location_rts":"[82,540,518,527,527,530,512,533,520,536,519,538]","trial_type":"fractal-mutation","trial_index":98,"time_elapsed":5963360,"internal_node_id":"0.0-5.0-44.0"},{"group":"square cycles (cube, non-group)","fractal_assignment":["../images/org_blu.png","../images/grn_red.png","../images/cyn_red.png","../images/ylw_pnk.png","../images/gry_blk.png","../images/ylw_slt.png","../images/blu_wht.png","../images/pnk_blu.png"],"mutagen_generator_assignment":[1,0],"goal":7,"start":3,"action_noise":0.1,"location_history":"[3,0,4,7]","action_history":"[0,1,0]","mutagen_history":"[1,0,1]","location_rts":"[90,541,518]","trial_type":"fractal-mutation","trial_index":99,"time_elapsed":5971042,"internal_node_id":"0.0-5.0-45.0"},{"group":"square cycles (cube, non-group)","fractal_assignment":["../images/org_blu.png","../images/grn_red.png","../images/cyn_red.png","../images/ylw_pnk.png","../images/gry_blk.png","../images/ylw_slt.png","../images/blu_wht.png","../images/pnk_blu.png"],"mutagen_generator_assignment":[1,0],"goal":5,"start":7,"action_noise":0.1,"location_history":"[7,3,2,6,5]","action_history":"[1,0,1,0]","mutagen_history":"[0,1,0,1]","location_rts":"[105,528,535,523]","trial_type":"fractal-mutation","trial_index":100,"time_elapsed":5980263,"internal_node_id":"0.0-5.0-46.0"},{"group":"square cycles (cube, non-group)","fractal_assignment":["../images/org_blu.png","../images/grn_red.png","../images/cyn_red.png","../images/ylw_pnk.png","../images/gry_blk.png","../images/ylw_slt.png","../images/blu_wht.png","../images/pnk_blu.png"],"mutagen_generator_assignment":[1,0],"goal":1,"start":5,"action_noise":0.1,"location_history":"[5,1]","action_history":"[1]","mutagen_history":"[0]","location_rts":"[97]","trial_type":"fractal-mutation","trial_index":101,"time_elapsed":5984867,"internal_node_id":"0.0-5.0-47.0"},{"group":"square cycles (cube, non-group)","fractal_assignment":["../images/org_blu.png","../images/grn_red.png","../images/cyn_red.png","../images/ylw_pnk.png","../images/gry_blk.png","../images/ylw_slt.png","../images/blu_wht.png","../images/pnk_blu.png"],"mutagen_generator_assignment":[1,0],"goal":6,"start":1,"action_noise":0.1,"location_history":"[1,2,6]","action_history":"[0,1]","mutagen_history":"[1,0]","location_rts":"[115,541]","trial_type":"fractal-mutation","trial_index":102,"time_elapsed":5991045,"internal_node_id":"0.0-5.0-48.0"},{"group":"square cycles (cube, non-group)","fractal_assignment":["../images/org_blu.png","../images/grn_red.png","../images/cyn_red.png","../images/ylw_pnk.png","../images/gry_blk.png","../images/ylw_slt.png","../images/blu_wht.png","../images/pnk_blu.png"],"mutagen_generator_assignment":[1,0],"goal":0,"start":6,"action_noise":0.1,"location_history":"[6,5,4,7,6,5,1,2,6,5,1,2,6,5,1,0]","action_history":"[0,1,0,1,0,1,0,1,0,1,0,1,0,1,1]","mutagen_history":"[1,0,1,0,1,0,1,0,1,0,1,0,1,0,0]","location_rts":"[88,535,515,536,520,536,519,533,530,530,519,541,519,534,402]","trial_type":"fractal-mutation","trial_index":103,"time_elapsed":6017065,"internal_node_id":"0.0-5.0-49.0"},{"view_history":"[{\"page_index\":0,\"viewing_time\":4708}]","rt":4708,"trial_type":"instructions","trial_index":104,"time_elapsed":6022776,"internal_node_id":"0.0-6.0"},{"rt":18117,"responses":"{\"Q0\":\"I am so bad at this. :( I was worried i was going to run out of time.\"}","trial_type":"survey-text","trial_index":105,"time_elapsed":6041897,"internal_node_id":"0.0-7.0"}]