[{"view_history":"[{\"page_index\":0,\"viewing_time\":1653},{\"page_index\":1,\"viewing_time\":7636}]","rt":9291,"trial_type":"instructions","trial_index":0,"time_elapsed":9291,"internal_node_id":"0.0-0.0"},{"view_history":"[{\"page_index\":0,\"viewing_time\":6096},{\"page_index\":1,\"viewing_time\":19610}]","rt":25706,"trial_type":"instructions","trial_index":1,"time_elapsed":36010,"internal_node_id":"0.0-1.0"},{"group":"tri cycles (cube, non-group)","room_assignment":["yellow","grey","red","brown","purple","green","pink","blue"],"door_color_assignment":["black","white"],"door_generator_assignment":[0,1],"goal":6,"start":3,"action_noise":0.1,"location_history":"[3,7,6]","action_history":"[0,0]","door_history":"[0,0]","location_rts":"[2583,1448]","trial_type":"two-door-navigation","trial_index":2,"time_elapsed":45565,"internal_node_id":"0.0-2.0-0.0"},{"group":"tri cycles (cube, non-group)","room_assignment":["yellow","grey","red","brown","purple","green","pink","blue"],"door_color_assignment":["black","white"],"door_generator_assignment":[0,1],"goal":1,"start":6,"action_noise":0.1,"location_history":"[6,5,2,1]","action_history":"[1,1,0]","door_history":"[1,1,0]","location_rts":"[2927,3237,1069]","trial_type":"two-door-navigation","trial_index":3,"time_elapsed":59327,"internal_node_id":"0.0-2.0-1.0"},{"group":"tri cycles (cube, non-group)","room_assignment":["yellow","grey","red","brown","purple","green","pink","blue"],"door_color_assignment":["black","white"],"door_generator_assignment":[0,1],"goal":2,"start":1,"action_noise":0.1,"location_history":"[1,0,3,7,6,5,2]","action_history":"[0,1,0,0,1,1]","door_history":"[0,1,0,0,1,1]","location_rts":"[1679,961,1107,1009,919,1061]","trial_type":"two-door-navigation","trial_index":4,"time_elapsed":75606,"internal_node_id":"0.0-2.0-2.0"},{"group":"tri cycles (cube, non-group)","room_assignment":["yellow","grey","red","brown","purple","green","pink","blue"],"door_color_assignment":["black","white"],"door_generator_assignment":[0,1],"goal":0,"start":2,"action_noise":0.1,"location_history":"[2,1,0]","action_history":"[0,0]","door_history":"[0,0]","location_rts":"[1888,716]","trial_type":"two-door-navigation","trial_index":5,"time_elapsed":83721,"internal_node_id":"0.0-2.0-3.0"},{"group":"tri cycles (cube, non-group)","room_assignment":["yellow","grey","red","brown","purple","green","pink","blue"],"door_color_assignment":["black","white"],"door_generator_assignment":[0,1],"goal":7,"start":0,"action_noise":0.1,"location_history":"[0,3,7]","action_history":"[1,0]","door_history":"[1,0]","location_rts":"[1128,1172]","trial_type":"two-door-navigation","trial_index":6,"time_elapsed":91535,"internal_node_id":"0.0-2.0-4.0"},{"group":"tri cycles (cube, non-group)","room_assignment":["yellow","grey","red","brown","purple","green","pink","blue"],"door_color_assignment":["black","white"],"door_generator_assignment":[0,1],"goal":5,"start":7,"action_noise":0.1,"location_history":"[7,6,5]","action_history":"[0,1]","door_history":"[0,1]","location_rts":"[1723,1025]","trial_type":"two-door-navigation","trial_index":7,"time_elapsed":99799,"internal_node_id":"0.0-2.0-5.0"},{"group":"tri cycles (cube, non-group)","room_assignment":["yellow","grey","red","brown","purple","green","pink","blue"],"door_color_assignment":["black","white"],"door_generator_assignment":[0,1],"goal":4,"start":5,"action_noise":0.1,"location_history":"[5,2,1,0,3,7,6,5,2,1,0,3,7,3,7,6,5,2,1,0,3,7,6,5,1,0,3,4]","action_history":"[1,0,0,1,0,0,1,1,0,0,1,0,0,0,0,1,1,0,0,1,0,0,1,0,1,1,1]","door_history":"[1,0,0,1,0,0,1,1,0,0,1,0,0,0,0,1,1,0,0,1,0,0,1,0,1,1,1]","location_rts":"[1325,1148,1021,1507,844,441,862,819,1108,777,927,961,771,1210,1737,993,1669,1154,801,1146,795,457,1078,738,1222,838,1817]","trial_type":"two-door-navigation","trial_index":8,"time_elapsed":158660,"internal_node_id":"0.0-2.0-6.0"},{"group":"tri cycles (cube, non-group)","room_assignment":["yellow","grey","red","brown","purple","green","pink","blue"],"door_color_assignment":["black","white"],"door_generator_assignment":[0,1],"goal":2,"start":4,"action_noise":0.1,"location_history":"[4,0,3,7,3,7,6,4,0,3,4,0,3,4,7,6,5,1,0,2]","action_history":"[1,1,0,0,0,0,1,1,1,1,1,1,1,0,0,0,0,0,0]","door_history":"[1,1,0,0,0,0,1,1,1,1,1,1,1,0,0,0,0,0,0]","location_rts":"[2263,1049,942,886,638,408,1109,675,477,361,613,313,426,2834,578,618,655,446,385]","trial_type":"two-door-navigation","trial_index":9,"time_elapsed":196969,"internal_node_id":"0.0-2.0-7.0"},{"group":"tri cycles (cube, non-group)","room_assignment":["yellow","grey","red","brown","purple","green","pink","blue"],"door_color_assignment":["black","white"],"door_generator_assignment":[0,1],"goal":3,"start":2,"action_noise":0.1,"location_history":"[2,1,0,2,6,4,7,3]","action_history":"[0,0,0,0,0,0,0]","door_history":"[0,0,0,0,0,0,0]","location_rts":"[2541,788,626,858,411,390,991]","trial_type":"two-door-navigation","trial_index":10,"time_elapsed":214121,"internal_node_id":"0.0-2.0-8.0"},{"group":"tri cycles (cube, non-group)","room_assignment":["yellow","grey","red","brown","purple","green","pink","blue"],"door_color_assignment":["black","white"],"door_generator_assignment":[0,1],"goal":7,"start":3,"action_noise":0.1,"location_history":"[3,7]","action_history":"[0]","door_history":"[0]","location_rts":"[1533]","trial_type":"two-door-navigation","trial_index":11,"time_elapsed":220161,"internal_node_id":"0.0-2.0-9.0"},{"group":"tri cycles (cube, non-group)","room_assignment":["yellow","grey","red","brown","purple","green","pink","blue"],"door_color_assignment":["black","white"],"door_generator_assignment":[0,1],"goal":0,"start":7,"action_noise":0.1,"location_history":"[7,6,4,7,6,4,0]","action_history":"[0,0,0,0,0,1]","door_history":"[0,0,0,0,0,1]","location_rts":"[2517,346,249,329,367,845]","trial_type":"two-door-navigation","trial_index":12,"time_elapsed":234360,"internal_node_id":"0.0-2.0-10.0"},{"group":"tri cycles (cube, non-group)","room_assignment":["yellow","grey","red","brown","purple","green","pink","blue"],"door_color_assignment":["black","white"],"door_generator_assignment":[0,1],"goal":1,"start":0,"action_noise":0.1,"location_history":"[0,3,4,0,3,7,6,4,0,3,4,7,6,5,1]","action_history":"[1,0,1,1,0,0,1,1,1,1,0,0,0,0]","door_history":"[1,0,1,1,0,0,1,1,1,1,0,0,0,0]","location_rts":"[1021,1403,1046,583,1040,362,1020,387,469,322,356,302,396,327]","trial_type":"two-door-navigation","trial_index":13,"time_elapsed":260978,"internal_node_id":"0.0-2.0-11.0"},{"group":"tri cycles (cube, non-group)","room_assignment":["yellow","grey","red","brown","purple","green","pink","blue"],"door_color_assignment":["black","white"],"door_generator_assignment":[0,1],"goal":6,"start":1,"action_noise":0.1,"location_history":"[1,0,2,1,0,3,4,0,3,4,0,3,7,6]","action_history":"[0,0,0,0,1,1,1,1,1,1,0,0,0]","door_history":"[0,0,0,0,1,1,1,1,1,1,0,0,0]","location_rts":"[962,369,244,289,523,273,280,288,242,229,252,283,302]","trial_type":"two-door-navigation","trial_index":14,"time_elapsed":282097,"internal_node_id":"0.0-2.0-12.0"},{"group":"tri cycles (cube, non-group)","room_assignment":["yellow","grey","red","brown","purple","green","pink","blue"],"door_color_assignment":["black","white"],"door_generator_assignment":[0,1],"goal":4,"start":6,"action_noise":0.1,"location_history":"[6,4]","action_history":"[0]","door_history":"[0]","location_rts":"[183007]","trial_type":"two-door-navigation","trial_index":15,"time_elapsed":469797,"internal_node_id":"0.0-2.0-13.0"},{"group":"tri cycles (cube, non-group)","room_assignment":["yellow","grey","red","brown","purple","green","pink","blue"],"door_color_assignment":["black","white"],"door_generator_assignment":[0,1],"goal":5,"start":4,"action_noise":0.1,"location_history":"[4,0,3,4,7,6,4,7,6,4,0,3,4,0,3,4,7,3,4,7,6,5]","action_history":"[1,1,1,1,0,0,0,0,0,1,1,1,1,0,0,0,1,1,0,0,1]","door_history":"[1,1,1,1,0,0,0,0,0,1,1,1,1,0,0,0,1,1,0,0,1]","location_rts":"[1380,438,320,314,739,282,357,408,454,426,381,354,964,1002,364,677,801,653,731,379,457]","trial_type":"two-door-navigation","trial_index":16,"time_elapsed":506330,"internal_node_id":"0.0-2.0-14.0"},{"group":"tri cycles (cube, non-group)","room_assignment":["yellow","grey","red","brown","purple","green","pink","blue"],"door_color_assignment":["black","white"],"door_generator_assignment":[0,1],"goal":4,"start":5,"action_noise":0.1,"location_history":"[5,2,6,5,1,0,3,4]","action_history":"[1,1,1,0,0,1,1]","door_history":"[1,1,1,0,0,1,1]","location_rts":"[9438,677,301,1143,400,104599,373]","trial_type":"two-door-navigation","trial_index":17,"time_elapsed":633800,"internal_node_id":"0.0-2.0-15.0"},{"group":"tri cycles (cube, non-group)","room_assignment":["yellow","grey","red","brown","purple","green","pink","blue"],"door_color_assignment":["black","white"],"door_generator_assignment":[0,1],"goal":0,"start":4,"action_noise":0.1,"location_history":"[4,0]","action_history":"[1]","door_history":"[1]","location_rts":"[1466]","trial_type":"two-door-navigation","trial_index":18,"time_elapsed":639776,"internal_node_id":"0.0-2.0-16.0"},{"group":"tri cycles (cube, non-group)","room_assignment":["yellow","grey","red","brown","purple","green","pink","blue"],"door_color_assignment":["black","white"],"door_generator_assignment":[0,1],"goal":7,"start":0,"action_noise":0.1,"location_history":"[0,2,1,0,3,7]","action_history":"[0,0,0,0,0]","door_history":"[0,0,0,0,0]","location_rts":"[1665,374,354,335,429]","trial_type":"two-door-navigation","trial_index":19,"time_elapsed":651469,"internal_node_id":"0.0-2.0-17.0"},{"group":"tri cycles (cube, non-group)","room_assignment":["yellow","grey","red","brown","purple","green","pink","blue"],"door_color_assignment":["black","white"],"door_generator_assignment":[0,1],"goal":2,"start":7,"action_noise":0.1,"location_history":"[7,3,4,0,3,4,0,2]","action_history":"[1,1,1,1,1,1,0]","door_history":"[1,1,1,1,1,1,0]","location_rts":"[1918,269,307,384,320,340,651]","trial_type":"two-door-navigation","trial_index":20,"time_elapsed":666212,"internal_node_id":"0.0-2.0-18.0"},{"group":"tri cycles (cube, non-group)","room_assignment":["yellow","grey","red","brown","purple","green","pink","blue"],"door_color_assignment":["black","white"],"door_generator_assignment":[0,1],"goal":1,"start":2,"action_noise":0.1,"location_history":"[2,1]","action_history":"[0]","door_history":"[0]","location_rts":"[1612]","trial_type":"two-door-navigation","trial_index":21,"time_elapsed":672331,"internal_node_id":"0.0-2.0-19.0"},{"group":"tri cycles (cube, non-group)","room_assignment":["yellow","grey","red","brown","purple","green","pink","blue"],"door_color_assignment":["black","white"],"door_generator_assignment":[0,1],"goal":3,"start":1,"action_noise":0.1,"location_history":"[1,0,2,1,0,2,6,5,1,0,3]","action_history":"[0,0,0,0,0,1,1,1,0,1]","door_history":"[0,0,0,0,0,1,1,1,0,1]","location_rts":"[1282,346,354,283,297,615,732,811,2298,960]","trial_type":"two-door-navigation","trial_index":22,"time_elapsed":694277,"internal_node_id":"0.0-2.0-20.0"},{"group":"tri cycles (cube, non-group)","room_assignment":["yellow","grey","red","brown","purple","green","pink","blue"],"door_color_assignment":["black","white"],"door_generator_assignment":[0,1],"goal":6,"start":3,"action_noise":0.1,"location_history":"[3,7,6]","action_history":"[0,0]","door_history":"[0,0]","location_rts":"[99290,1052]","trial_type":"two-door-navigation","trial_index":23,"time_elapsed":801140,"internal_node_id":"0.0-2.0-21.0"},{"group":"tri cycles (cube, non-group)","room_assignment":["yellow","grey","red","brown","purple","green","pink","blue"],"door_color_assignment":["black","white"],"door_generator_assignment":[0,1],"goal":5,"start":6,"action_noise":0.1,"location_history":"[6,5]","action_history":"[1]","door_history":"[1]","location_rts":"[1240]","trial_type":"two-door-navigation","trial_index":24,"time_elapsed":806887,"internal_node_id":"0.0-2.0-22.0"},{"group":"tri cycles (cube, non-group)","room_assignment":["yellow","grey","red","brown","purple","green","pink","blue"],"door_color_assignment":["black","white"],"door_generator_assignment":[0,1],"goal":3,"start":5,"action_noise":0.1,"location_history":"[5,1,0,3]","action_history":"[0,0,1]","door_history":"[0,0,1]","location_rts":"[2183,376,1012]","trial_type":"two-door-navigation","trial_index":25,"time_elapsed":816983,"internal_node_id":"0.0-2.0-23.0"},{"group":"tri cycles (cube, non-group)","room_assignment":["yellow","grey","red","brown","purple","green","pink","blue"],"door_color_assignment":["black","white"],"door_generator_assignment":[0,1],"goal":0,"start":3,"action_noise":0.1,"location_history":"[3,4,0]","action_history":"[1,1]","door_history":"[1,1]","location_rts":"[11321,505]","trial_type":"two-door-navigation","trial_index":26,"time_elapsed":834322,"internal_node_id":"0.0-2.0-24.0"},{"group":"tri cycles (cube, non-group)","room_assignment":["yellow","grey","red","brown","purple","green","pink","blue"],"door_color_assignment":["black","white"],"door_generator_assignment":[0,1],"goal":7,"start":0,"action_noise":0.1,"location_history":"[0,2,1,0,3,4,7]","action_history":"[0,0,0,1,1,0]","door_history":"[0,0,0,1,1,0]","location_rts":"[1614,346,396,127747,474,459]","trial_type":"two-door-navigation","trial_index":27,"time_elapsed":974898,"internal_node_id":"0.0-2.0-25.0"},{"group":"tri cycles (cube, non-group)","room_assignment":["yellow","grey","red","brown","purple","green","pink","blue"],"door_color_assignment":["black","white"],"door_generator_assignment":[0,1],"goal":2,"start":7,"action_noise":0.1,"location_history":"[7,3,4,0,2]","action_history":"[1,1,1,0]","door_history":"[1,1,1,0]","location_rts":"[3239,337,390,1096]","trial_type":"two-door-navigation","trial_index":28,"time_elapsed":987492,"internal_node_id":"0.0-2.0-26.0"},{"group":"tri cycles (cube, non-group)","room_assignment":["yellow","grey","red","brown","purple","green","pink","blue"],"door_color_assignment":["black","white"],"door_generator_assignment":[0,1],"goal":1,"start":2,"action_noise":0.1,"location_history":"[2,1]","action_history":"[0]","door_history":"[0]","location_rts":"[1794]","trial_type":"two-door-navigation","trial_index":29,"time_elapsed":993795,"internal_node_id":"0.0-2.0-27.0"},{"group":"tri cycles (cube, non-group)","room_assignment":["yellow","grey","red","brown","purple","green","pink","blue"],"door_color_assignment":["black","white"],"door_generator_assignment":[0,1],"goal":5,"start":1,"action_noise":0.1,"location_history":"[1,0,2,6,5]","action_history":"[0,0,1,1]","door_history":"[0,0,1,1]","location_rts":"[1392,405,836,439]","trial_type":"two-door-navigation","trial_index":30,"time_elapsed":1004390,"internal_node_id":"0.0-2.0-28.0"},{"group":"tri cycles (cube, non-group)","room_assignment":["yellow","grey","red","brown","purple","green","pink","blue"],"door_color_assignment":["black","white"],"door_generator_assignment":[0,1],"goal":4,"start":5,"action_noise":0.1,"location_history":"[5,2,6,5,2,1,0,3,7,6,5,2,1,0,2,1,0,2,6,4]","action_history":"[1,1,1,1,0,0,1,0,0,1,1,0,0,0,0,0,0,1,1]","door_history":"[1,1,1,1,0,0,1,0,0,1,1,0,0,0,0,0,0,1,1]","location_rts":"[2080,374,526,1237,787,821,960,1071,661,1236,1261,1195,676,323,678,644,458,1292,767]","trial_type":"two-door-navigation","trial_index":31,"time_elapsed":1044077,"internal_node_id":"0.0-2.0-29.0"},{"group":"tri cycles (cube, non-group)","room_assignment":["yellow","grey","red","brown","purple","green","pink","blue"],"door_color_assignment":["black","white"],"door_generator_assignment":[0,1],"goal":6,"start":4,"action_noise":0.1,"location_history":"[4,0,3,4,7,6]","action_history":"[1,1,0,0,0]","door_history":"[1,1,0,0,0]","location_rts":"[1209,875,1007,3135,757]","trial_type":"two-door-navigation","trial_index":32,"time_elapsed":1059600,"internal_node_id":"0.0-2.0-30.0"},{"group":"tri cycles (cube, non-group)","room_assignment":["yellow","grey","red","brown","purple","green","pink","blue"],"door_color_assignment":["black","white"],"door_generator_assignment":[0,1],"goal":4,"start":6,"action_noise":0.1,"location_history":"[6,5,2,1,0,3,7,6,5,2,1,0,3,7,6,4]","action_history":"[1,1,0,0,1,0,0,1,1,1,0,1,0,0,0]","door_history":"[1,1,0,0,1,0,0,1,1,1,0,1,0,0,0]","location_rts":"[5026,4156,1093,698,1099,915,1351,1425,919,1148,1387,1147,1214,625,1394]","trial_type":"two-door-navigation","trial_index":33,"time_elapsed":1101812,"internal_node_id":"0.0-2.0-31.0"},{"group":"tri cycles (cube, non-group)","room_assignment":["yellow","grey","red","brown","purple","green","pink","blue"],"door_color_assignment":["black","white"],"door_generator_assignment":[0,1],"goal":2,"start":4,"action_noise":0.1,"location_history":"[4,0,2]","action_history":"[1,0]","door_history":"[1,0]","location_rts":"[72389,2118]","trial_type":"two-door-navigation","trial_index":34,"time_elapsed":1181837,"internal_node_id":"0.0-2.0-32.0"},{"group":"tri cycles (cube, non-group)","room_assignment":["yellow","grey","red","brown","purple","green","pink","blue"],"door_color_assignment":["black","white"],"door_generator_assignment":[0,1],"goal":0,"start":2,"action_noise":0.1,"location_history":"[2,1,5,2,6,4,0]","action_history":"[1,1,1,1,0,1]","door_history":"[1,1,1,1,0,1]","location_rts":"[1743,2017,1408,901,1841,1062]","trial_type":"two-door-navigation","trial_index":35,"time_elapsed":1200347,"internal_node_id":"0.0-2.0-33.0"},{"group":"tri cycles (cube, non-group)","room_assignment":["yellow","grey","red","brown","purple","green","pink","blue"],"door_color_assignment":["black","white"],"door_generator_assignment":[0,1],"goal":5,"start":0,"action_noise":0.1,"location_history":"[0,2,1,0,2,1,5]","action_history":"[0,0,0,0,0,1]","door_history":"[0,0,0,0,0,1]","location_rts":"[3431,1399,1359,1223,1202,966]","trial_type":"two-door-navigation","trial_index":36,"time_elapsed":1219472,"internal_node_id":"0.0-2.0-34.0"},{"group":"tri cycles (cube, non-group)","room_assignment":["yellow","grey","red","brown","purple","green","pink","blue"],"door_color_assignment":["black","white"],"door_generator_assignment":[0,1],"goal":1,"start":5,"action_noise":0.1,"location_history":"[5,1]","action_history":"[0]","door_history":"[0]","location_rts":"[1819]","trial_type":"two-door-navigation","trial_index":37,"time_elapsed":1225799,"internal_node_id":"0.0-2.0-35.0"},{"group":"tri cycles (cube, non-group)","room_assignment":["yellow","grey","red","brown","purple","green","pink","blue"],"door_color_assignment":["black","white"],"door_generator_assignment":[0,1],"goal":7,"start":1,"action_noise":0.1,"location_history":"[1,0,3,7]","action_history":"[0,0,0]","door_history":"[0,0,0]","location_rts":"[2304,1319,2163]","trial_type":"two-door-navigation","trial_index":38,"time_elapsed":1238114,"internal_node_id":"0.0-2.0-36.0"},{"group":"tri cycles (cube, non-group)","room_assignment":["yellow","grey","red","brown","purple","green","pink","blue"],"door_color_assignment":["black","white"],"door_generator_assignment":[0,1],"goal":3,"start":7,"action_noise":0.1,"location_history":"[7,3]","action_history":"[1]","door_history":"[1]","location_rts":"[2539]","trial_type":"two-door-navigation","trial_index":39,"time_elapsed":1245157,"internal_node_id":"0.0-2.0-37.0"},{"group":"tri cycles (cube, non-group)","room_assignment":["yellow","grey","red","brown","purple","green","pink","blue"],"door_color_assignment":["black","white"],"door_generator_assignment":[0,1],"goal":6,"start":3,"action_noise":0.1,"location_history":"[3,4,0,3,4,0,3,7,6]","action_history":"[1,1,1,1,1,0,0,0]","door_history":"[1,1,1,1,1,0,0,0]","location_rts":"[2818,50804,1100,757,414,913,704,2594]","trial_type":"two-door-navigation","trial_index":40,"time_elapsed":1316822,"internal_node_id":"0.0-2.0-38.0"},{"group":"tri cycles (cube, non-group)","room_assignment":["yellow","grey","red","brown","purple","green","pink","blue"],"door_color_assignment":["black","white"],"door_generator_assignment":[0,1],"goal":2,"start":6,"action_noise":0.1,"location_history":"[6,5,2]","action_history":"[1,1]","door_history":"[1,1]","location_rts":"[3656,900]","trial_type":"two-door-navigation","trial_index":41,"time_elapsed":1326893,"internal_node_id":"0.0-2.0-39.0"},{"group":"tri cycles (cube, non-group)","room_assignment":["yellow","grey","red","brown","purple","green","pink","blue"],"door_color_assignment":["black","white"],"door_generator_assignment":[0,1],"goal":1,"start":2,"action_noise":0.1,"location_history":"[2,1]","action_history":"[0]","door_history":"[0]","location_rts":"[2617]","trial_type":"two-door-navigation","trial_index":42,"time_elapsed":1334020,"internal_node_id":"0.0-2.0-40.0"},{"group":"tri cycles (cube, non-group)","room_assignment":["yellow","grey","red","brown","purple","green","pink","blue"],"door_color_assignment":["black","white"],"door_generator_assignment":[0,1],"goal":0,"start":1,"action_noise":0.1,"location_history":"[1,0]","action_history":"[0]","door_history":"[0]","location_rts":"[1642]","trial_type":"two-door-navigation","trial_index":43,"time_elapsed":1340169,"internal_node_id":"0.0-2.0-41.0"},{"group":"tri cycles (cube, non-group)","room_assignment":["yellow","grey","red","brown","purple","green","pink","blue"],"door_color_assignment":["black","white"],"door_generator_assignment":[0,1],"goal":4,"start":0,"action_noise":0.1,"location_history":"[0,3,7,6,5,2,1,0,2,1,0,3,4]","action_history":"[0,0,0,1,1,0,0,1,0,0,1,0]","door_history":"[0,0,0,1,1,0,0,1,0,0,1,0]","location_rts":"[1810,1259,635,1162,1835,945,1660,206286,1150,889,1009,1232]","trial_type":"two-door-navigation","trial_index":44,"time_elapsed":1575624,"internal_node_id":"0.0-2.0-42.0"},{"group":"tri cycles (cube, non-group)","room_assignment":["yellow","grey","red","brown","purple","green","pink","blue"],"door_color_assignment":["black","white"],"door_generator_assignment":[0,1],"goal":6,"start":4,"action_noise":0.1,"location_history":"[4,0,3,7,6]","action_history":"[1,1,0,0]","door_history":"[1,1,0,0]","location_rts":"[1453,1203,907,681]","trial_type":"two-door-navigation","trial_index":45,"time_elapsed":1587402,"internal_node_id":"0.0-2.0-43.0"},{"group":"tri cycles (cube, non-group)","room_assignment":["yellow","grey","red","brown","purple","green","pink","blue"],"door_color_assignment":["black","white"],"door_generator_assignment":[0,1],"goal":3,"start":6,"action_noise":0.1,"location_history":"[6,5,2,1,0,2,1,0,3]","action_history":"[1,1,0,0,1,0,0,1]","door_history":"[1,1,0,0,1,0,0,1]","location_rts":"[2240,749,1330,1386,1068,1129,611,942]","trial_type":"two-door-navigation","trial_index":46,"time_elapsed":1608414,"internal_node_id":"0.0-2.0-44.0"},{"group":"tri cycles (cube, non-group)","room_assignment":["yellow","grey","red","brown","purple","green","pink","blue"],"door_color_assignment":["black","white"],"door_generator_assignment":[0,1],"goal":7,"start":3,"action_noise":0.1,"location_history":"[3,7]","action_history":"[0]","door_history":"[0]","location_rts":"[1346]","trial_type":"two-door-navigation","trial_index":47,"time_elapsed":1614267,"internal_node_id":"0.0-2.0-45.0"},{"group":"tri cycles (cube, non-group)","room_assignment":["yellow","grey","red","brown","purple","green","pink","blue"],"door_color_assignment":["black","white"],"door_generator_assignment":[0,1],"goal":5,"start":7,"action_noise":0.1,"location_history":"[7,6,5]","action_history":"[0,1]","door_history":"[0,1]","location_rts":"[1457,944]","trial_type":"two-door-navigation","trial_index":48,"time_elapsed":1622184,"internal_node_id":"0.0-2.0-46.0"},{"group":"tri cycles (cube, non-group)","room_assignment":["yellow","grey","red","brown","purple","green","pink","blue"],"door_color_assignment":["black","white"],"door_generator_assignment":[0,1],"goal":1,"start":5,"action_noise":0.1,"location_history":"[5,2,6,5,2,1]","action_history":"[1,1,1,1,0]","door_history":"[1,1,1,1,0]","location_rts":"[1304,990,1906,700,1889]","trial_type":"two-door-navigation","trial_index":49,"time_elapsed":1637509,"internal_node_id":"0.0-2.0-47.0"},{"group":"tri cycles (cube, non-group)","room_assignment":["yellow","grey","red","brown","purple","green","pink","blue"],"door_color_assignment":["black","white"],"door_generator_assignment":[0,1],"goal":6,"start":1,"action_noise":0.1,"location_history":"[1,0,3,7,6]","action_history":"[0,1,0,0]","door_history":"[0,1,0,0]","location_rts":"[1319,740,899,570]","trial_type":"two-door-navigation","trial_index":50,"time_elapsed":1648565,"internal_node_id":"0.0-2.0-48.0"},{"group":"tri cycles (cube, non-group)","room_assignment":["yellow","grey","red","brown","purple","green","pink","blue"],"door_color_assignment":["black","white"],"door_generator_assignment":[0,1],"goal":0,"start":6,"action_noise":0.1,"location_history":"[6,4,0]","action_history":"[0,1]","door_history":"[0,1]","location_rts":"[1073,1626]","trial_type":"two-door-navigation","trial_index":51,"time_elapsed":1656780,"internal_node_id":"0.0-2.0-49.0"},{"view_history":"[{\"page_index\":0,\"viewing_time\":2816}]","rt":2816,"trial_type":"instructions","trial_index":52,"time_elapsed":1660596,"internal_node_id":"0.0-3.0"},{"view_history":"[{\"page_index\":0,\"viewing_time\":2486},{\"page_index\":1,\"viewing_time\":6953}]","rt":9439,"trial_type":"instructions","trial_index":53,"time_elapsed":1671036,"internal_node_id":"0.0-4.0"},{"group":"tri cycles (cube, non-group)","fractal_assignment":["../images/cyn_red.png","../images/gry_blk.png","../images/grn_red.png","../images/org_blu.png","../images/pnk_blu.png","../images/ylw_pnk.png","../images/blu_wht.png","../images/ylw_slt.png"],"mutagen_generator_assignment":[0,1],"goal":6,"start":3,"action_noise":0.1,"location_history":"[3,4,0,3,7,6]","action_history":"[1,1,1,1,0]","mutagen_history":"[1,1,1,1,0]","location_rts":"[2303,1223,382,481,344]","trial_type":"fractal-mutation","trial_index":54,"time_elapsed":1684406,"internal_node_id":"0.0-5.0-0.0"},{"group":"tri cycles (cube, non-group)","fractal_assignment":["../images/cyn_red.png","../images/gry_blk.png","../images/grn_red.png","../images/org_blu.png","../images/pnk_blu.png","../images/ylw_pnk.png","../images/blu_wht.png","../images/ylw_slt.png"],"mutagen_generator_assignment":[0,1],"goal":1,"start":6,"action_noise":0.1,"location_history":"[6,4,7,3,7,6,4,0,2,1]","action_history":"[0,0,1,0,0,0,0,0,0]","mutagen_history":"[0,0,1,0,0,0,0,0,0]","location_rts":"[1790,370,360,493,319,415,561,986,625]","trial_type":"fractal-mutation","trial_index":55,"time_elapsed":1702985,"internal_node_id":"0.0-5.0-1.0"},{"group":"tri cycles (cube, non-group)","fractal_assignment":["../images/cyn_red.png","../images/gry_blk.png","../images/grn_red.png","../images/org_blu.png","../images/pnk_blu.png","../images/ylw_pnk.png","../images/blu_wht.png","../images/ylw_slt.png"],"mutagen_generator_assignment":[0,1],"goal":2,"start":1,"action_noise":0.1,"location_history":"[1,5,2]","action_history":"[1,1]","mutagen_history":"[1,1]","location_rts":"[668,438]","trial_type":"fractal-mutation","trial_index":56,"time_elapsed":1709634,"internal_node_id":"0.0-5.0-2.0"},{"group":"tri cycles (cube, non-group)","fractal_assignment":["../images/cyn_red.png","../images/gry_blk.png","../images/grn_red.png","../images/org_blu.png","../images/pnk_blu.png","../images/ylw_pnk.png","../images/blu_wht.png","../images/ylw_slt.png"],"mutagen_generator_assignment":[0,1],"goal":0,"start":2,"action_noise":0.1,"location_history":"[2,6,5,2,1,0]","action_history":"[1,1,1,1,0]","mutagen_history":"[1,1,1,1,0]","location_rts":"[803,423,360,473,380]","trial_type":"fractal-mutation","trial_index":57,"time_elapsed":1720690,"internal_node_id":"0.0-5.0-3.0"},{"group":"tri cycles (cube, non-group)","fractal_assignment":["../images/cyn_red.png","../images/gry_blk.png","../images/grn_red.png","../images/org_blu.png","../images/pnk_blu.png","../images/ylw_pnk.png","../images/blu_wht.png","../images/ylw_slt.png"],"mutagen_generator_assignment":[0,1],"goal":7,"start":0,"action_noise":0.1,"location_history":"[0,2,1,0,2,1,0,2,1,5,1,0,2,1,0,3,4,0,2,6,4,7]","action_history":"[0,0,0,0,0,0,0,0,1,0,0,0,0,0,1,1,1,1,1,0,0]","mutagen_history":"[0,0,0,0,0,0,0,0,1,0,0,0,0,0,1,1,1,1,1,0,0]","location_rts":"[690,418,917,462,385,391,433,619,614,713,486,567,363,401,250,345,393,352,355,292,489]","trial_type":"fractal-mutation","trial_index":58,"time_elapsed":1755505,"internal_node_id":"0.0-5.0-4.0"},{"group":"tri cycles (cube, non-group)","fractal_assignment":["../images/cyn_red.png","../images/gry_blk.png","../images/grn_red.png","../images/org_blu.png","../images/pnk_blu.png","../images/ylw_pnk.png","../images/blu_wht.png","../images/ylw_slt.png"],"mutagen_generator_assignment":[0,1],"goal":5,"start":7,"action_noise":0.1,"location_history":"[7,3,4,7,3,4,0,2,1,0,3,7,3,7,6,5]","action_history":"[1,1,1,1,1,1,0,0,0,1,0,1,0,0,1]","mutagen_history":"[1,1,1,1,1,1,0,0,0,1,0,1,0,0,1]","location_rts":"[781,359,315,308,299,330,285,265,451,329,249,305,515144,346,305]","trial_type":"fractal-mutation","trial_index":59,"time_elapsed":2294370,"internal_node_id":"0.0-5.0-5.0"},{"group":"tri cycles (cube, non-group)","fractal_assignment":["../images/cyn_red.png","../images/gry_blk.png","../images/grn_red.png","../images/org_blu.png","../images/pnk_blu.png","../images/ylw_pnk.png","../images/blu_wht.png","../images/ylw_slt.png"],"mutagen_generator_assignment":[0,1],"goal":4,"start":5,"action_noise":0.1,"location_history":"[5,2,1,5,2,6,5,2,6,5,2,1,5,1,0,3,4]","action_history":"[0,0,1,1,1,1,1,1,1,0,0,0,0,0,1,1]","mutagen_history":"[0,0,1,1,1,1,1,1,1,0,0,0,0,0,1,1]","location_rts":"[571,376,307,377,334,477,658,415,481,422,334,256,301,320,402,376]","trial_type":"fractal-mutation","trial_index":60,"time_elapsed":2320580,"internal_node_id":"0.0-5.0-6.0"},{"group":"tri cycles (cube, non-group)","fractal_assignment":["../images/cyn_red.png","../images/gry_blk.png","../images/grn_red.png","../images/org_blu.png","../images/pnk_blu.png","../images/ylw_pnk.png","../images/blu_wht.png","../images/ylw_slt.png"],"mutagen_generator_assignment":[0,1],"goal":2,"start":4,"action_noise":0.1,"location_history":"[4,0,3,4,0,2]","action_history":"[1,1,1,1,0]","mutagen_history":"[1,1,1,1,0]","location_rts":"[737,280,367,357,462]","trial_type":"fractal-mutation","trial_index":61,"time_elapsed":2331397,"internal_node_id":"0.0-5.0-7.0"},{"group":"tri cycles (cube, non-group)","fractal_assignment":["../images/cyn_red.png","../images/gry_blk.png","../images/grn_red.png","../images/org_blu.png","../images/pnk_blu.png","../images/ylw_pnk.png","../images/blu_wht.png","../images/ylw_slt.png"],"mutagen_generator_assignment":[0,1],"goal":3,"start":2,"action_noise":0.1,"location_history":"[2,6,5,2,6,5,1,5,1,0,2,1,0,3]","action_history":"[1,1,1,1,1,0,1,0,0,0,0,0,1]","mutagen_history":"[1,1,1,1,1,0,1,0,0,0,0,0,1]","location_rts":"[1209,406,468,377,408,495,537,813,296,314,390,474,296]","trial_type":"fractal-mutation","trial_index":62,"time_elapsed":2354637,"internal_node_id":"0.0-5.0-8.0"},{"group":"tri cycles (cube, non-group)","fractal_assignment":["../images/cyn_red.png","../images/gry_blk.png","../images/grn_red.png","../images/org_blu.png","../images/pnk_blu.png","../images/ylw_pnk.png","../images/blu_wht.png","../images/ylw_slt.png"],"mutagen_generator_assignment":[0,1],"goal":7,"start":3,"action_noise":0.1,"location_history":"[3,4,7]","action_history":"[1,0]","mutagen_history":"[1,0]","location_rts":"[1224,479]","trial_type":"fractal-mutation","trial_index":63,"time_elapsed":2361884,"internal_node_id":"0.0-5.0-9.0"},{"group":"tri cycles (cube, non-group)","fractal_assignment":["../images/cyn_red.png","../images/gry_blk.png","../images/grn_red.png","../images/org_blu.png","../images/pnk_blu.png","../images/ylw_pnk.png","../images/blu_wht.png","../images/ylw_slt.png"],"mutagen_generator_assignment":[0,1],"goal":0,"start":7,"action_noise":0.1,"location_history":"[7,6,5,2,6,4,7,6,4,0]","action_history":"[0,1,1,1,0,0,0,0,1]","mutagen_history":"[0,1,1,1,0,0,0,0,1]","location_rts":"[625,454,412,388,650,391,326,612,281]","trial_type":"fractal-mutation","trial_index":64,"time_elapsed":2378708,"internal_node_id":"0.0-5.0-10.0"},{"group":"tri cycles (cube, non-group)","fractal_assignment":["../images/cyn_red.png","../images/gry_blk.png","../images/grn_red.png","../images/org_blu.png","../images/pnk_blu.png","../images/ylw_pnk.png","../images/blu_wht.png","../images/ylw_slt.png"],"mutagen_generator_assignment":[0,1],"goal":1,"start":0,"action_noise":0.1,"location_history":"[0,3,4,7,6,4,0,2,6,5,1]","action_history":"[1,0,0,0,0,1,1,1,0,0]","mutagen_history":"[1,0,0,0,0,1,1,1,0,0]","location_rts":"[769,175,384,354,448,287,272,383,231,332]","trial_type":"fractal-mutation","trial_index":65,"time_elapsed":2396042,"internal_node_id":"0.0-5.0-11.0"},{"group":"tri cycles (cube, non-group)","fractal_assignment":["../images/cyn_red.png","../images/gry_blk.png","../images/grn_red.png","../images/org_blu.png","../images/pnk_blu.png","../images/ylw_pnk.png","../images/blu_wht.png","../images/ylw_slt.png"],"mutagen_generator_assignment":[0,1],"goal":6,"start":1,"action_noise":0.1,"location_history":"[1,0,3,4,0,3,4,0,2,1,5,2,6]","action_history":"[0,1,1,1,1,1,0,0,0,1,1,1]","mutagen_history":"[0,1,1,1,1,1,0,0,0,1,1,1]","location_rts":"[467,200,252,306,263,286,196,304,275,350,243,186]","trial_type":"fractal-mutation","trial_index":66,"time_elapsed":2415108,"internal_node_id":"0.0-5.0-12.0"},{"group":"tri cycles (cube, non-group)","fractal_assignment":["../images/cyn_red.png","../images/gry_blk.png","../images/grn_red.png","../images/org_blu.png","../images/pnk_blu.png","../images/ylw_pnk.png","../images/blu_wht.png","../images/ylw_slt.png"],"mutagen_generator_assignment":[0,1],"goal":4,"start":6,"action_noise":0.1,"location_history":"[6,5,2,1,5,1,5,2,1,0,3,4]","action_history":"[1,1,0,1,0,1,1,0,0,1,1]","mutagen_history":"[1,1,0,1,0,1,1,0,0,1,1]","location_rts":"[417,339,460,317,258,864,360,298,350,482,346]","trial_type":"fractal-mutation","trial_index":67,"time_elapsed":2434321,"internal_node_id":"0.0-5.0-13.0"},{"group":"tri cycles (cube, non-group)","fractal_assignment":["../images/cyn_red.png","../images/gry_blk.png","../images/grn_red.png","../images/org_blu.png","../images/pnk_blu.png","../images/ylw_pnk.png","../images/blu_wht.png","../images/ylw_slt.png"],"mutagen_generator_assignment":[0,1],"goal":5,"start":4,"action_noise":0.1,"location_history":"[4,0,3,4,0,2,6,4,7,6,4,7,3,7,3,7,6,5]","action_history":"[1,1,1,1,1,1,0,0,0,0,0,1,0,1,0,0,1]","mutagen_history":"[1,1,1,1,1,1,0,0,0,0,0,1,0,1,0,0,1]","location_rts":"[659,329,445,443,359,416,622,325,375,369,417,332,272,265,263,334,243]","trial_type":"fractal-mutation","trial_index":68,"time_elapsed":2461602,"internal_node_id":"0.0-5.0-14.0"},{"group":"tri cycles (cube, non-group)","fractal_assignment":["../images/cyn_red.png","../images/gry_blk.png","../images/grn_red.png","../images/org_blu.png","../images/pnk_blu.png","../images/ylw_pnk.png","../images/blu_wht.png","../images/ylw_slt.png"],"mutagen_generator_assignment":[0,1],"goal":4,"start":5,"action_noise":0.1,"location_history":"[5,2,6,5,2,1,0,3,4]","action_history":"[1,0,1,1,1,0,0,0]","mutagen_history":"[1,0,1,1,1,0,0,0]","location_rts":"[707,248,130,161,290,217,274,153]","trial_type":"fractal-mutation","trial_index":69,"time_elapsed":2475427,"internal_node_id":"0.0-5.0-15.0"},{"group":"tri cycles (cube, non-group)","fractal_assignment":["../images/cyn_red.png","../images/gry_blk.png","../images/grn_red.png","../images/org_blu.png","../images/pnk_blu.png","../images/ylw_pnk.png","../images/blu_wht.png","../images/ylw_slt.png"],"mutagen_generator_assignment":[0,1],"goal":0,"start":4,"action_noise":0.1,"location_history":"[4,7,3,4,0]","action_history":"[0,1,1,1]","mutagen_history":"[0,1,1,1]","location_rts":"[434,233,143,74]","trial_type":"fractal-mutation","trial_index":70,"time_elapsed":2483898,"internal_node_id":"0.0-5.0-16.0"},{"group":"tri cycles (cube, non-group)","fractal_assignment":["../images/cyn_red.png","../images/gry_blk.png","../images/grn_red.png","../images/org_blu.png","../images/pnk_blu.png","../images/ylw_pnk.png","../images/blu_wht.png","../images/ylw_slt.png"],"mutagen_generator_assignment":[0,1],"goal":7,"start":0,"action_noise":0.1,"location_history":"[0,2,1,0,2,6,4,7]","action_history":"[0,0,0,0,1,0,0]","mutagen_history":"[0,0,0,0,1,0,0]","location_rts":"[93970,336,275,418,323,284,341]","trial_type":"fractal-mutation","trial_index":71,"time_elapsed":2590461,"internal_node_id":"0.0-5.0-17.0"},{"group":"tri cycles (cube, non-group)","fractal_assignment":["../images/cyn_red.png","../images/gry_blk.png","../images/grn_red.png","../images/org_blu.png","../images/pnk_blu.png","../images/ylw_pnk.png","../images/blu_wht.png","../images/ylw_slt.png"],"mutagen_generator_assignment":[0,1],"goal":2,"start":7,"action_noise":0.1,"location_history":"[7,6,5,2]","action_history":"[0,1,1]","mutagen_history":"[0,1,1]","location_rts":"[1376,392,324]","trial_type":"fractal-mutation","trial_index":72,"time_elapsed":2599111,"internal_node_id":"0.0-5.0-18.0"},{"group":"tri cycles (cube, non-group)","fractal_assignment":["../images/cyn_red.png","../images/gry_blk.png","../images/grn_red.png","../images/org_blu.png","../images/pnk_blu.png","../images/ylw_pnk.png","../images/blu_wht.png","../images/ylw_slt.png"],"mutagen_generator_assignment":[0,1],"goal":1,"start":2,"action_noise":0.1,"location_history":"[2,1]","action_history":"[0]","mutagen_history":"[0]","location_rts":"[757]","trial_type":"fractal-mutation","trial_index":73,"time_elapsed":2604388,"internal_node_id":"0.0-5.0-19.0"},{"group":"tri cycles (cube, non-group)","fractal_assignment":["../images/cyn_red.png","../images/gry_blk.png","../images/grn_red.png","../images/org_blu.png","../images/pnk_blu.png","../images/ylw_pnk.png","../images/blu_wht.png","../images/ylw_slt.png"],"mutagen_generator_assignment":[0,1],"goal":3,"start":1,"action_noise":0.1,"location_history":"[1,0,3]","action_history":"[1,1]","mutagen_history":"[1,1]","location_rts":"[736,303]","trial_type":"fractal-mutation","trial_index":74,"time_elapsed":2610974,"internal_node_id":"0.0-5.0-20.0"},{"group":"tri cycles (cube, non-group)","fractal_assignment":["../images/cyn_red.png","../images/gry_blk.png","../images/grn_red.png","../images/org_blu.png","../images/pnk_blu.png","../images/ylw_pnk.png","../images/blu_wht.png","../images/ylw_slt.png"],"mutagen_generator_assignment":[0,1],"goal":6,"start":3,"action_noise":0.1,"location_history":"[3,4,7,3,4,0,2,1,0,2,1,5,2,6]","action_history":"[1,1,1,1,1,0,0,0,0,0,1,1,1]","mutagen_history":"[1,1,1,1,1,0,0,0,0,0,1,1,1]","location_rts":"[614,288,419,331,383,296,537,521,448,411,270,331,291]","trial_type":"fractal-mutation","trial_index":75,"time_elapsed":2632868,"internal_node_id":"0.0-5.0-21.0"},{"group":"tri cycles (cube, non-group)","fractal_assignment":["../images/cyn_red.png","../images/gry_blk.png","../images/grn_red.png","../images/org_blu.png","../images/pnk_blu.png","../images/ylw_pnk.png","../images/blu_wht.png","../images/ylw_slt.png"],"mutagen_generator_assignment":[0,1],"goal":5,"start":6,"action_noise":0.1,"location_history":"[6,4,7,6,5]","action_history":"[0,0,0,1]","mutagen_history":"[0,0,0,1]","location_rts":"[505,337,453,287]","trial_type":"fractal-mutation","trial_index":76,"time_elapsed":2642026,"internal_node_id":"0.0-5.0-22.0"},{"group":"tri cycles (cube, non-group)","fractal_assignment":["../images/cyn_red.png","../images/gry_blk.png","../images/grn_red.png","../images/org_blu.png","../images/pnk_blu.png","../images/ylw_pnk.png","../images/blu_wht.png","../images/ylw_slt.png"],"mutagen_generator_assignment":[0,1],"goal":3,"start":5,"action_noise":0.1,"location_history":"[5,2,6,5,1,5,2,6,5,2,1,0,2,6,4,0,2,6,5,2,1,0,2,1,0,3]","action_history":"[1,1,1,0,1,1,1,1,0,0,1,0,1,0,0,0,1,1,1,0,0,0,0,0,1]","mutagen_history":"[1,1,1,0,1,1,1,1,0,0,1,0,1,0,0,0,1,1,1,0,0,0,0,0,1]","location_rts":"[1049,610,375,291,355,383,321,324,312,428,481,481,344,293,669,451,302,303,307,347,768,595,407,691,432]","trial_type":"fractal-mutation","trial_index":77,"time_elapsed":2682308,"internal_node_id":"0.0-5.0-23.0"},{"group":"tri cycles (cube, non-group)","fractal_assignment":["../images/cyn_red.png","../images/gry_blk.png","../images/grn_red.png","../images/org_blu.png","../images/pnk_blu.png","../images/ylw_pnk.png","../images/blu_wht.png","../images/ylw_slt.png"],"mutagen_generator_assignment":[0,1],"goal":0,"start":3,"action_noise":0.1,"location_history":"[3,7,3,4,0]","action_history":"[0,1,1,1]","mutagen_history":"[0,1,1,1]","location_rts":"[5185,241,316,359]","trial_type":"fractal-mutation","trial_index":78,"time_elapsed":2695985,"internal_node_id":"0.0-5.0-24.0"},{"group":"tri cycles (cube, non-group)","fractal_assignment":["../images/cyn_red.png","../images/gry_blk.png","../images/grn_red.png","../images/org_blu.png","../images/pnk_blu.png","../images/ylw_pnk.png","../images/blu_wht.png","../images/ylw_slt.png"],"mutagen_generator_assignment":[0,1],"goal":7,"start":0,"action_noise":0.1,"location_history":"[0,2,6,5,1,0,2,1,0,2,6,4,7]","action_history":"[0,1,1,0,0,0,0,0,0,1,0,0]","mutagen_history":"[0,1,1,0,0,0,0,0,0,1,0,0]","location_rts":"[10371,426,472,5091,930,666,152470,370,592,475,636,271]","trial_type":"fractal-mutation","trial_index":79,"time_elapsed":2884448,"internal_node_id":"0.0-5.0-25.0"},{"group":"tri cycles (cube, non-group)","fractal_assignment":["../images/cyn_red.png","../images/gry_blk.png","../images/grn_red.png","../images/org_blu.png","../images/pnk_blu.png","../images/ylw_pnk.png","../images/blu_wht.png","../images/ylw_slt.png"],"mutagen_generator_assignment":[0,1],"goal":2,"start":7,"action_noise":0.1,"location_history":"[7,3,4,0,3,7,6,4,7,3,4,7,6,4,0,3,7,6,4,0,3,4,7,6,4,0,3,4,7,3,4,7,6,5,2]","action_history":"[1,1,1,0,0,0,0,0,1,1,1,0,0,1,1,0,0,0,1,1,1,0,0,0,1,1,1,1,1,1,0,0,1,1]","mutagen_history":"[1,1,1,0,0,0,0,0,1,1,1,0,0,1,1,0,0,0,1,1,1,0,0,0,1,1,1,1,1,1,0,0,1,1]","location_rts":"[604,282,311,1137,311,343,341,354,120,289,311,345,248,243,219,278,174,160,217,256,300,163,237,187,205,293,339,346,243,321,137,306,220,813]","trial_type":"fractal-mutation","trial_index":80,"time_elapsed":2933236,"internal_node_id":"0.0-5.0-26.0"},{"group":"tri cycles (cube, non-group)","fractal_assignment":["../images/cyn_red.png","../images/gry_blk.png","../images/grn_red.png","../images/org_blu.png","../images/pnk_blu.png","../images/ylw_pnk.png","../images/blu_wht.png","../images/ylw_slt.png"],"mutagen_generator_assignment":[0,1],"goal":1,"start":2,"action_noise":0.1,"location_history":"[2,1]","action_history":"[0]","mutagen_history":"[0]","location_rts":"[377]","trial_type":"fractal-mutation","trial_index":81,"time_elapsed":2938129,"internal_node_id":"0.0-5.0-27.0"},{"group":"tri cycles (cube, non-group)","fractal_assignment":["../images/cyn_red.png","../images/gry_blk.png","../images/grn_red.png","../images/org_blu.png","../images/pnk_blu.png","../images/ylw_pnk.png","../images/blu_wht.png","../images/ylw_slt.png"],"mutagen_generator_assignment":[0,1],"goal":5,"start":1,"action_noise":0.1,"location_history":"[1,0,3,4,0,3,4,0,2,6,5]","action_history":"[0,1,1,1,1,1,1,0,1,1]","mutagen_history":"[0,1,1,1,1,1,1,0,1,1]","location_rts":"[797,497,712,291,171,262,320,242,341,405]","trial_type":"fractal-mutation","trial_index":82,"time_elapsed":2955866,"internal_node_id":"0.0-5.0-28.0"},{"group":"tri cycles (cube, non-group)","fractal_assignment":["../images/cyn_red.png","../images/gry_blk.png","../images/grn_red.png","../images/org_blu.png","../images/pnk_blu.png","../images/ylw_pnk.png","../images/blu_wht.png","../images/ylw_slt.png"],"mutagen_generator_assignment":[0,1],"goal":4,"start":5,"action_noise":0.1,"location_history":"[5,2,6,4]","action_history":"[1,1,1]","mutagen_history":"[1,1,1]","location_rts":"[716,167,227]","trial_type":"fractal-mutation","trial_index":83,"time_elapsed":2963547,"internal_node_id":"0.0-5.0-29.0"},{"group":"tri cycles (cube, non-group)","fractal_assignment":["../images/cyn_red.png","../images/gry_blk.png","../images/grn_red.png","../images/org_blu.png","../images/pnk_blu.png","../images/ylw_pnk.png","../images/blu_wht.png","../images/ylw_slt.png"],"mutagen_generator_assignment":[0,1],"goal":6,"start":4,"action_noise":0.1,"location_history":"[4,7,3,4,7,3,7,3,4,0,3,4,0,2,6]","action_history":"[1,1,1,0,0,0,0,1,1,1,1,1,0,1]","mutagen_history":"[1,1,1,0,0,0,0,1,1,1,1,1,0,1]","location_rts":"[513,776,436,345,529,496,623,257,487,361,339,353,229,300]","trial_type":"fractal-mutation","trial_index":84,"time_elapsed":2987362,"internal_node_id":"0.0-5.0-30.0"},{"group":"tri cycles (cube, non-group)","fractal_assignment":["../images/cyn_red.png","../images/gry_blk.png","../images/grn_red.png","../images/org_blu.png","../images/pnk_blu.png","../images/ylw_pnk.png","../images/blu_wht.png","../images/ylw_slt.png"],"mutagen_generator_assignment":[0,1],"goal":4,"start":6,"action_noise":0.1,"location_history":"[6,4]","action_history":"[0]","mutagen_history":"[0]","location_rts":"[55964]","trial_type":"fractal-mutation","trial_index":85,"time_elapsed":3047842,"internal_node_id":"0.0-5.0-31.0"},{"group":"tri cycles (cube, non-group)","fractal_assignment":["../images/cyn_red.png","../images/gry_blk.png","../images/grn_red.png","../images/org_blu.png","../images/pnk_blu.png","../images/ylw_pnk.png","../images/blu_wht.png","../images/ylw_slt.png"],"mutagen_generator_assignment":[0,1],"goal":2,"start":4,"action_noise":0.1,"location_history":"[4,0,2]","action_history":"[1,1]","mutagen_history":"[1,1]","location_rts":"[685,436]","trial_type":"fractal-mutation","trial_index":86,"time_elapsed":3054501,"internal_node_id":"0.0-5.0-32.0"},{"group":"tri cycles (cube, non-group)","fractal_assignment":["../images/cyn_red.png","../images/gry_blk.png","../images/grn_red.png","../images/org_blu.png","../images/pnk_blu.png","../images/ylw_pnk.png","../images/blu_wht.png","../images/ylw_slt.png"],"mutagen_generator_assignment":[0,1],"goal":0,"start":2,"action_noise":0.1,"location_history":"[2,1,5,2,1,0]","action_history":"[1,1,1,0,0]","mutagen_history":"[1,1,1,0,0]","location_rts":"[606,315,311,277,387]","trial_type":"fractal-mutation","trial_index":87,"time_elapsed":3064986,"internal_node_id":"0.0-5.0-33.0"},{"group":"tri cycles (cube, non-group)","fractal_assignment":["../images/cyn_red.png","../images/gry_blk.png","../images/grn_red.png","../images/org_blu.png","../images/pnk_blu.png","../images/ylw_pnk.png","../images/blu_wht.png","../images/ylw_slt.png"],"mutagen_generator_assignment":[0,1],"goal":5,"start":0,"action_noise":0.1,"location_history":"[0,2,6,5]","action_history":"[1,1,1]","mutagen_history":"[1,1,1]","location_rts":"[371,266,220]","trial_type":"fractal-mutation","trial_index":88,"time_elapsed":3072409,"internal_node_id":"0.0-5.0-34.0"},{"group":"tri cycles (cube, non-group)","fractal_assignment":["../images/cyn_red.png","../images/gry_blk.png","../images/grn_red.png","../images/org_blu.png","../images/pnk_blu.png","../images/ylw_pnk.png","../images/blu_wht.png","../images/ylw_slt.png"],"mutagen_generator_assignment":[0,1],"goal":1,"start":5,"action_noise":0.1,"location_history":"[5,2,6,5,2,1]","action_history":"[1,1,1,1,0]","mutagen_history":"[1,1,1,1,0]","location_rts":"[451,163,216,182,238]","trial_type":"fractal-mutation","trial_index":89,"time_elapsed":3082268,"internal_node_id":"0.0-5.0-35.0"},{"group":"tri cycles (cube, non-group)","fractal_assignment":["../images/cyn_red.png","../images/gry_blk.png","../images/grn_red.png","../images/org_blu.png","../images/pnk_blu.png","../images/ylw_pnk.png","../images/blu_wht.png","../images/ylw_slt.png"],"mutagen_generator_assignment":[0,1],"goal":7,"start":1,"action_noise":0.1,"location_history":"[1,5,1,0,2,6,5,2,1,0,3,4,7]","action_history":"[1,0,0,0,1,1,1,0,0,0,0,0]","mutagen_history":"[1,0,0,0,1,1,1,0,0,0,0,0]","location_rts":"[625,283,255,225,223,206,266,221,262,237,280,200]","trial_type":"fractal-mutation","trial_index":90,"time_elapsed":3101284,"internal_node_id":"0.0-5.0-36.0"},{"group":"tri cycles (cube, non-group)","fractal_assignment":["../images/cyn_red.png","../images/gry_blk.png","../images/grn_red.png","../images/org_blu.png","../images/pnk_blu.png","../images/ylw_pnk.png","../images/blu_wht.png","../images/ylw_slt.png"],"mutagen_generator_assignment":[0,1],"goal":3,"start":7,"action_noise":0.1,"location_history":"[7,6,5,1,5,2,6,4,7,6,5,1,0,2,1,5,2,6,5,1,5,1,5,1,0,3]","action_history":"[1,1,0,1,1,1,0,0,0,1,0,0,0,0,1,1,1,1,0,1,0,1,0,0,1]","mutagen_history":"[1,1,0,1,1,1,0,0,0,1,0,0,0,0,1,1,1,1,0,1,0,1,0,0,1]","location_rts":"[30313,464,404,325,340,356,323,337,346,244,250,351,280,121,158,283,347,451,396,677,367,321,353,263,272]","trial_type":"fractal-mutation","trial_index":91,"time_elapsed":3168585,"internal_node_id":"0.0-5.0-37.0"},{"group":"tri cycles (cube, non-group)","fractal_assignment":["../images/cyn_red.png","../images/gry_blk.png","../images/grn_red.png","../images/org_blu.png","../images/pnk_blu.png","../images/ylw_pnk.png","../images/blu_wht.png","../images/ylw_slt.png"],"mutagen_generator_assignment":[0,1],"goal":6,"start":3,"action_noise":0.1,"location_history":"[3,4,0,3,7,3,7,3,4,7,6]","action_history":"[1,0,1,0,1,0,1,1,0,0]","mutagen_history":"[1,0,1,0,1,0,1,1,0,0]","location_rts":"[1196,281,313,297,450,242,379,272,255,286]","trial_type":"fractal-mutation","trial_index":92,"time_elapsed":3186253,"internal_node_id":"0.0-5.0-38.0"},{"group":"tri cycles (cube, non-group)","fractal_assignment":["../images/cyn_red.png","../images/gry_blk.png","../images/grn_red.png","../images/org_blu.png","../images/pnk_blu.png","../images/ylw_pnk.png","../images/blu_wht.png","../images/ylw_slt.png"],"mutagen_generator_assignment":[0,1],"goal":2,"start":6,"action_noise":0.1,"location_history":"[6,5,2]","action_history":"[1,1]","mutagen_history":"[1,1]","location_rts":"[473,249]","trial_type":"fractal-mutation","trial_index":93,"time_elapsed":3192523,"internal_node_id":"0.0-5.0-39.0"},{"group":"tri cycles (cube, non-group)","fractal_assignment":["../images/cyn_red.png","../images/gry_blk.png","../images/grn_red.png","../images/org_blu.png","../images/pnk_blu.png","../images/ylw_pnk.png","../images/blu_wht.png","../images/ylw_slt.png"],"mutagen_generator_assignment":[0,1],"goal":1,"start":2,"action_noise":0.1,"location_history":"[2,6,4,7,3,4,0,2,1]","action_history":"[1,1,0,1,1,0,0,0]","mutagen_history":"[1,1,0,1,1,0,0,0]","location_rts":"[507,168,135,431,291,190,491,303]","trial_type":"fractal-mutation","trial_index":94,"time_elapsed":3206690,"internal_node_id":"0.0-5.0-40.0"},{"group":"tri cycles (cube, non-group)","fractal_assignment":["../images/cyn_red.png","../images/gry_blk.png","../images/grn_red.png","../images/org_blu.png","../images/pnk_blu.png","../images/ylw_pnk.png","../images/blu_wht.png","../images/ylw_slt.png"],"mutagen_generator_assignment":[0,1],"goal":0,"start":1,"action_noise":0.1,"location_history":"[1,0]","action_history":"[0]","mutagen_history":"[0]","location_rts":"[738]","trial_type":"fractal-mutation","trial_index":95,"time_elapsed":3211946,"internal_node_id":"0.0-5.0-41.0"},{"group":"tri cycles (cube, non-group)","fractal_assignment":["../images/cyn_red.png","../images/gry_blk.png","../images/grn_red.png","../images/org_blu.png","../images/pnk_blu.png","../images/ylw_pnk.png","../images/blu_wht.png","../images/ylw_slt.png"],"mutagen_generator_assignment":[0,1],"goal":4,"start":0,"action_noise":0.1,"location_history":"[0,3,4]","action_history":"[1,1]","mutagen_history":"[1,1]","location_rts":"[459,232]","trial_type":"fractal-mutation","trial_index":96,"time_elapsed":3218183,"internal_node_id":"0.0-5.0-42.0"},{"group":"tri cycles (cube, non-group)","fractal_assignment":["../images/cyn_red.png","../images/gry_blk.png","../images/grn_red.png","../images/org_blu.png","../images/pnk_blu.png","../images/ylw_pnk.png","../images/blu_wht.png","../images/ylw_slt.png"],"mutagen_generator_assignment":[0,1],"goal":6,"start":4,"action_noise":0.1,"location_history":"[4,0,3,4,0,2,1,0,3,4,0,2,6]","action_history":"[1,1,1,1,0,0,0,1,1,1,0,0]","mutagen_history":"[1,1,1,1,0,0,0,1,1,1,0,0]","location_rts":"[581,290,378,136,122,146,117,276,272,192,24,335]","trial_type":"fractal-mutation","trial_index":97,"time_elapsed":3236797,"internal_node_id":"0.0-5.0-43.0"},{"group":"tri cycles (cube, non-group)","fractal_assignment":["../images/cyn_red.png","../images/gry_blk.png","../images/grn_red.png","../images/org_blu.png","../images/pnk_blu.png","../images/ylw_pnk.png","../images/blu_wht.png","../images/ylw_slt.png"],"mutagen_generator_assignment":[0,1],"goal":3,"start":6,"action_noise":0.1,"location_history":"[6,5,2,6,5,2,6,5,1,0,2,6,5,1,0,3]","action_history":"[1,1,1,0,0,1,1,0,0,0,1,1,0,0,1]","mutagen_history":"[1,1,1,0,0,1,1,0,0,0,1,1,0,0,1]","location_rts":"[489,195,476,241,241,192,441,218,300,313,184,292,214,248,273]","trial_type":"fractal-mutation","trial_index":98,"time_elapsed":3259887,"internal_node_id":"0.0-5.0-44.0"},{"group":"tri cycles (cube, non-group)","fractal_assignment":["../images/cyn_red.png","../images/gry_blk.png","../images/grn_red.png","../images/org_blu.png","../images/pnk_blu.png","../images/ylw_pnk.png","../images/blu_wht.png","../images/ylw_slt.png"],"mutagen_generator_assignment":[0,1],"goal":7,"start":3,"action_noise":0.1,"location_history":"[3,4,7]","action_history":"[1,0]","mutagen_history":"[1,0]","location_rts":"[646,119]","trial_type":"fractal-mutation","trial_index":99,"time_elapsed":3266197,"internal_node_id":"0.0-5.0-45.0"},{"group":"tri cycles (cube, non-group)","fractal_assignment":["../images/cyn_red.png","../images/gry_blk.png","../images/grn_red.png","../images/org_blu.png","../images/pnk_blu.png","../images/ylw_pnk.png","../images/blu_wht.png","../images/ylw_slt.png"],"mutagen_generator_assignment":[0,1],"goal":5,"start":7,"action_noise":0.1,"location_history":"[7,3,7,6,4,7,6,5]","action_history":"[1,0,0,0,0,0,1]","mutagen_history":"[1,0,0,0,0,0,1]","location_rts":"[1416,745,327,274,258,259,196]","trial_type":"fractal-mutation","trial_index":100,"time_elapsed":3280286,"internal_node_id":"0.0-5.0-46.0"},{"group":"tri cycles (cube, non-group)","fractal_assignment":["../images/cyn_red.png","../images/gry_blk.png","../images/grn_red.png","../images/org_blu.png","../images/pnk_blu.png","../images/ylw_pnk.png","../images/blu_wht.png","../images/ylw_slt.png"],"mutagen_generator_assignment":[0,1],"goal":1,"start":5,"action_noise":0.1,"location_history":"[5,2,6,4,7,3,4,7,6,4,0,3,7,6,4,0,2,1]","action_history":"[1,1,0,0,1,1,0,0,0,1,1,0,0,0,0,0,1]","mutagen_history":"[1,1,0,0,1,1,0,0,0,1,1,0,0,0,0,0,1]","location_rts":"[462,319,166,265,10,301,273,305,335,370,378,295,273,261,238,280,186]","trial_type":"fractal-mutation","trial_index":101,"time_elapsed":3305806,"internal_node_id":"0.0-5.0-47.0"},{"group":"tri cycles (cube, non-group)","fractal_assignment":["../images/cyn_red.png","../images/gry_blk.png","../images/grn_red.png","../images/org_blu.png","../images/pnk_blu.png","../images/ylw_pnk.png","../images/blu_wht.png","../images/ylw_slt.png"],"mutagen_generator_assignment":[0,1],"goal":6,"start":1,"action_noise":0.1,"location_history":"[1,5,2,6]","action_history":"[1,1,1]","mutagen_history":"[1,1,1]","location_rts":"[679,300,251]","trial_type":"fractal-mutation","trial_index":102,"time_elapsed":3313603,"internal_node_id":"0.0-5.0-48.0"},{"group":"tri cycles (cube, non-group)","fractal_assignment":["../images/cyn_red.png","../images/gry_blk.png","../images/grn_red.png","../images/org_blu.png","../images/pnk_blu.png","../images/ylw_pnk.png","../images/blu_wht.png","../images/ylw_slt.png"],"mutagen_generator_assignment":[0,1],"goal":0,"start":6,"action_noise":0.1,"location_history":"[6,5,1,0]","action_history":"[1,1,1]","mutagen_history":"[1,1,1]","location_rts":"[513,329,213]","trial_type":"fractal-mutation","trial_index":103,"time_elapsed":3321224,"internal_node_id":"0.0-5.0-49.0"},{"view_history":"[{\"page_index\":0,\"viewing_time\":5884}]","rt":5884,"trial_type":"instructions","trial_index":104,"time_elapsed":3328107,"internal_node_id":"0.0-6.0"},{"rt":5434,"responses":"{\"Q0\":\"None.\"}","trial_type":"survey-text","trial_index":105,"time_elapsed":3334546,"internal_node_id":"0.0-7.0"}]