[{"view_history":"[{\"page_index\":0,\"viewing_time\":2347},{\"page_index\":1,\"viewing_time\":17807}]","rt":20155,"trial_type":"instructions","trial_index":0,"time_elapsed":20157,"internal_node_id":"0.0-0.0"},{"view_history":"[{\"page_index\":0,\"viewing_time\":4005},{\"page_index\":1,\"viewing_time\":5034}]","rt":9040,"trial_type":"instructions","trial_index":1,"time_elapsed":30199,"internal_node_id":"0.0-1.0"},{"group":"square cycles (cube, non-group)","room_assignment":["purple","yellow","blue","green","red","grey","brown","pink"],"door_color_assignment":["white","black"],"door_generator_assignment":[0,1],"goal":6,"start":3,"action_noise":0.1,"location_history":"[3,2,6]","action_history":"[1,1]","door_history":"[1,1]","location_rts":"[881,855]","trial_type":"two-door-navigation","trial_index":2,"time_elapsed":37496,"internal_node_id":"0.0-2.0-0.0"},{"group":"square cycles (cube, non-group)","room_assignment":["purple","yellow","blue","green","red","grey","brown","pink"],"door_color_assignment":["white","black"],"door_generator_assignment":[0,1],"goal":1,"start":6,"action_noise":0.1,"location_history":"[6,5,4,5,1]","action_history":"[0,0,1,1]","door_history":"[0,0,1,1]","location_rts":"[1189,527,691,465]","trial_type":"two-door-navigation","trial_index":3,"time_elapsed":47944,"internal_node_id":"0.0-2.0-1.0"},{"group":"square cycles (cube, non-group)","room_assignment":["purple","yellow","blue","green","red","grey","brown","pink"],"door_color_assignment":["white","black"],"door_generator_assignment":[0,1],"goal":2,"start":1,"action_noise":0.1,"location_history":"[1,0,4,7,3,2]","action_history":"[1,1,0,0,1]","door_history":"[1,1,0,0,1]","location_rts":"[614,469,511,417,1238]","trial_type":"two-door-navigation","trial_index":4,"time_elapsed":59804,"internal_node_id":"0.0-2.0-2.0"},{"group":"square cycles (cube, non-group)","room_assignment":["purple","yellow","blue","green","red","grey","brown","pink"],"door_color_assignment":["white","black"],"door_generator_assignment":[0,1],"goal":0,"start":2,"action_noise":0.1,"location_history":"[2,3,0]","action_history":"[0,0]","door_history":"[0,0]","location_rts":"[1608,429]","trial_type":"two-door-navigation","trial_index":5,"time_elapsed":67382,"internal_node_id":"0.0-2.0-3.0"},{"group":"square cycles (cube, non-group)","room_assignment":["purple","yellow","blue","green","red","grey","brown","pink"],"door_color_assignment":["white","black"],"door_generator_assignment":[0,1],"goal":7,"start":0,"action_noise":0.1,"location_history":"[0,4,7]","action_history":"[0,1]","door_history":"[0,1]","location_rts":"[1703,687]","trial_type":"two-door-navigation","trial_index":6,"time_elapsed":75318,"internal_node_id":"0.0-2.0-4.0"},{"group":"square cycles (cube, non-group)","room_assignment":["purple","yellow","blue","green","red","grey","brown","pink"],"door_color_assignment":["white","black"],"door_generator_assignment":[0,1],"goal":5,"start":7,"action_noise":0.1,"location_history":"[7,3,0,1,2,6,7,3,2,3,0,1,2,6,7,3,2,6,7,6,5]","action_history":"[1,0,0,0,1,1,1,1,0,0,0,0,0,0,1,1,1,1,0,0]","door_history":"[1,0,0,0,1,1,1,1,0,0,0,0,0,0,1,1,1,1,0,0]","location_rts":"[1493,717,571,470,458,442,749,467,655,408,515,445,418,471,672,511,466,658,828,530]","trial_type":"two-door-navigation","trial_index":7,"time_elapsed":111098,"internal_node_id":"0.0-2.0-5.0"},{"group":"square cycles (cube, non-group)","room_assignment":["purple","yellow","blue","green","red","grey","brown","pink"],"door_color_assignment":["white","black"],"door_generator_assignment":[0,1],"goal":4,"start":5,"action_noise":0.1,"location_history":"[5,4]","action_history":"[0]","door_history":"[0]","location_rts":"[3614]","trial_type":"two-door-navigation","trial_index":8,"time_elapsed":119241,"internal_node_id":"0.0-2.0-6.0"},{"group":"square cycles (cube, non-group)","room_assignment":["purple","yellow","blue","green","red","grey","brown","pink"],"door_color_assignment":["white","black"],"door_generator_assignment":[0,1],"goal":2,"start":4,"action_noise":0.1,"location_history":"[4,5,4,5,4,7,3,0,4,5,1,0,1,0,4,5,1,0,4,5,4,7,6,5,1,0,4,5,1,0,4,7,6,5,1,2]","action_history":"[1,1,1,0,0,0,0,1,1,1,1,1,1,1,1,1,1,1,1,0,0,0,0,0,1,1,1,1,1,1,0,0,0,0,0]","door_history":"[1,1,1,0,0,0,0,1,1,1,1,1,1,1,1,1,1,1,1,0,0,0,0,0,1,1,1,1,1,1,0,0,0,0,0]","location_rts":"[1514,647,406,674,366,477,531,843,508,622,398,399,368,3877,521,453,458,489,471,659,364,430,394,345,793,318,362,416,318,449,286,354,351,321,323]","trial_type":"two-door-navigation","trial_index":9,"time_elapsed":178872,"internal_node_id":"0.0-2.0-7.0"},{"group":"square cycles (cube, non-group)","room_assignment":["purple","yellow","blue","green","red","grey","brown","pink"],"door_color_assignment":["white","black"],"door_generator_assignment":[0,1],"goal":3,"start":2,"action_noise":0.1,"location_history":"[2,6,7,3]","action_history":"[1,1,1]","door_history":"[1,1,1]","location_rts":"[13863,321,331]","trial_type":"two-door-navigation","trial_index":10,"time_elapsed":199946,"internal_node_id":"0.0-2.0-8.0"},{"group":"square cycles (cube, non-group)","room_assignment":["purple","yellow","blue","green","red","grey","brown","pink"],"door_color_assignment":["white","black"],"door_generator_assignment":[0,1],"goal":7,"start":3,"action_noise":0.1,"location_history":"[3,2,3,0,4,5,1,0,4,5,4,7]","action_history":"[1,1,0,0,0,1,1,1,1,0,0]","door_history":"[1,1,0,0,0,1,1,1,1,0,0]","location_rts":"[21302,789,381,407,342,801,408,403,508,686,292]","trial_type":"two-door-navigation","trial_index":11,"time_elapsed":240951,"internal_node_id":"0.0-2.0-9.0"},{"group":"square cycles (cube, non-group)","room_assignment":["purple","yellow","blue","green","red","grey","brown","pink"],"door_color_assignment":["white","black"],"door_generator_assignment":[0,1],"goal":0,"start":7,"action_noise":0.1,"location_history":"[7,6,7,3,2,3,2,3,0]","action_history":"[0,1,1,1,0,1,1,0]","door_history":"[0,1,1,1,0,1,1,0]","location_rts":"[19503,549,354,395,581,679,325,923]","trial_type":"two-door-navigation","trial_index":12,"time_elapsed":275880,"internal_node_id":"0.0-2.0-10.0"},{"group":"square cycles (cube, non-group)","room_assignment":["purple","yellow","blue","green","red","grey","brown","pink"],"door_color_assignment":["white","black"],"door_generator_assignment":[0,1],"goal":1,"start":0,"action_noise":0.1,"location_history":"[0,4,5,1]","action_history":"[1,1,1]","door_history":"[1,1,1]","location_rts":"[56610,406,437]","trial_type":"two-door-navigation","trial_index":13,"time_elapsed":339893,"internal_node_id":"0.0-2.0-11.0"},{"group":"square cycles (cube, non-group)","room_assignment":["purple","yellow","blue","green","red","grey","brown","pink"],"door_color_assignment":["white","black"],"door_generator_assignment":[0,1],"goal":6,"start":1,"action_noise":0.1,"location_history":"[1,2,6]","action_history":"[0,1]","door_history":"[0,1]","location_rts":"[1191,1426]","trial_type":"two-door-navigation","trial_index":14,"time_elapsed":348049,"internal_node_id":"0.0-2.0-12.0"},{"group":"square cycles (cube, non-group)","room_assignment":["purple","yellow","blue","green","red","grey","brown","pink"],"door_color_assignment":["white","black"],"door_generator_assignment":[0,1],"goal":4,"start":6,"action_noise":0.1,"location_history":"[6,7,3,0,1,0,4]","action_history":"[1,1,0,0,1,1]","door_history":"[1,1,0,0,1,1]","location_rts":"[2217,495,576,525,803,406]","trial_type":"two-door-navigation","trial_index":15,"time_elapsed":362661,"internal_node_id":"0.0-2.0-13.0"},{"group":"square cycles (cube, non-group)","room_assignment":["purple","yellow","blue","green","red","grey","brown","pink"],"door_color_assignment":["white","black"],"door_generator_assignment":[0,1],"goal":5,"start":4,"action_noise":0.1,"location_history":"[4,5]","action_history":"[1]","door_history":"[1]","location_rts":"[1157]","trial_type":"two-door-navigation","trial_index":16,"time_elapsed":368336,"internal_node_id":"0.0-2.0-14.0"},{"group":"square cycles (cube, non-group)","room_assignment":["purple","yellow","blue","green","red","grey","brown","pink"],"door_color_assignment":["white","black"],"door_generator_assignment":[0,1],"goal":4,"start":5,"action_noise":0.1,"location_history":"[5,4]","action_history":"[0]","door_history":"[0]","location_rts":"[2528]","trial_type":"two-door-navigation","trial_index":17,"time_elapsed":375384,"internal_node_id":"0.0-2.0-15.0"},{"group":"square cycles (cube, non-group)","room_assignment":["purple","yellow","blue","green","red","grey","brown","pink"],"door_color_assignment":["white","black"],"door_generator_assignment":[0,1],"goal":0,"start":4,"action_noise":0.1,"location_history":"[4,7,3,2,6,5,1,2,6,5,4,7,3,0]","action_history":"[0,1,1,1,0,0,0,1,0,0,0,0,0]","door_history":"[0,1,1,1,0,0,0,1,0,0,0,0,0]","location_rts":"[113722,522,288,1300,401,283,471,357,616,408,458,447,517]","trial_type":"two-door-navigation","trial_index":18,"time_elapsed":511906,"internal_node_id":"0.0-2.0-16.0"},{"group":"square cycles (cube, non-group)","room_assignment":["purple","yellow","blue","green","red","grey","brown","pink"],"door_color_assignment":["white","black"],"door_generator_assignment":[0,1],"goal":7,"start":0,"action_noise":0.1,"location_history":"[0,4,7]","action_history":"[1,0]","door_history":"[1,0]","location_rts":"[6431,641]","trial_type":"two-door-navigation","trial_index":19,"time_elapsed":524518,"internal_node_id":"0.0-2.0-17.0"},{"group":"square cycles (cube, non-group)","room_assignment":["purple","yellow","blue","green","red","grey","brown","pink"],"door_color_assignment":["white","black"],"door_generator_assignment":[0,1],"goal":2,"start":7,"action_noise":0.1,"location_history":"[7,3,2]","action_history":"[1,1]","door_history":"[1,1]","location_rts":"[1752,515]","trial_type":"two-door-navigation","trial_index":20,"time_elapsed":532322,"internal_node_id":"0.0-2.0-18.0"},{"group":"square cycles (cube, non-group)","room_assignment":["purple","yellow","blue","green","red","grey","brown","pink"],"door_color_assignment":["white","black"],"door_generator_assignment":[0,1],"goal":1,"start":2,"action_noise":0.1,"location_history":"[2,3,0,4,5,4,7,6,5,1]","action_history":"[0,0,1,1,0,0,0,0,1]","door_history":"[0,0,1,1,0,0,0,0,1]","location_rts":"[1010,1623,527,388,554,901,631,415,558]","trial_type":"two-door-navigation","trial_index":21,"time_elapsed":551587,"internal_node_id":"0.0-2.0-19.0"},{"group":"square cycles (cube, non-group)","room_assignment":["purple","yellow","blue","green","red","grey","brown","pink"],"door_color_assignment":["white","black"],"door_generator_assignment":[0,1],"goal":3,"start":1,"action_noise":0.1,"location_history":"[1,0,4,7,6,7,6,7,3]","action_history":"[1,1,0,0,0,0,1,1]","door_history":"[1,1,0,0,0,0,1,1]","location_rts":"[2013,902,370,436,414,446,638,495]","trial_type":"two-door-navigation","trial_index":22,"time_elapsed":568935,"internal_node_id":"0.0-2.0-20.0"},{"group":"square cycles (cube, non-group)","room_assignment":["purple","yellow","blue","green","red","grey","brown","pink"],"door_color_assignment":["white","black"],"door_generator_assignment":[0,1],"goal":6,"start":3,"action_noise":0.1,"location_history":"[3,0,1,0,4,7,3,2,3,2,3,0,1,0,4,7,3,2,3,0,1,2,3,2,6]","action_history":"[1,0,0,1,1,1,1,1,1,0,0,0,0,0,0,1,1,0,0,0,0,0,1,1]","door_history":"[1,0,0,1,1,1,1,1,1,0,0,0,0,0,0,1,1,0,0,0,0,0,1,1]","location_rts":"[16048,414,303,651,360,592,518,395,407,523,374,410,382,365,363,919,442,574,352,648,615,418,684,393]","trial_type":"two-door-navigation","trial_index":23,"time_elapsed":623992,"internal_node_id":"0.0-2.0-21.0"},{"group":"square cycles (cube, non-group)","room_assignment":["purple","yellow","blue","green","red","grey","brown","pink"],"door_color_assignment":["white","black"],"door_generator_assignment":[0,1],"goal":5,"start":6,"action_noise":0.1,"location_history":"[6,7,3,0,1,2,3,0,1,2,6,7,6,5]","action_history":"[1,1,0,0,0,0,0,0,0,1,1,0,0]","door_history":"[1,1,0,0,0,0,0,0,0,1,1,0,0]","location_rts":"[10242,484,470,328,362,292,382,325,326,204,266,612,561]","trial_type":"two-door-navigation","trial_index":24,"time_elapsed":655553,"internal_node_id":"0.0-2.0-22.0"},{"group":"square cycles (cube, non-group)","room_assignment":["purple","yellow","blue","green","red","grey","brown","pink"],"door_color_assignment":["white","black"],"door_generator_assignment":[0,1],"goal":3,"start":5,"action_noise":0.1,"location_history":"[5,4,7,6,7,3]","action_history":"[0,0,0,1,1]","door_history":"[0,0,0,1,1]","location_rts":"[1512,368,493,671,371]","trial_type":"two-door-navigation","trial_index":25,"time_elapsed":667560,"internal_node_id":"0.0-2.0-23.0"},{"group":"square cycles (cube, non-group)","room_assignment":["purple","yellow","blue","green","red","grey","brown","pink"],"door_color_assignment":["white","black"],"door_generator_assignment":[0,1],"goal":0,"start":3,"action_noise":0.1,"location_history":"[3,0]","action_history":"[1]","door_history":"[1]","location_rts":"[5166]","trial_type":"two-door-navigation","trial_index":26,"time_elapsed":677251,"internal_node_id":"0.0-2.0-24.0"},{"group":"square cycles (cube, non-group)","room_assignment":["purple","yellow","blue","green","red","grey","brown","pink"],"door_color_assignment":["white","black"],"door_generator_assignment":[0,1],"goal":7,"start":0,"action_noise":0.1,"location_history":"[0,1,0,4,5,4,7]","action_history":"[0,1,1,1,0,0]","door_history":"[0,1,1,1,0,0]","location_rts":"[12625,1215,309,356,563,295]","trial_type":"two-door-navigation","trial_index":27,"time_elapsed":702213,"internal_node_id":"0.0-2.0-25.0"},{"group":"square cycles (cube, non-group)","room_assignment":["purple","yellow","blue","green","red","grey","brown","pink"],"door_color_assignment":["white","black"],"door_generator_assignment":[0,1],"goal":2,"start":7,"action_noise":0.1,"location_history":"[7,3,2]","action_history":"[1,1]","door_history":"[1,1]","location_rts":"[43380,487]","trial_type":"two-door-navigation","trial_index":28,"time_elapsed":751618,"internal_node_id":"0.0-2.0-26.0"},{"group":"square cycles (cube, non-group)","room_assignment":["purple","yellow","blue","green","red","grey","brown","pink"],"door_color_assignment":["white","black"],"door_generator_assignment":[0,1],"goal":1,"start":2,"action_noise":0.1,"location_history":"[2,6,5,4,5,1]","action_history":"[1,0,0,1,1]","door_history":"[1,0,0,1,1]","location_rts":"[118901,457,222,442,410]","trial_type":"two-door-navigation","trial_index":29,"time_elapsed":880631,"internal_node_id":"0.0-2.0-27.0"},{"group":"square cycles (cube, non-group)","room_assignment":["purple","yellow","blue","green","red","grey","brown","pink"],"door_color_assignment":["white","black"],"door_generator_assignment":[0,1],"goal":5,"start":1,"action_noise":0.1,"location_history":"[1,2,6,7,6,5]","action_history":"[0,1,1,0,0]","door_history":"[0,1,1,0,0]","location_rts":"[1789,434,435,346,361]","trial_type":"two-door-navigation","trial_index":30,"time_elapsed":892577,"internal_node_id":"0.0-2.0-28.0"},{"group":"square cycles (cube, non-group)","room_assignment":["purple","yellow","blue","green","red","grey","brown","pink"],"door_color_assignment":["white","black"],"door_generator_assignment":[0,1],"goal":4,"start":5,"action_noise":0.1,"location_history":"[5,4]","action_history":"[0]","door_history":"[0]","location_rts":"[17639]","trial_type":"two-door-navigation","trial_index":31,"time_elapsed":914739,"internal_node_id":"0.0-2.0-29.0"},{"group":"square cycles (cube, non-group)","room_assignment":["purple","yellow","blue","green","red","grey","brown","pink"],"door_color_assignment":["white","black"],"door_generator_assignment":[0,1],"goal":6,"start":4,"action_noise":0.1,"location_history":"[4,7,6]","action_history":"[0,0]","door_history":"[0,0]","location_rts":"[417389,296]","trial_type":"two-door-navigation","trial_index":32,"time_elapsed":1337969,"internal_node_id":"0.0-2.0-30.0"},{"group":"square cycles (cube, non-group)","room_assignment":["purple","yellow","blue","green","red","grey","brown","pink"],"door_color_assignment":["white","black"],"door_generator_assignment":[0,1],"goal":4,"start":6,"action_noise":0.1,"location_history":"[6,5,1,0,1,0,1,2,3,0,1,2,3,2,6,7,3,0,1,2,3,0,4]","action_history":"[1,1,1,0,1,1,1,1,0,0,0,0,1,1,1,1,0,0,0,0,0,1]","door_history":"[1,1,1,0,1,1,1,1,0,0,0,0,1,1,1,1,0,0,0,0,0,1]","location_rts":"[1931,388,1080,54711,597,468,377,351,407,269,361,336,598,338,403,932,584,468,387,325,319,703]","trial_type":"two-door-navigation","trial_index":33,"time_elapsed":1430172,"internal_node_id":"0.0-2.0-31.0"},{"group":"square cycles (cube, non-group)","room_assignment":["purple","yellow","blue","green","red","grey","brown","pink"],"door_color_assignment":["white","black"],"door_generator_assignment":[0,1],"goal":2,"start":4,"action_noise":0.1,"location_history":"[4,7,6,5,4,5,1,0,4,5,4,7,6,5,4,7,6,7,3,2]","action_history":"[0,0,0,0,1,1,1,1,1,0,0,0,0,0,0,0,1,1,1]","door_history":"[0,0,0,0,1,1,1,1,1,0,0,0,0,0,0,0,1,1,1]","location_rts":"[2042,181944,650,475,7297,8050,458,375,366,572,296,439,308,298,365,237493,577,348,646]","trial_type":"two-door-navigation","trial_index":34,"time_elapsed":1896006,"internal_node_id":"0.0-2.0-32.0"},{"group":"square cycles (cube, non-group)","room_assignment":["purple","yellow","blue","green","red","grey","brown","pink"],"door_color_assignment":["white","black"],"door_generator_assignment":[0,1],"goal":0,"start":2,"action_noise":0.1,"location_history":"[2,6,5,1,0]","action_history":"[0,1,1,1]","door_history":"[0,1,1,1]","location_rts":"[1054,666,346,709]","trial_type":"two-door-navigation","trial_index":35,"time_elapsed":1906354,"internal_node_id":"0.0-2.0-33.0"},{"group":"square cycles (cube, non-group)","room_assignment":["purple","yellow","blue","green","red","grey","brown","pink"],"door_color_assignment":["white","black"],"door_generator_assignment":[0,1],"goal":5,"start":0,"action_noise":0.1,"location_history":"[0,1,2,3,2,6,7,3,2,3,0,1,2,6,5]","action_history":"[0,0,0,1,1,1,1,1,0,0,0,0,1,0]","door_history":"[0,0,0,1,1,1,1,1,0,0,0,0,1,0]","location_rts":"[6260,607,1943,610,7566,747,480,622,1254,667,520,398,7302,43006]","trial_type":"two-door-navigation","trial_index":36,"time_elapsed":1996076,"internal_node_id":"0.0-2.0-34.0"},{"group":"square cycles (cube, non-group)","room_assignment":["purple","yellow","blue","green","red","grey","brown","pink"],"door_color_assignment":["white","black"],"door_generator_assignment":[0,1],"goal":1,"start":5,"action_noise":0.1,"location_history":"[5,1]","action_history":"[1]","door_history":"[1]","location_rts":"[1310]","trial_type":"two-door-navigation","trial_index":37,"time_elapsed":2001915,"internal_node_id":"0.0-2.0-35.0"},{"group":"square cycles (cube, non-group)","room_assignment":["purple","yellow","blue","green","red","grey","brown","pink"],"door_color_assignment":["white","black"],"door_generator_assignment":[0,1],"goal":7,"start":1,"action_noise":0.1,"location_history":"[1,2,6,7]","action_history":"[0,1,1]","door_history":"[0,1,1]","location_rts":"[529209,524,420]","trial_type":"two-door-navigation","trial_index":38,"time_elapsed":2538635,"internal_node_id":"0.0-2.0-36.0"},{"group":"square cycles (cube, non-group)","room_assignment":["purple","yellow","blue","green","red","grey","brown","pink"],"door_color_assignment":["white","black"],"door_generator_assignment":[0,1],"goal":3,"start":7,"action_noise":0.1,"location_history":"[7,3]","action_history":"[0]","door_history":"[0]","location_rts":"[1080]","trial_type":"two-door-navigation","trial_index":39,"time_elapsed":2544249,"internal_node_id":"0.0-2.0-37.0"},{"group":"square cycles (cube, non-group)","room_assignment":["purple","yellow","blue","green","red","grey","brown","pink"],"door_color_assignment":["white","black"],"door_generator_assignment":[0,1],"goal":6,"start":3,"action_noise":0.1,"location_history":"[3,0,4,7,6]","action_history":"[0,1,1,0]","door_history":"[0,1,1,0]","location_rts":"[988,400,369,587]","trial_type":"two-door-navigation","trial_index":40,"time_elapsed":2554165,"internal_node_id":"0.0-2.0-38.0"},{"group":"square cycles (cube, non-group)","room_assignment":["purple","yellow","blue","green","red","grey","brown","pink"],"door_color_assignment":["white","black"],"door_generator_assignment":[0,1],"goal":2,"start":6,"action_noise":0.1,"location_history":"[6,7,3,2]","action_history":"[0,1,1]","door_history":"[0,1,1]","location_rts":"[974,618,478]","trial_type":"two-door-navigation","trial_index":41,"time_elapsed":2562793,"internal_node_id":"0.0-2.0-39.0"},{"group":"square cycles (cube, non-group)","room_assignment":["purple","yellow","blue","green","red","grey","brown","pink"],"door_color_assignment":["white","black"],"door_generator_assignment":[0,1],"goal":1,"start":2,"action_noise":0.1,"location_history":"[2,3,0,4,5,4,7,6,5,4,5,1]","action_history":"[0,1,1,1,0,0,0,0,0,0,1]","door_history":"[0,1,1,1,0,0,0,0,0,0,1]","location_rts":"[2178,1006,486,511,273,388,609,374,351,410,348]","trial_type":"two-door-navigation","trial_index":42,"time_elapsed":2584418,"internal_node_id":"0.0-2.0-40.0"},{"group":"square cycles (cube, non-group)","room_assignment":["purple","yellow","blue","green","red","grey","brown","pink"],"door_color_assignment":["white","black"],"door_generator_assignment":[0,1],"goal":0,"start":1,"action_noise":0.1,"location_history":"[1,2,3,2,6,5,4,7,6,7,6,7,3,2,6,5,4,7,6,5,4,5,1,0]","action_history":"[0,0,1,1,0,0,0,0,0,0,1,1,1,1,0,0,0,0,0,0,0,1,1]","door_history":"[0,0,1,1,0,0,0,0,0,0,1,1,1,1,0,0,0,0,0,0,0,1,1]","location_rts":"[1870,12830,620,365,590,406,310,293,372,327,257,334,352,372,855,215,340,350,319,337,281,262,324]","trial_type":"two-door-navigation","trial_index":43,"time_elapsed":2633874,"internal_node_id":"0.0-2.0-41.0"},{"group":"square cycles (cube, non-group)","room_assignment":["purple","yellow","blue","green","red","grey","brown","pink"],"door_color_assignment":["white","black"],"door_generator_assignment":[0,1],"goal":4,"start":0,"action_noise":0.1,"location_history":"[0,4]","action_history":"[1]","door_history":"[1]","location_rts":"[28988]","trial_type":"two-door-navigation","trial_index":44,"time_elapsed":2667385,"internal_node_id":"0.0-2.0-42.0"},{"group":"square cycles (cube, non-group)","room_assignment":["purple","yellow","blue","green","red","grey","brown","pink"],"door_color_assignment":["white","black"],"door_generator_assignment":[0,1],"goal":6,"start":4,"action_noise":0.1,"location_history":"[4,7,6]","action_history":"[0,0]","door_history":"[0,0]","location_rts":"[922,424]","trial_type":"two-door-navigation","trial_index":45,"time_elapsed":2674275,"internal_node_id":"0.0-2.0-43.0"},{"group":"square cycles (cube, non-group)","room_assignment":["purple","yellow","blue","green","red","grey","brown","pink"],"door_color_assignment":["white","black"],"door_generator_assignment":[0,1],"goal":3,"start":6,"action_noise":0.1,"location_history":"[6,7,3]","action_history":"[1,1]","door_history":"[1,1]","location_rts":"[2518,320]","trial_type":"two-door-navigation","trial_index":46,"time_elapsed":2682662,"internal_node_id":"0.0-2.0-44.0"},{"group":"square cycles (cube, non-group)","room_assignment":["purple","yellow","blue","green","red","grey","brown","pink"],"door_color_assignment":["white","black"],"door_generator_assignment":[0,1],"goal":7,"start":3,"action_noise":0.1,"location_history":"[3,2,6,7]","action_history":"[1,1,0]","door_history":"[1,1,0]","location_rts":"[20828,3192,377]","trial_type":"two-door-navigation","trial_index":47,"time_elapsed":2713611,"internal_node_id":"0.0-2.0-45.0"},{"group":"square cycles (cube, non-group)","room_assignment":["purple","yellow","blue","green","red","grey","brown","pink"],"door_color_assignment":["white","black"],"door_generator_assignment":[0,1],"goal":5,"start":7,"action_noise":0.1,"location_history":"[7,6,5]","action_history":"[0,0]","door_history":"[0,0]","location_rts":"[12842,7899]","trial_type":"two-door-navigation","trial_index":48,"time_elapsed":2739898,"internal_node_id":"0.0-2.0-46.0"},{"group":"square cycles (cube, non-group)","room_assignment":["purple","yellow","blue","green","red","grey","brown","pink"],"door_color_assignment":["white","black"],"door_generator_assignment":[0,1],"goal":1,"start":5,"action_noise":0.1,"location_history":"[5,1]","action_history":"[1]","door_history":"[1]","location_rts":"[37195]","trial_type":"two-door-navigation","trial_index":49,"time_elapsed":2781620,"internal_node_id":"0.0-2.0-47.0"},{"group":"square cycles (cube, non-group)","room_assignment":["purple","yellow","blue","green","red","grey","brown","pink"],"door_color_assignment":["white","black"],"door_generator_assignment":[0,1],"goal":6,"start":1,"action_noise":0.1,"location_history":"[1,2,6]","action_history":"[0,1]","door_history":"[0,1]","location_rts":"[2991,458]","trial_type":"two-door-navigation","trial_index":50,"time_elapsed":2790602,"internal_node_id":"0.0-2.0-48.0"},{"group":"square cycles (cube, non-group)","room_assignment":["purple","yellow","blue","green","red","grey","brown","pink"],"door_color_assignment":["white","black"],"door_generator_assignment":[0,1],"goal":0,"start":6,"action_noise":0.1,"location_history":"[6,7,6,5,4,5,1,2,3,2,6,5,4,7,6,5,1,0]","action_history":"[1,0,0,0,1,1,0,0,1,1,0,0,0,0,0,1,1]","door_history":"[1,0,0,0,1,1,0,0,1,1,0,0,0,0,0,1,1]","location_rts":"[8004,1038,377,412,327,438,342,255,690,242,1020,2995,451,358,1654,438,327]","trial_type":"two-door-navigation","trial_index":51,"time_elapsed":2830754,"internal_node_id":"0.0-2.0-49.0"},{"view_history":"[{\"page_index\":0,\"viewing_time\":14541}]","rt":14542,"trial_type":"instructions","trial_index":52,"time_elapsed":2846297,"internal_node_id":"0.0-3.0"},{"view_history":"[{\"page_index\":0,\"viewing_time\":2712},{\"page_index\":1,\"viewing_time\":11854}]","rt":14566,"trial_type":"instructions","trial_index":53,"time_elapsed":2861864,"internal_node_id":"0.0-4.0"},{"group":"tri cycles (cube, non-group)","fractal_assignment":["../images/grn_red.png","../images/blu_wht.png","../images/org_blu.png","../images/ylw_slt.png","../images/pnk_blu.png","../images/gry_blk.png","../images/cyn_red.png","../images/ylw_pnk.png"],"mutagen_generator_assignment":[0,1],"goal":6,"start":3,"action_noise":0.1,"location_history":"[3,7,6]","action_history":"[0,0]","mutagen_history":"[0,0]","location_rts":"[7756,759]","trial_type":"fractal-mutation","trial_index":54,"time_elapsed":2876039,"internal_node_id":"0.0-5.0-0.0"},{"group":"tri cycles (cube, non-group)","fractal_assignment":["../images/grn_red.png","../images/blu_wht.png","../images/org_blu.png","../images/ylw_slt.png","../images/pnk_blu.png","../images/gry_blk.png","../images/cyn_red.png","../images/ylw_pnk.png"],"mutagen_generator_assignment":[0,1],"goal":1,"start":6,"action_noise":0.1,"location_history":"[6,5,2,6,4,7,3,4,7,6,4,0,2,1]","action_history":"[1,1,1,0,0,1,1,0,0,0,0,0,0]","mutagen_history":"[1,1,1,0,0,1,1,0,0,0,0,0,0]","location_rts":"[26993,655,584,2145,847,1479,646,1225,399,480,450,497,525]","trial_type":"fractal-mutation","trial_index":55,"time_elapsed":2930312,"internal_node_id":"0.0-5.0-1.0"},{"group":"tri cycles (cube, non-group)","fractal_assignment":["../images/grn_red.png","../images/blu_wht.png","../images/org_blu.png","../images/ylw_slt.png","../images/pnk_blu.png","../images/gry_blk.png","../images/cyn_red.png","../images/ylw_pnk.png"],"mutagen_generator_assignment":[0,1],"goal":2,"start":1,"action_noise":0.1,"location_history":"[1,0,2]","action_history":"[0,0]","mutagen_history":"[0,0]","location_rts":"[39503,430]","trial_type":"fractal-mutation","trial_index":56,"time_elapsed":2975852,"internal_node_id":"0.0-5.0-2.0"},{"group":"tri cycles (cube, non-group)","fractal_assignment":["../images/grn_red.png","../images/blu_wht.png","../images/org_blu.png","../images/ylw_slt.png","../images/pnk_blu.png","../images/gry_blk.png","../images/cyn_red.png","../images/ylw_pnk.png"],"mutagen_generator_assignment":[0,1],"goal":0,"start":2,"action_noise":0.1,"location_history":"[2,1,0]","action_history":"[0,0]","mutagen_history":"[0,0]","location_rts":"[10114,682]","trial_type":"fractal-mutation","trial_index":57,"time_elapsed":2992272,"internal_node_id":"0.0-5.0-3.0"},{"group":"tri cycles (cube, non-group)","fractal_assignment":["../images/grn_red.png","../images/blu_wht.png","../images/org_blu.png","../images/ylw_slt.png","../images/pnk_blu.png","../images/gry_blk.png","../images/cyn_red.png","../images/ylw_pnk.png"],"mutagen_generator_assignment":[0,1],"goal":7,"start":0,"action_noise":0.1,"location_history":"[0,3,7]","action_history":"[0,0]","mutagen_history":"[0,0]","location_rts":"[823,524]","trial_type":"fractal-mutation","trial_index":58,"time_elapsed":2999232,"internal_node_id":"0.0-5.0-4.0"},{"group":"tri cycles (cube, non-group)","fractal_assignment":["../images/grn_red.png","../images/blu_wht.png","../images/org_blu.png","../images/ylw_slt.png","../images/pnk_blu.png","../images/gry_blk.png","../images/cyn_red.png","../images/ylw_pnk.png"],"mutagen_generator_assignment":[0,1],"goal":5,"start":7,"action_noise":0.1,"location_history":"[7,3,4,0,3,4,0,2,1,5]","action_history":"[1,1,1,1,1,1,0,0,0]","mutagen_history":"[1,1,1,1,1,1,0,0,0]","location_rts":"[42246,400,405,415,437,482,1281,344,536]","trial_type":"fractal-mutation","trial_index":59,"time_elapsed":3058856,"internal_node_id":"0.0-5.0-5.0"},{"group":"tri cycles (cube, non-group)","fractal_assignment":["../images/grn_red.png","../images/blu_wht.png","../images/org_blu.png","../images/ylw_slt.png","../images/pnk_blu.png","../images/gry_blk.png","../images/cyn_red.png","../images/ylw_pnk.png"],"mutagen_generator_assignment":[0,1],"goal":4,"start":5,"action_noise":0.1,"location_history":"[5,1,0,2,1,5,2,6,5,2,6,5,2,6,4]","action_history":"[0,0,0,0,1,1,1,1,1,0,1,1,1,0]","mutagen_history":"[0,0,0,0,1,1,1,1,1,0,1,1,1,0]","location_rts":"[99222,568,445,760,1188,440,470,439,441,1379,1308,612,705,306]","trial_type":"fractal-mutation","trial_index":60,"time_elapsed":3185512,"internal_node_id":"0.0-5.0-6.0"},{"group":"tri cycles (cube, non-group)","fractal_assignment":["../images/grn_red.png","../images/blu_wht.png","../images/org_blu.png","../images/ylw_slt.png","../images/pnk_blu.png","../images/gry_blk.png","../images/cyn_red.png","../images/ylw_pnk.png"],"mutagen_generator_assignment":[0,1],"goal":2,"start":4,"action_noise":0.1,"location_history":"[4,7,6,4,7,3,4,0,3,4,7,6,4,7,6,5,1,0,2]","action_history":"[0,0,0,0,1,1,1,1,1,0,0,0,0,0,1,0,0,0]","mutagen_history":"[0,0,0,0,1,1,1,1,1,0,0,0,0,0,1,0,0,0]","location_rts":"[48813,854,382,464,2878,380,435,480,462,1130,2229,475,429,643,1210,1468,420,518]","trial_type":"fractal-mutation","trial_index":61,"time_elapsed":3271742,"internal_node_id":"0.0-5.0-7.0"},{"group":"tri cycles (cube, non-group)","fractal_assignment":["../images/grn_red.png","../images/blu_wht.png","../images/org_blu.png","../images/ylw_slt.png","../images/pnk_blu.png","../images/gry_blk.png","../images/cyn_red.png","../images/ylw_pnk.png"],"mutagen_generator_assignment":[0,1],"goal":3,"start":2,"action_noise":0.1,"location_history":"[2,1,5,1,5,2,6,5,2,1,0,2,6,5,2,6,5,1,0,3]","action_history":"[0,0,0,1,1,1,1,1,0,0,0,0,1,1,1,1,0,0,0]","mutagen_history":"[0,0,0,1,1,1,1,1,0,0,0,0,1,1,1,1,0,0,0]","location_rts":"[47175,423,415,1199,410,569,499,747,1164,1317,463,489,1060,500,433,546,1058,429,417]","trial_type":"fractal-mutation","trial_index":62,"time_elapsed":3354623,"internal_node_id":"0.0-5.0-8.0"},{"group":"tri cycles (cube, non-group)","fractal_assignment":["../images/grn_red.png","../images/blu_wht.png","../images/org_blu.png","../images/ylw_slt.png","../images/pnk_blu.png","../images/gry_blk.png","../images/cyn_red.png","../images/ylw_pnk.png"],"mutagen_generator_assignment":[0,1],"goal":7,"start":3,"action_noise":0.1,"location_history":"[3,7]","action_history":"[0]","mutagen_history":"[0]","location_rts":"[1742]","trial_type":"fractal-mutation","trial_index":63,"time_elapsed":3360918,"internal_node_id":"0.0-5.0-9.0"},{"group":"tri cycles (cube, non-group)","fractal_assignment":["../images/grn_red.png","../images/blu_wht.png","../images/org_blu.png","../images/ylw_slt.png","../images/pnk_blu.png","../images/gry_blk.png","../images/cyn_red.png","../images/ylw_pnk.png"],"mutagen_generator_assignment":[0,1],"goal":0,"start":7,"action_noise":0.1,"location_history":"[7,3,7,6,4,0]","action_history":"[0,0,0,0,1]","mutagen_history":"[0,0,0,0,1]","location_rts":"[784,533,492,542,1050]","trial_type":"fractal-mutation","trial_index":64,"time_elapsed":3373120,"internal_node_id":"0.0-5.0-10.0"},{"group":"tri cycles (cube, non-group)","fractal_assignment":["../images/grn_red.png","../images/blu_wht.png","../images/org_blu.png","../images/ylw_slt.png","../images/pnk_blu.png","../images/gry_blk.png","../images/cyn_red.png","../images/ylw_pnk.png"],"mutagen_generator_assignment":[0,1],"goal":1,"start":0,"action_noise":0.1,"location_history":"[0,2,1]","action_history":"[0,0]","mutagen_history":"[0,0]","location_rts":"[8958,716]","trial_type":"fractal-mutation","trial_index":65,"time_elapsed":3388423,"internal_node_id":"0.0-5.0-11.0"},{"group":"tri cycles (cube, non-group)","fractal_assignment":["../images/grn_red.png","../images/blu_wht.png","../images/org_blu.png","../images/ylw_slt.png","../images/pnk_blu.png","../images/gry_blk.png","../images/cyn_red.png","../images/ylw_pnk.png"],"mutagen_generator_assignment":[0,1],"goal":6,"start":1,"action_noise":0.1,"location_history":"[1,0,2,1,5,1,5,2,6]","action_history":"[0,0,0,0,0,1,1,1]","mutagen_history":"[0,0,0,0,0,1,1,1]","location_rts":"[25855,561,420,498,449,1765,775,483]","trial_type":"fractal-mutation","trial_index":66,"time_elapsed":3431156,"internal_node_id":"0.0-5.0-12.0"},{"group":"tri cycles (cube, non-group)","fractal_assignment":["../images/grn_red.png","../images/blu_wht.png","../images/org_blu.png","../images/ylw_slt.png","../images/pnk_blu.png","../images/gry_blk.png","../images/cyn_red.png","../images/ylw_pnk.png"],"mutagen_generator_assignment":[0,1],"goal":4,"start":6,"action_noise":0.1,"location_history":"[6,4]","action_history":"[0]","mutagen_history":"[0]","location_rts":"[2130]","trial_type":"fractal-mutation","trial_index":67,"time_elapsed":3437839,"internal_node_id":"0.0-5.0-13.0"},{"group":"tri cycles (cube, non-group)","fractal_assignment":["../images/grn_red.png","../images/blu_wht.png","../images/org_blu.png","../images/ylw_slt.png","../images/pnk_blu.png","../images/gry_blk.png","../images/cyn_red.png","../images/ylw_pnk.png"],"mutagen_generator_assignment":[0,1],"goal":5,"start":4,"action_noise":0.1,"location_history":"[4,0,3,4,0,3,4,7,6,4,0,3,4,0,2,6,4,0,3,4,0,3,7,6,4,7,6,5]","action_history":"[1,1,1,1,1,1,0,0,0,1,1,1,1,0,1,1,1,1,1,1,1,0,0,0,0,0,1]","mutagen_history":"[1,1,1,1,1,1,0,0,0,1,1,1,1,0,1,1,1,1,1,1,1,0,0,0,0,0,1]","location_rts":"[2607,919,755,1092,1888,520,1260,398,619,983,387,668,1405,24514,1354,553,357,307,388,492,725,1257,848,409,487,466,1426]","trial_type":"fractal-mutation","trial_index":68,"time_elapsed":3517112,"internal_node_id":"0.0-5.0-14.0"},{"group":"tri cycles (cube, non-group)","fractal_assignment":["../images/grn_red.png","../images/blu_wht.png","../images/org_blu.png","../images/ylw_slt.png","../images/pnk_blu.png","../images/gry_blk.png","../images/cyn_red.png","../images/ylw_pnk.png"],"mutagen_generator_assignment":[0,1],"goal":4,"start":5,"action_noise":0.1,"location_history":"[5,1,0,2,6,5,2,1,0,2,1,5,2,1,0,2,1,5,2,1,5,1,0,2,1,0,3,7,3,7,6,5,1,5,1,0,2,1,5,2,6,4]","action_history":"[0,0,1,1,1,1,0,0,0,0,1,1,0,0,0,0,1,1,0,1,0,0,0,0,0,1,1,1,0,0,0,0,1,0,0,0,1,1,1,1,1]","mutagen_history":"[0,0,1,1,1,1,0,0,0,0,1,1,0,0,0,0,1,1,0,1,0,0,0,0,0,1,1,1,0,0,0,0,1,0,0,0,1,1,1,1,1]","location_rts":"[20710,17036,2812,849,36920,1215,2095,4082,526,705,1403,639,1634,14359,482,9203,1199,635,1408,1023,1235,9008,13760,444,774,1093,494,723,1273,481,508,589,1327,2101,740,488,1115,600,526,1813,529]","trial_type":"fractal-mutation","trial_index":69,"time_elapsed":3722703,"internal_node_id":"0.0-5.0-15.0"},{"group":"tri cycles (cube, non-group)","fractal_assignment":["../images/grn_red.png","../images/blu_wht.png","../images/org_blu.png","../images/ylw_slt.png","../images/pnk_blu.png","../images/gry_blk.png","../images/cyn_red.png","../images/ylw_pnk.png"],"mutagen_generator_assignment":[0,1],"goal":0,"start":4,"action_noise":0.1,"location_history":"[4,7,6,4,0]","action_history":"[0,0,0,1]","mutagen_history":"[0,0,0,1]","location_rts":"[34375,1233,506,1000]","trial_type":"fractal-mutation","trial_index":70,"time_elapsed":3767557,"internal_node_id":"0.0-5.0-16.0"},{"group":"tri cycles (cube, non-group)","fractal_assignment":["../images/grn_red.png","../images/blu_wht.png","../images/org_blu.png","../images/ylw_slt.png","../images/pnk_blu.png","../images/gry_blk.png","../images/cyn_red.png","../images/ylw_pnk.png"],"mutagen_generator_assignment":[0,1],"goal":7,"start":0,"action_noise":0.1,"location_history":"[0,2,1,0,3,4,0,3,7]","action_history":"[0,0,0,1,1,1,1,0]","mutagen_history":"[0,0,0,1,1,1,1,0]","location_rts":"[145263,530,369,392,595,595,610,1055]","trial_type":"fractal-mutation","trial_index":71,"time_elapsed":3928989,"internal_node_id":"0.0-5.0-17.0"},{"group":"tri cycles (cube, non-group)","fractal_assignment":["../images/grn_red.png","../images/blu_wht.png","../images/org_blu.png","../images/ylw_slt.png","../images/pnk_blu.png","../images/gry_blk.png","../images/cyn_red.png","../images/ylw_pnk.png"],"mutagen_generator_assignment":[0,1],"goal":2,"start":7,"action_noise":0.1,"location_history":"[7,6,4,7,3,4,0,3,7,6,4,0,3,4,0,2]","action_history":"[0,0,0,1,1,1,1,0,0,0,0,1,1,1,0]","mutagen_history":"[0,0,0,1,1,1,1,0,0,0,0,1,1,1,0]","location_rts":"[5969,1561,819,1346,575,897,459,1287,1901,1034,890,2799,3586,3373,1319]","trial_type":"fractal-mutation","trial_index":72,"time_elapsed":3976207,"internal_node_id":"0.0-5.0-18.0"},{"group":"tri cycles (cube, non-group)","fractal_assignment":["../images/grn_red.png","../images/blu_wht.png","../images/org_blu.png","../images/ylw_slt.png","../images/pnk_blu.png","../images/gry_blk.png","../images/cyn_red.png","../images/ylw_pnk.png"],"mutagen_generator_assignment":[0,1],"goal":1,"start":2,"action_noise":0.1,"location_history":"[2,1]","action_history":"[0]","mutagen_history":"[0]","location_rts":"[2270]","trial_type":"fractal-mutation","trial_index":73,"time_elapsed":3983028,"internal_node_id":"0.0-5.0-19.0"},{"group":"tri cycles (cube, non-group)","fractal_assignment":["../images/grn_red.png","../images/blu_wht.png","../images/org_blu.png","../images/ylw_slt.png","../images/pnk_blu.png","../images/gry_blk.png","../images/cyn_red.png","../images/ylw_pnk.png"],"mutagen_generator_assignment":[0,1],"goal":3,"start":1,"action_noise":0.1,"location_history":"[1,0,3]","action_history":"[0,1]","mutagen_history":"[0,1]","location_rts":"[32753,1226]","trial_type":"fractal-mutation","trial_index":74,"time_elapsed":4022628,"internal_node_id":"0.0-5.0-20.0"},{"group":"tri cycles (cube, non-group)","fractal_assignment":["../images/grn_red.png","../images/blu_wht.png","../images/org_blu.png","../images/ylw_slt.png","../images/pnk_blu.png","../images/gry_blk.png","../images/cyn_red.png","../images/ylw_pnk.png"],"mutagen_generator_assignment":[0,1],"goal":6,"start":3,"action_noise":0.1,"location_history":"[3,4,0,2,1,0,2,6]","action_history":"[1,1,0,0,0,0,1]","mutagen_history":"[1,1,0,0,0,0,1]","location_rts":"[57281,507,1128,575,868,494,1113]","trial_type":"fractal-mutation","trial_index":75,"time_elapsed":4095504,"internal_node_id":"0.0-5.0-21.0"},{"group":"tri cycles (cube, non-group)","fractal_assignment":["../images/grn_red.png","../images/blu_wht.png","../images/org_blu.png","../images/ylw_slt.png","../images/pnk_blu.png","../images/gry_blk.png","../images/cyn_red.png","../images/ylw_pnk.png"],"mutagen_generator_assignment":[0,1],"goal":5,"start":6,"action_noise":0.1,"location_history":"[6,5]","action_history":"[1]","mutagen_history":"[1]","location_rts":"[2245]","trial_type":"fractal-mutation","trial_index":76,"time_elapsed":4102312,"internal_node_id":"0.0-5.0-22.0"},{"group":"tri cycles (cube, non-group)","fractal_assignment":["../images/grn_red.png","../images/blu_wht.png","../images/org_blu.png","../images/ylw_slt.png","../images/pnk_blu.png","../images/gry_blk.png","../images/cyn_red.png","../images/ylw_pnk.png"],"mutagen_generator_assignment":[0,1],"goal":3,"start":5,"action_noise":0.1,"location_history":"[5,2,6,5,2,6,4,7,6,5,2,6,4,7,6,4,0,3]","action_history":"[1,1,1,1,0,0,0,0,1,1,1,0,0,0,0,1,1]","mutagen_history":"[1,1,1,1,0,0,0,0,1,1,1,0,0,0,0,1,1]","location_rts":"[2053,496,812,708,1351,680,620,533,1418,509,539,1197,446,635,581,1185,503]","trial_type":"fractal-mutation","trial_index":77,"time_elapsed":4138060,"internal_node_id":"0.0-5.0-23.0"},{"group":"tri cycles (cube, non-group)","fractal_assignment":["../images/grn_red.png","../images/blu_wht.png","../images/org_blu.png","../images/ylw_slt.png","../images/pnk_blu.png","../images/gry_blk.png","../images/cyn_red.png","../images/ylw_pnk.png"],"mutagen_generator_assignment":[0,1],"goal":0,"start":3,"action_noise":0.1,"location_history":"[3,7,6,5,2,6,5,2,1,0]","action_history":"[0,0,1,1,1,1,0,0,0]","mutagen_history":"[0,0,1,1,1,1,0,0,0]","location_rts":"[50281,491,1187,1645,620,1334,1989,178445,534]","trial_type":"fractal-mutation","trial_index":78,"time_elapsed":4387637,"internal_node_id":"0.0-5.0-24.0"},{"group":"tri cycles (cube, non-group)","fractal_assignment":["../images/grn_red.png","../images/blu_wht.png","../images/org_blu.png","../images/ylw_slt.png","../images/pnk_blu.png","../images/gry_blk.png","../images/cyn_red.png","../images/ylw_pnk.png"],"mutagen_generator_assignment":[0,1],"goal":7,"start":0,"action_noise":0.1,"location_history":"[0,2,1,0,3,4,0,2,1,0,2,6,4,0,3,4,0,2,1,0,2,6,5,2,1,0,2,1,5,2,6,5,2,6,5,1,0,2,6,5,2,6,4,7]","action_history":"[0,0,0,1,1,1,0,0,0,0,1,1,1,1,1,0,0,0,0,0,1,1,1,0,0,0,0,1,1,1,1,1,0,0,0,0,0,1,1,1,0,0,0]","mutagen_history":"[0,0,0,1,1,1,0,0,0,0,1,1,1,1,1,0,0,0,0,0,1,1,1,0,0,0,0,1,1,1,1,1,0,0,0,0,0,1,1,1,0,0,0]","location_rts":"[169304,618,1038,560,514,1294,1267,550,1778,956,194,434,506,582,670,1428,591,989,1435,687,458,388,523,1978,458,403,1283,1075,390,516,471,456,1372,545,893,469,575,2063,433,462,659,427,439]","trial_type":"fractal-mutation","trial_index":79,"time_elapsed":4638833,"internal_node_id":"0.0-5.0-25.0"},{"group":"tri cycles (cube, non-group)","fractal_assignment":["../images/grn_red.png","../images/blu_wht.png","../images/org_blu.png","../images/ylw_slt.png","../images/pnk_blu.png","../images/gry_blk.png","../images/cyn_red.png","../images/ylw_pnk.png"],"mutagen_generator_assignment":[0,1],"goal":2,"start":7,"action_noise":0.1,"location_history":"[7,6,5,2]","action_history":"[0,1,1]","mutagen_history":"[0,1,1]","location_rts":"[1035,1350,397]","trial_type":"fractal-mutation","trial_index":80,"time_elapsed":4648285,"internal_node_id":"0.0-5.0-26.0"},{"group":"tri cycles (cube, non-group)","fractal_assignment":["../images/grn_red.png","../images/blu_wht.png","../images/org_blu.png","../images/ylw_slt.png","../images/pnk_blu.png","../images/gry_blk.png","../images/cyn_red.png","../images/ylw_pnk.png"],"mutagen_generator_assignment":[0,1],"goal":1,"start":2,"action_noise":0.1,"location_history":"[2,6,5,2,1]","action_history":"[1,1,1,0]","mutagen_history":"[1,1,1,0]","location_rts":"[2120,548,521,1168]","trial_type":"fractal-mutation","trial_index":81,"time_elapsed":4660402,"internal_node_id":"0.0-5.0-27.0"},{"group":"tri cycles (cube, non-group)","fractal_assignment":["../images/grn_red.png","../images/blu_wht.png","../images/org_blu.png","../images/ylw_slt.png","../images/pnk_blu.png","../images/gry_blk.png","../images/cyn_red.png","../images/ylw_pnk.png"],"mutagen_generator_assignment":[0,1],"goal":5,"start":1,"action_noise":0.1,"location_history":"[1,0,2,6,5]","action_history":"[0,0,1,1]","mutagen_history":"[0,0,1,1]","location_rts":"[1051,470,2148,598]","trial_type":"fractal-mutation","trial_index":82,"time_elapsed":4672409,"internal_node_id":"0.0-5.0-28.0"},{"group":"tri cycles (cube, non-group)","fractal_assignment":["../images/grn_red.png","../images/blu_wht.png","../images/org_blu.png","../images/ylw_slt.png","../images/pnk_blu.png","../images/gry_blk.png","../images/cyn_red.png","../images/ylw_pnk.png"],"mutagen_generator_assignment":[0,1],"goal":4,"start":5,"action_noise":0.1,"location_history":"[5,1,0,3,4]","action_history":"[0,0,1,1]","mutagen_history":"[0,0,1,1]","location_rts":"[2348,796,1409,499]","trial_type":"fractal-mutation","trial_index":83,"time_elapsed":4685207,"internal_node_id":"0.0-5.0-29.0"},{"group":"tri cycles (cube, non-group)","fractal_assignment":["../images/grn_red.png","../images/blu_wht.png","../images/org_blu.png","../images/ylw_slt.png","../images/pnk_blu.png","../images/gry_blk.png","../images/cyn_red.png","../images/ylw_pnk.png"],"mutagen_generator_assignment":[0,1],"goal":6,"start":4,"action_noise":0.1,"location_history":"[4,0,2,1,0,2,1,0,3,4,7,6]","action_history":"[1,1,0,0,0,0,0,1,1,1,0]","mutagen_history":"[1,1,0,0,0,0,0,1,1,1,0]","location_rts":"[2126,590,1169,527,488,550,676,1735,471,494,1305]","trial_type":"fractal-mutation","trial_index":84,"time_elapsed":4710440,"internal_node_id":"0.0-5.0-30.0"},{"group":"tri cycles (cube, non-group)","fractal_assignment":["../images/grn_red.png","../images/blu_wht.png","../images/org_blu.png","../images/ylw_slt.png","../images/pnk_blu.png","../images/gry_blk.png","../images/cyn_red.png","../images/ylw_pnk.png"],"mutagen_generator_assignment":[0,1],"goal":4,"start":6,"action_noise":0.1,"location_history":"[6,5,1,0,3,7,3,4]","action_history":"[0,0,0,1,1,1,1]","mutagen_history":"[0,0,0,1,1,1,1]","location_rts":"[2476,602,516,1131,750,1908,787]","trial_type":"fractal-mutation","trial_index":85,"time_elapsed":4729531,"internal_node_id":"0.0-5.0-31.0"},{"group":"tri cycles (cube, non-group)","fractal_assignment":["../images/grn_red.png","../images/blu_wht.png","../images/org_blu.png","../images/ylw_slt.png","../images/pnk_blu.png","../images/gry_blk.png","../images/cyn_red.png","../images/ylw_pnk.png"],"mutagen_generator_assignment":[0,1],"goal":2,"start":4,"action_noise":0.1,"location_history":"[4,7,6,5,2]","action_history":"[0,0,1,1]","mutagen_history":"[0,0,1,1]","location_rts":"[30673,576,990,446]","trial_type":"fractal-mutation","trial_index":86,"time_elapsed":4769947,"internal_node_id":"0.0-5.0-32.0"},{"group":"tri cycles (cube, non-group)","fractal_assignment":["../images/grn_red.png","../images/blu_wht.png","../images/org_blu.png","../images/ylw_slt.png","../images/pnk_blu.png","../images/gry_blk.png","../images/cyn_red.png","../images/ylw_pnk.png"],"mutagen_generator_assignment":[0,1],"goal":0,"start":2,"action_noise":0.1,"location_history":"[2,1,5,2,1,0]","action_history":"[1,1,1,0,0]","mutagen_history":"[1,1,1,0,0]","location_rts":"[2145,670,695,1415,2074]","trial_type":"fractal-mutation","trial_index":87,"time_elapsed":4785729,"internal_node_id":"0.0-5.0-33.0"},{"group":"tri cycles (cube, non-group)","fractal_assignment":["../images/grn_red.png","../images/blu_wht.png","../images/org_blu.png","../images/ylw_slt.png","../images/pnk_blu.png","../images/gry_blk.png","../images/cyn_red.png","../images/ylw_pnk.png"],"mutagen_generator_assignment":[0,1],"goal":5,"start":0,"action_noise":0.1,"location_history":"[0,2,6,5]","action_history":"[1,1,1]","mutagen_history":"[1,1,1]","location_rts":"[1724,948,967]","trial_type":"fractal-mutation","trial_index":88,"time_elapsed":4796081,"internal_node_id":"0.0-5.0-34.0"},{"group":"tri cycles (cube, non-group)","fractal_assignment":["../images/grn_red.png","../images/blu_wht.png","../images/org_blu.png","../images/ylw_slt.png","../images/pnk_blu.png","../images/gry_blk.png","../images/cyn_red.png","../images/ylw_pnk.png"],"mutagen_generator_assignment":[0,1],"goal":1,"start":5,"action_noise":0.1,"location_history":"[5,2,1]","action_history":"[1,0]","mutagen_history":"[1,0]","location_rts":"[32594,1331]","trial_type":"fractal-mutation","trial_index":89,"time_elapsed":4835627,"internal_node_id":"0.0-5.0-35.0"},{"group":"tri cycles (cube, non-group)","fractal_assignment":["../images/grn_red.png","../images/blu_wht.png","../images/org_blu.png","../images/ylw_slt.png","../images/pnk_blu.png","../images/gry_blk.png","../images/cyn_red.png","../images/ylw_pnk.png"],"mutagen_generator_assignment":[0,1],"goal":7,"start":1,"action_noise":0.1,"location_history":"[1,0,2,1,0,3,4,0,3,7]","action_history":"[0,0,0,1,1,1,1,0,0]","mutagen_history":"[0,0,0,1,1,1,1,0,0]","location_rts":"[1538,558,662,1703,514,569,508,1425,501]","trial_type":"fractal-mutation","trial_index":90,"time_elapsed":4856645,"internal_node_id":"0.0-5.0-36.0"},{"group":"tri cycles (cube, non-group)","fractal_assignment":["../images/grn_red.png","../images/blu_wht.png","../images/org_blu.png","../images/ylw_slt.png","../images/pnk_blu.png","../images/gry_blk.png","../images/cyn_red.png","../images/ylw_pnk.png"],"mutagen_generator_assignment":[0,1],"goal":3,"start":7,"action_noise":0.1,"location_history":"[7,6,4,7,6,5,2,6,5,1,0,2,1,0,2,6,5,2,6,5,2,1,0,2,1,5,2,6,4,7,6,4,0,3]","action_history":"[0,0,0,0,1,1,1,1,0,0,0,0,0,0,1,1,1,1,1,1,0,0,0,1,1,1,0,0,0,0,0,1,1]","mutagen_history":"[0,0,0,0,1,1,1,1,0,0,0,0,0,0,1,1,1,1,1,1,0,0,0,1,1,1,0,0,0,0,0,1,1]","location_rts":"[3847,555,587,591,412,645,503,516,1191,519,442,455,541,1586,452,385,399,482,1520,752,1336,2035,561,1607,466,541,1213,441,483,549,463,1190,406]","trial_type":"fractal-mutation","trial_index":91,"time_elapsed":4922623,"internal_node_id":"0.0-5.0-37.0"},{"group":"tri cycles (cube, non-group)","fractal_assignment":["../images/grn_red.png","../images/blu_wht.png","../images/org_blu.png","../images/ylw_slt.png","../images/pnk_blu.png","../images/gry_blk.png","../images/cyn_red.png","../images/ylw_pnk.png"],"mutagen_generator_assignment":[0,1],"goal":6,"start":3,"action_noise":0.1,"location_history":"[3,7,6]","action_history":"[0,0]","mutagen_history":"[0,0]","location_rts":"[4709,705]","trial_type":"fractal-mutation","trial_index":92,"time_elapsed":4933658,"internal_node_id":"0.0-5.0-38.0"},{"group":"tri cycles (cube, non-group)","fractal_assignment":["../images/grn_red.png","../images/blu_wht.png","../images/org_blu.png","../images/ylw_slt.png","../images/pnk_blu.png","../images/gry_blk.png","../images/cyn_red.png","../images/ylw_pnk.png"],"mutagen_generator_assignment":[0,1],"goal":2,"start":6,"action_noise":0.1,"location_history":"[6,4,7,3,4,7,6,4,7,6,4,7,3,4,0,3,4,7,6,4,7,3,4,0,3,4,7,6,5,2]","action_history":"[0,0,1,1,1,1,0,0,0,0,0,1,1,1,1,1,0,0,0,0,1,1,1,1,0,0,0,1,1]","mutagen_history":"[0,0,1,1,1,1,0,0,0,0,0,1,1,1,1,1,0,0,0,0,1,1,1,1,0,0,0,1,1]","location_rts":"[1178,690,1511,708,486,588,1367,472,566,399,503,1332,730,467,569,509,1083,638,421,555,1133,807,1043,598,1212,447,504,1124,682]","trial_type":"fractal-mutation","trial_index":93,"time_elapsed":4990211,"internal_node_id":"0.0-5.0-39.0"},{"group":"tri cycles (cube, non-group)","fractal_assignment":["../images/grn_red.png","../images/blu_wht.png","../images/org_blu.png","../images/ylw_slt.png","../images/pnk_blu.png","../images/gry_blk.png","../images/cyn_red.png","../images/ylw_pnk.png"],"mutagen_generator_assignment":[0,1],"goal":1,"start":2,"action_noise":0.1,"location_history":"[2,6,5,2,6,4,7,3,7,3,4,7,6,5,2,6,5,2,1]","action_history":"[1,1,1,0,0,0,1,1,1,0,0,0,1,1,1,1,0,0]","mutagen_history":"[1,1,1,0,0,0,1,1,1,0,0,0,1,1,1,1,0,0]","location_rts":"[1808,936,929,1356,1316,528,1302,478,589,1308,831,531,1290,590,430,814,1305,1037]","trial_type":"fractal-mutation","trial_index":94,"time_elapsed":5030173,"internal_node_id":"0.0-5.0-40.0"},{"group":"tri cycles (cube, non-group)","fractal_assignment":["../images/grn_red.png","../images/blu_wht.png","../images/org_blu.png","../images/ylw_slt.png","../images/pnk_blu.png","../images/gry_blk.png","../images/cyn_red.png","../images/ylw_pnk.png"],"mutagen_generator_assignment":[0,1],"goal":0,"start":1,"action_noise":0.1,"location_history":"[1,0]","action_history":"[0]","mutagen_history":"[0]","location_rts":"[32095]","trial_type":"fractal-mutation","trial_index":95,"time_elapsed":5066822,"internal_node_id":"0.0-5.0-41.0"},{"group":"tri cycles (cube, non-group)","fractal_assignment":["../images/grn_red.png","../images/blu_wht.png","../images/org_blu.png","../images/ylw_slt.png","../images/pnk_blu.png","../images/gry_blk.png","../images/cyn_red.png","../images/ylw_pnk.png"],"mutagen_generator_assignment":[0,1],"goal":4,"start":0,"action_noise":0.1,"location_history":"[0,2,6,4]","action_history":"[0,0,0]","mutagen_history":"[0,0,0]","location_rts":"[4301,1783,729]","trial_type":"fractal-mutation","trial_index":96,"time_elapsed":5080286,"internal_node_id":"0.0-5.0-42.0"},{"group":"tri cycles (cube, non-group)","fractal_assignment":["../images/grn_red.png","../images/blu_wht.png","../images/org_blu.png","../images/ylw_slt.png","../images/pnk_blu.png","../images/gry_blk.png","../images/cyn_red.png","../images/ylw_pnk.png"],"mutagen_generator_assignment":[0,1],"goal":6,"start":4,"action_noise":0.1,"location_history":"[4,0,2,1,5,2,6]","action_history":"[0,0,0,1,1,1]","mutagen_history":"[0,0,0,1,1,1]","location_rts":"[1357,477,2125,2210,578,437]","trial_type":"fractal-mutation","trial_index":97,"time_elapsed":5097352,"internal_node_id":"0.0-5.0-43.0"},{"group":"tri cycles (cube, non-group)","fractal_assignment":["../images/grn_red.png","../images/blu_wht.png","../images/org_blu.png","../images/ylw_slt.png","../images/pnk_blu.png","../images/gry_blk.png","../images/cyn_red.png","../images/ylw_pnk.png"],"mutagen_generator_assignment":[0,1],"goal":3,"start":6,"action_noise":0.1,"location_history":"[6,4,7,3]","action_history":"[0,0,0]","mutagen_history":"[0,0,0]","location_rts":"[2532,665,2888]","trial_type":"fractal-mutation","trial_index":98,"time_elapsed":5110105,"internal_node_id":"0.0-5.0-44.0"},{"group":"tri cycles (cube, non-group)","fractal_assignment":["../images/grn_red.png","../images/blu_wht.png","../images/org_blu.png","../images/ylw_slt.png","../images/pnk_blu.png","../images/gry_blk.png","../images/cyn_red.png","../images/ylw_pnk.png"],"mutagen_generator_assignment":[0,1],"goal":7,"start":3,"action_noise":0.1,"location_history":"[3,7]","action_history":"[0]","mutagen_history":"[0]","location_rts":"[1370]","trial_type":"fractal-mutation","trial_index":99,"time_elapsed":5116028,"internal_node_id":"0.0-5.0-45.0"},{"group":"tri cycles (cube, non-group)","fractal_assignment":["../images/grn_red.png","../images/blu_wht.png","../images/org_blu.png","../images/ylw_slt.png","../images/pnk_blu.png","../images/gry_blk.png","../images/cyn_red.png","../images/ylw_pnk.png"],"mutagen_generator_assignment":[0,1],"goal":5,"start":7,"action_noise":0.1,"location_history":"[7,6,4,0,3,7,6,5]","action_history":"[0,0,1,1,0,0,1]","mutagen_history":"[0,0,1,1,0,0,1]","location_rts":"[152026,592,1794,471,1352,569,1841]","trial_type":"fractal-mutation","trial_index":100,"time_elapsed":5285619,"internal_node_id":"0.0-5.0-46.0"},{"group":"tri cycles (cube, non-group)","fractal_assignment":["../images/grn_red.png","../images/blu_wht.png","../images/org_blu.png","../images/ylw_slt.png","../images/pnk_blu.png","../images/gry_blk.png","../images/cyn_red.png","../images/ylw_pnk.png"],"mutagen_generator_assignment":[0,1],"goal":1,"start":5,"action_noise":0.1,"location_history":"[5,1]","action_history":"[0]","mutagen_history":"[0]","location_rts":"[1872]","trial_type":"fractal-mutation","trial_index":101,"time_elapsed":5292032,"internal_node_id":"0.0-5.0-47.0"},{"group":"tri cycles (cube, non-group)","fractal_assignment":["../images/grn_red.png","../images/blu_wht.png","../images/org_blu.png","../images/ylw_slt.png","../images/pnk_blu.png","../images/gry_blk.png","../images/cyn_red.png","../images/ylw_pnk.png"],"mutagen_generator_assignment":[0,1],"goal":6,"start":1,"action_noise":0.1,"location_history":"[1,0,2,1,5,2,6]","action_history":"[0,0,1,1,1,1]","mutagen_history":"[0,0,1,1,1,1]","location_rts":"[1968,639,1012,577,645,485]","trial_type":"fractal-mutation","trial_index":102,"time_elapsed":5307244,"internal_node_id":"0.0-5.0-48.0"},{"group":"tri cycles (cube, non-group)","fractal_assignment":["../images/grn_red.png","../images/blu_wht.png","../images/org_blu.png","../images/ylw_slt.png","../images/pnk_blu.png","../images/gry_blk.png","../images/cyn_red.png","../images/ylw_pnk.png"],"mutagen_generator_assignment":[0,1],"goal":0,"start":6,"action_noise":0.1,"location_history":"[6,4,7,6,4,7,6,5,1,5,1,5,2,6,4,7,6,4,7,3,4,0]","action_history":"[0,0,0,0,0,0,1,0,0,1,1,1,1,0,0,0,0,0,1,1,1]","mutagen_history":"[0,0,0,0,0,0,1,0,0,1,1,1,1,0,0,0,0,0,1,1,1]","location_rts":"[5289,681,17101,11021,596,2609,1547,5861,30945,1229,636,466,620,1287,2201,665,2462,657,1007,585,469]","trial_type":"fractal-mutation","trial_index":103,"time_elapsed":5420990,"internal_node_id":"0.0-5.0-49.0"},{"view_history":"[{\"page_index\":0,\"viewing_time\":18656}]","rt":18657,"trial_type":"instructions","trial_index":104,"time_elapsed":5440648,"internal_node_id":"0.0-6.0"},{"rt":5880,"responses":"{\"Q0\":\"no comments\"}","trial_type":"survey-text","trial_index":105,"time_elapsed":5447537,"internal_node_id":"0.0-7.0"}]