[{"view_history":"[{\"page_index\":0,\"viewing_time\":2442},{\"page_index\":1,\"viewing_time\":12620}]","rt":15064,"trial_type":"instructions","trial_index":0,"time_elapsed":15066,"internal_node_id":"0.0-0.0"},{"view_history":"[{\"page_index\":0,\"viewing_time\":5074},{\"page_index\":1,\"viewing_time\":3594}]","rt":8669,"trial_type":"instructions","trial_index":1,"time_elapsed":24739,"internal_node_id":"0.0-1.0"},{"group":"square cycles (cube, non-group)","room_assignment":["grey","pink","purple","green","red","blue","yellow","brown"],"door_color_assignment":["white","black"],"door_generator_assignment":[1,0],"goal":6,"start":3,"action_noise":0.1,"location_history":"[3,0,4,5,1,2,3,2,6]","action_history":"[0,1,1,1,0,0,0,1]","door_history":"[1,0,0,0,1,1,1,0]","location_rts":"[1490,3352,363,235,312,265,273,83]","trial_type":"two-door-navigation","trial_index":2,"time_elapsed":42857,"internal_node_id":"0.0-2.0-0.0"},{"group":"square cycles (cube, non-group)","room_assignment":["grey","pink","purple","green","red","blue","yellow","brown"],"door_color_assignment":["white","black"],"door_generator_assignment":[1,0],"goal":1,"start":6,"action_noise":0.1,"location_history":"[6,5,1]","action_history":"[0,1]","door_history":"[1,0]","location_rts":"[569,85]","trial_type":"two-door-navigation","trial_index":3,"time_elapsed":49071,"internal_node_id":"0.0-2.0-1.0"},{"group":"square cycles (cube, non-group)","room_assignment":["grey","pink","purple","green","red","blue","yellow","brown"],"door_color_assignment":["white","black"],"door_generator_assignment":[1,0],"goal":2,"start":1,"action_noise":0.1,"location_history":"[1,0,1,2]","action_history":"[1,0,0]","door_history":"[0,1,1]","location_rts":"[342,767,988]","trial_type":"two-door-navigation","trial_index":4,"time_elapsed":57758,"internal_node_id":"0.0-2.0-2.0"},{"group":"square cycles (cube, non-group)","room_assignment":["grey","pink","purple","green","red","blue","yellow","brown"],"door_color_assignment":["white","black"],"door_generator_assignment":[1,0],"goal":0,"start":2,"action_noise":0.1,"location_history":"[2,3,2,6,7,3,2,6,7,6,5,4,7,6,5,4,7,6,7,3,2,6,7,6,5,4,5,4,5,1,0]","action_history":"[0,1,1,1,1,1,1,1,0,0,0,0,0,0,0,0,0,1,1,1,1,1,0,0,0,0,0,1,1,1]","door_history":"[1,0,0,0,0,0,0,0,1,1,1,1,1,1,1,1,1,0,0,0,0,0,1,1,1,1,1,0,0,0]","location_rts":"[964,280,254,83,1567,882,510,424,948,460,608,372,380,483,593,347,365,383,297,710,159,651,1106,2370,731,706,400,903,240,407]","trial_type":"two-door-navigation","trial_index":5,"time_elapsed":110624,"internal_node_id":"0.0-2.0-3.0"},{"group":"square cycles (cube, non-group)","room_assignment":["grey","pink","purple","green","red","blue","yellow","brown"],"door_color_assignment":["white","black"],"door_generator_assignment":[1,0],"goal":7,"start":0,"action_noise":0.1,"location_history":"[0,4,7]","action_history":"[1,0]","door_history":"[0,1]","location_rts":"[467,324]","trial_type":"two-door-navigation","trial_index":6,"time_elapsed":116976,"internal_node_id":"0.0-2.0-4.0"},{"group":"square cycles (cube, non-group)","room_assignment":["grey","pink","purple","green","red","blue","yellow","brown"],"door_color_assignment":["white","black"],"door_generator_assignment":[1,0],"goal":5,"start":7,"action_noise":0.1,"location_history":"[7,6,7,6,5]","action_history":"[0,1,0,0]","door_history":"[1,0,1,1]","location_rts":"[461,1616,256,369]","trial_type":"two-door-navigation","trial_index":7,"time_elapsed":127287,"internal_node_id":"0.0-2.0-5.0"},{"group":"square cycles (cube, non-group)","room_assignment":["grey","pink","purple","green","red","blue","yellow","brown"],"door_color_assignment":["white","black"],"door_generator_assignment":[1,0],"goal":4,"start":5,"action_noise":0.1,"location_history":"[5,4]","action_history":"[0]","door_history":"[1]","location_rts":"[525]","trial_type":"two-door-navigation","trial_index":8,"time_elapsed":132343,"internal_node_id":"0.0-2.0-6.0"},{"group":"square cycles (cube, non-group)","room_assignment":["grey","pink","purple","green","red","blue","yellow","brown"],"door_color_assignment":["white","black"],"door_generator_assignment":[1,0],"goal":2,"start":4,"action_noise":0.1,"location_history":"[4,5,4,7,6,7,3,2]","action_history":"[1,0,0,0,1,1,1]","door_history":"[0,1,1,1,0,0,0]","location_rts":"[530,270,296,339,329,472,336]","trial_type":"two-door-navigation","trial_index":9,"time_elapsed":145614,"internal_node_id":"0.0-2.0-7.0"},{"group":"square cycles (cube, non-group)","room_assignment":["grey","pink","purple","green","red","blue","yellow","brown"],"door_color_assignment":["white","black"],"door_generator_assignment":[1,0],"goal":3,"start":2,"action_noise":0.1,"location_history":"[2,6,5,4,7,6,5,4,5,1,0,4,5,4,7,6,5,4,5,4,5,1,0,1,2,3]","action_history":"[1,0,0,0,0,0,1,1,1,1,1,0,0,1,0,0,0,1,0,1,1,1,0,0,0]","door_history":"[0,1,1,1,1,1,0,0,0,0,0,1,1,0,1,1,1,0,1,0,0,0,1,1,1]","location_rts":"[697,68,216,357,300,308,140,110,432,100,223,47,307,245,73,271,193,794,359,43,284,346,333,234,157]","trial_type":"two-door-navigation","trial_index":10,"time_elapsed":181416,"internal_node_id":"0.0-2.0-8.0"},{"group":"square cycles (cube, non-group)","room_assignment":["grey","pink","purple","green","red","blue","yellow","brown"],"door_color_assignment":["white","black"],"door_generator_assignment":[1,0],"goal":7,"start":3,"action_noise":0.1,"location_history":"[3,0,4,5,1,2,3,0,1,0,4,5,1,2,3,0,1,0,1,2,6,5,1,2,3,0,1,2,3,2,6,7]","action_history":"[0,1,1,1,0,0,0,0,1,1,1,1,0,0,1,0,1,0,0,1,0,1,0,0,0,0,0,0,1,1,1]","door_history":"[1,0,0,0,1,1,1,1,0,0,0,0,1,1,0,1,0,1,1,0,1,0,1,1,1,1,1,1,0,0,0]","location_rts":"[3443,14,215,250,238,252,103,579,316,105,44,223,421,213,538,12,422,107,0,972,293,592,307,772,2257,938,5566,30715,291,457,338]","trial_type":"two-door-navigation","trial_index":11,"time_elapsed":267763,"internal_node_id":"0.0-2.0-9.0"},{"group":"square cycles (cube, non-group)","room_assignment":["grey","pink","purple","green","red","blue","yellow","brown"],"door_color_assignment":["white","black"],"door_generator_assignment":[1,0],"goal":0,"start":7,"action_noise":0.1,"location_history":"[7,3,0]","action_history":"[1,0]","door_history":"[0,1]","location_rts":"[444,1580]","trial_type":"two-door-navigation","trial_index":12,"time_elapsed":275343,"internal_node_id":"0.0-2.0-10.0"},{"group":"square cycles (cube, non-group)","room_assignment":["grey","pink","purple","green","red","blue","yellow","brown"],"door_color_assignment":["white","black"],"door_generator_assignment":[1,0],"goal":1,"start":0,"action_noise":0.1,"location_history":"[0,1]","action_history":"[0]","door_history":"[1]","location_rts":"[25018]","trial_type":"two-door-navigation","trial_index":13,"time_elapsed":304892,"internal_node_id":"0.0-2.0-11.0"},{"group":"square cycles (cube, non-group)","room_assignment":["grey","pink","purple","green","red","blue","yellow","brown"],"door_color_assignment":["white","black"],"door_generator_assignment":[1,0],"goal":6,"start":1,"action_noise":0.1,"location_history":"[1,0,1,2,6]","action_history":"[1,0,0,0]","door_history":"[0,1,1,1]","location_rts":"[9943,103,294,1668]","trial_type":"two-door-navigation","trial_index":14,"time_elapsed":324513,"internal_node_id":"0.0-2.0-12.0"},{"group":"square cycles (cube, non-group)","room_assignment":["grey","pink","purple","green","red","blue","yellow","brown"],"door_color_assignment":["white","black"],"door_generator_assignment":[1,0],"goal":4,"start":6,"action_noise":0.1,"location_history":"[6,5,1,0,1,2,3,0,1,2,6,7,3,2,3,2,6,7,6,5,1,2,3,0,4]","action_history":"[0,1,1,0,0,0,0,0,0,1,1,1,1,1,1,1,0,0,0,1,0,0,0,1]","door_history":"[1,0,0,1,1,1,1,1,1,0,0,0,0,0,0,0,1,1,1,0,1,1,1,0]","location_rts":"[12517,485,227,55,203,283,270,72,259,312,273,81,223,585,197,336,565,675,298,80,377,97,360,248]","trial_type":"two-door-navigation","trial_index":15,"time_elapsed":371744,"internal_node_id":"0.0-2.0-13.0"},{"group":"square cycles (cube, non-group)","room_assignment":["grey","pink","purple","green","red","blue","yellow","brown"],"door_color_assignment":["white","black"],"door_generator_assignment":[1,0],"goal":5,"start":4,"action_noise":0.1,"location_history":"[4,5]","action_history":"[0]","door_history":"[1]","location_rts":"[3758]","trial_type":"two-door-navigation","trial_index":16,"time_elapsed":380037,"internal_node_id":"0.0-2.0-14.0"},{"group":"square cycles (cube, non-group)","room_assignment":["grey","pink","purple","green","red","blue","yellow","brown"],"door_color_assignment":["white","black"],"door_generator_assignment":[1,0],"goal":4,"start":5,"action_noise":0.1,"location_history":"[5,1,0,1,0,1,2,3,2,6,5,1,2,3,2,6,5,4]","action_history":"[1,1,0,1,0,0,0,1,1,0,0,0,0,0,1,0,0]","door_history":"[0,0,1,0,1,1,1,0,0,1,1,1,1,1,0,1,1]","location_rts":"[6710,828,2240,235,112,244,273,366,1032,267,1540,1361,978,2422,2484,9450,393]","trial_type":"two-door-navigation","trial_index":17,"time_elapsed":431928,"internal_node_id":"0.0-2.0-15.0"},{"group":"square cycles (cube, non-group)","room_assignment":["grey","pink","purple","green","red","blue","yellow","brown"],"door_color_assignment":["white","black"],"door_generator_assignment":[1,0],"goal":0,"start":4,"action_noise":0.1,"location_history":"[4,7,3,0]","action_history":"[1,1,0]","door_history":"[0,0,1]","location_rts":"[5417,1127,14580]","trial_type":"two-door-navigation","trial_index":18,"time_elapsed":459633,"internal_node_id":"0.0-2.0-16.0"},{"group":"square cycles (cube, non-group)","room_assignment":["grey","pink","purple","green","red","blue","yellow","brown"],"door_color_assignment":["white","black"],"door_generator_assignment":[1,0],"goal":7,"start":0,"action_noise":0.1,"location_history":"[0,1,2,3,2,3,2,6,7]","action_history":"[0,0,0,0,0,0,1,1]","door_history":"[1,1,1,1,1,1,0,0]","location_rts":"[828,729,524,665,1455,1024,76,821]","trial_type":"two-door-navigation","trial_index":19,"time_elapsed":477495,"internal_node_id":"0.0-2.0-17.0"},{"group":"square cycles (cube, non-group)","room_assignment":["grey","pink","purple","green","red","blue","yellow","brown"],"door_color_assignment":["white","black"],"door_generator_assignment":[1,0],"goal":2,"start":7,"action_noise":0.1,"location_history":"[7,6,5,1,2]","action_history":"[0,0,1,0]","door_history":"[1,1,0,1]","location_rts":"[934,405,474,329]","trial_type":"two-door-navigation","trial_index":20,"time_elapsed":487247,"internal_node_id":"0.0-2.0-18.0"},{"group":"square cycles (cube, non-group)","room_assignment":["grey","pink","purple","green","red","blue","yellow","brown"],"door_color_assignment":["white","black"],"door_generator_assignment":[1,0],"goal":1,"start":2,"action_noise":0.1,"location_history":"[2,6,5,1]","action_history":"[1,0,0]","door_history":"[0,1,1]","location_rts":"[562,134,318]","trial_type":"two-door-navigation","trial_index":21,"time_elapsed":494852,"internal_node_id":"0.0-2.0-19.0"},{"group":"square cycles (cube, non-group)","room_assignment":["grey","pink","purple","green","red","blue","yellow","brown"],"door_color_assignment":["white","black"],"door_generator_assignment":[1,0],"goal":3,"start":1,"action_noise":0.1,"location_history":"[1,2,6,5,4,7,3]","action_history":"[0,1,0,0,0,1]","door_history":"[1,0,1,1,1,0]","location_rts":"[473,239,336,888,514,452]","trial_type":"two-door-navigation","trial_index":22,"time_elapsed":507418,"internal_node_id":"0.0-2.0-20.0"},{"group":"square cycles (cube, non-group)","room_assignment":["grey","pink","purple","green","red","blue","yellow","brown"],"door_color_assignment":["white","black"],"door_generator_assignment":[1,0],"goal":6,"start":3,"action_noise":0.1,"location_history":"[3,2,3,2,6]","action_history":"[1,0,1,1]","door_history":"[0,1,0,0]","location_rts":"[554,306,620,1677]","trial_type":"two-door-navigation","trial_index":23,"time_elapsed":518184,"internal_node_id":"0.0-2.0-21.0"},{"group":"square cycles (cube, non-group)","room_assignment":["grey","pink","purple","green","red","blue","yellow","brown"],"door_color_assignment":["white","black"],"door_generator_assignment":[1,0],"goal":5,"start":6,"action_noise":0.1,"location_history":"[6,5]","action_history":"[0]","door_history":"[1]","location_rts":"[2352]","trial_type":"two-door-navigation","trial_index":24,"time_elapsed":525068,"internal_node_id":"0.0-2.0-22.0"},{"group":"square cycles (cube, non-group)","room_assignment":["grey","pink","purple","green","red","blue","yellow","brown"],"door_color_assignment":["white","black"],"door_generator_assignment":[1,0],"goal":3,"start":5,"action_noise":0.1,"location_history":"[5,4,5,1,0,1,2,3]","action_history":"[0,1,1,1,0,0,0]","door_history":"[1,0,0,0,1,1,1]","location_rts":"[609,199,293,317,99,252,16]","trial_type":"two-door-navigation","trial_index":25,"time_elapsed":537548,"internal_node_id":"0.0-2.0-23.0"},{"group":"square cycles (cube, non-group)","room_assignment":["grey","pink","purple","green","red","blue","yellow","brown"],"door_color_assignment":["white","black"],"door_generator_assignment":[1,0],"goal":0,"start":3,"action_noise":0.1,"location_history":"[3,0]","action_history":"[0]","door_history":"[1]","location_rts":"[918]","trial_type":"two-door-navigation","trial_index":26,"time_elapsed":542999,"internal_node_id":"0.0-2.0-24.0"},{"group":"square cycles (cube, non-group)","room_assignment":["grey","pink","purple","green","red","blue","yellow","brown"],"door_color_assignment":["white","black"],"door_generator_assignment":[1,0],"goal":7,"start":0,"action_noise":0.1,"location_history":"[0,4,7]","action_history":"[1,0]","door_history":"[0,1]","location_rts":"[598,54]","trial_type":"two-door-navigation","trial_index":27,"time_elapsed":549214,"internal_node_id":"0.0-2.0-25.0"},{"group":"square cycles (cube, non-group)","room_assignment":["grey","pink","purple","green","red","blue","yellow","brown"],"door_color_assignment":["white","black"],"door_generator_assignment":[1,0],"goal":2,"start":7,"action_noise":0.1,"location_history":"[7,6,7,6,5,1,0,1,2]","action_history":"[0,1,1,0,1,0,0,0]","door_history":"[1,0,0,1,0,1,1,1]","location_rts":"[1019,11,708,307,1670,734,1137,537]","trial_type":"two-door-navigation","trial_index":28,"time_elapsed":567061,"internal_node_id":"0.0-2.0-26.0"},{"group":"square cycles (cube, non-group)","room_assignment":["grey","pink","purple","green","red","blue","yellow","brown"],"door_color_assignment":["white","black"],"door_generator_assignment":[1,0],"goal":1,"start":2,"action_noise":0.1,"location_history":"[2,3,2,3,0,4,5,4,7,3,0,4,5,1]","action_history":"[0,1,0,1,1,1,0,0,1,0,1,1,0]","door_history":"[1,0,1,0,0,0,1,1,0,1,0,0,1]","location_rts":"[3142,670,1250,363,314,475,1613,369,405,924,476,531,456]","trial_type":"two-door-navigation","trial_index":29,"time_elapsed":594893,"internal_node_id":"0.0-2.0-27.0"},{"group":"square cycles (cube, non-group)","room_assignment":["grey","pink","purple","green","red","blue","yellow","brown"],"door_color_assignment":["white","black"],"door_generator_assignment":[1,0],"goal":5,"start":1,"action_noise":0.1,"location_history":"[1,0,1,0,1,2,3,2,6,7,6,5]","action_history":"[1,0,1,0,0,0,0,1,1,0,0]","door_history":"[0,1,0,1,1,1,1,0,0,1,1]","location_rts":"[433,1252,370,288,309,303,327,1070,328,298,423]","trial_type":"two-door-navigation","trial_index":30,"time_elapsed":615083,"internal_node_id":"0.0-2.0-28.0"},{"group":"square cycles (cube, non-group)","room_assignment":["grey","pink","purple","green","red","blue","yellow","brown"],"door_color_assignment":["white","black"],"door_generator_assignment":[1,0],"goal":4,"start":5,"action_noise":0.1,"location_history":"[5,4]","action_history":"[0]","door_history":"[1]","location_rts":"[2496]","trial_type":"two-door-navigation","trial_index":31,"time_elapsed":622109,"internal_node_id":"0.0-2.0-29.0"},{"group":"square cycles (cube, non-group)","room_assignment":["grey","pink","purple","green","red","blue","yellow","brown"],"door_color_assignment":["white","black"],"door_generator_assignment":[1,0],"goal":6,"start":4,"action_noise":0.1,"location_history":"[4,5,1,2,3,0,1,0,4,7,6]","action_history":"[1,1,0,0,0,0,0,1,0,0]","door_history":"[0,0,1,1,1,1,1,0,1,1]","location_rts":"[509,1349,496,2789,652,591,409,369,480,1613]","trial_type":"two-door-navigation","trial_index":32,"time_elapsed":645131,"internal_node_id":"0.0-2.0-30.0"},{"group":"square cycles (cube, non-group)","room_assignment":["grey","pink","purple","green","red","blue","yellow","brown"],"door_color_assignment":["white","black"],"door_generator_assignment":[1,0],"goal":4,"start":6,"action_noise":0.1,"location_history":"[6,7,3,2,6,7,6,5,1,2,3,0,1,0,1,0,1,2,6,5,4]","action_history":"[0,1,1,1,1,0,0,1,0,0,0,0,1,0,0,0,0,0,0,0]","door_history":"[1,0,0,0,0,1,1,0,1,1,1,1,0,1,1,1,1,1,1,1]","location_rts":"[1027,609,477,622,388,408,368,318,1034,620,605,359,694,280,269,61,399,465,594,620]","trial_type":"two-door-navigation","trial_index":33,"time_elapsed":679396,"internal_node_id":"0.0-2.0-31.0"},{"group":"square cycles (cube, non-group)","room_assignment":["grey","pink","purple","green","red","blue","yellow","brown"],"door_color_assignment":["white","black"],"door_generator_assignment":[1,0],"goal":2,"start":4,"action_noise":0.1,"location_history":"[4,5,1,2]","action_history":"[1,1,1]","door_history":"[0,0,0]","location_rts":"[2249,3377,423]","trial_type":"two-door-navigation","trial_index":34,"time_elapsed":692038,"internal_node_id":"0.0-2.0-32.0"},{"group":"square cycles (cube, non-group)","room_assignment":["grey","pink","purple","green","red","blue","yellow","brown"],"door_color_assignment":["white","black"],"door_generator_assignment":[1,0],"goal":0,"start":2,"action_noise":0.1,"location_history":"[2,3,0]","action_history":"[0,0]","door_history":"[1,1]","location_rts":"[445,305]","trial_type":"two-door-navigation","trial_index":35,"time_elapsed":698342,"internal_node_id":"0.0-2.0-33.0"},{"group":"square cycles (cube, non-group)","room_assignment":["grey","pink","purple","green","red","blue","yellow","brown"],"door_color_assignment":["white","black"],"door_generator_assignment":[1,0],"goal":5,"start":0,"action_noise":0.1,"location_history":"[0,1,0,1,2,3,0,1,0,1,2,3,2,3,0,1,2,3,2,3,2,3,0,4,7,3,0,4,5]","action_history":"[0,1,0,0,0,0,0,1,0,0,0,1,0,0,0,0,0,1,0,0,0,0,1,0,1,1,1,1]","door_history":"[1,0,1,1,1,1,1,0,1,1,1,0,1,1,1,1,1,0,1,1,1,1,0,1,0,0,0,0]","location_rts":"[1209,1338,465,495,306,377,506,246,972,918,692,519,1034,491,414,386,464,326,361,124,485,448,1452,862,679,420,326,2474]","trial_type":"two-door-navigation","trial_index":36,"time_elapsed":749377,"internal_node_id":"0.0-2.0-34.0"},{"group":"square cycles (cube, non-group)","room_assignment":["grey","pink","purple","green","red","blue","yellow","brown"],"door_color_assignment":["white","black"],"door_generator_assignment":[1,0],"goal":1,"start":5,"action_noise":0.1,"location_history":"[5,1]","action_history":"[1]","door_history":"[0]","location_rts":"[4139]","trial_type":"two-door-navigation","trial_index":37,"time_elapsed":758051,"internal_node_id":"0.0-2.0-35.0"},{"group":"square cycles (cube, non-group)","room_assignment":["grey","pink","purple","green","red","blue","yellow","brown"],"door_color_assignment":["white","black"],"door_generator_assignment":[1,0],"goal":7,"start":1,"action_noise":0.1,"location_history":"[1,0,1,0,4,5,4,5,1,0,4,7]","action_history":"[0,0,1,1,1,1,1,1,1,1,1]","door_history":"[1,1,0,0,0,0,0,0,0,0,0]","location_rts":"[1194,448,486,461,253,309,3168,670,1271,2490,1086]","trial_type":"two-door-navigation","trial_index":38,"time_elapsed":784707,"internal_node_id":"0.0-2.0-36.0"},{"group":"square cycles (cube, non-group)","room_assignment":["grey","pink","purple","green","red","blue","yellow","brown"],"door_color_assignment":["white","black"],"door_generator_assignment":[1,0],"goal":3,"start":7,"action_noise":0.1,"location_history":"[7,6,5,1,2,3]","action_history":"[0,0,1,0,0]","door_history":"[1,1,0,1,1]","location_rts":"[3430,613,666,412,195]","trial_type":"two-door-navigation","trial_index":39,"time_elapsed":798669,"internal_node_id":"0.0-2.0-37.0"},{"group":"square cycles (cube, non-group)","room_assignment":["grey","pink","purple","green","red","blue","yellow","brown"],"door_color_assignment":["white","black"],"door_generator_assignment":[1,0],"goal":6,"start":3,"action_noise":0.1,"location_history":"[3,0,4,7,6]","action_history":"[0,1,0,1]","door_history":"[1,0,1,0]","location_rts":"[537,337,208,188]","trial_type":"two-door-navigation","trial_index":40,"time_elapsed":807543,"internal_node_id":"0.0-2.0-38.0"},{"group":"square cycles (cube, non-group)","room_assignment":["grey","pink","purple","green","red","blue","yellow","brown"],"door_color_assignment":["white","black"],"door_generator_assignment":[1,0],"goal":2,"start":6,"action_noise":0.1,"location_history":"[6,7,6,7,3,0,1,2]","action_history":"[1,0,1,0,0,0,0]","door_history":"[0,1,0,1,1,1,1]","location_rts":"[1603,558,525,309,245,588,564]","trial_type":"two-door-navigation","trial_index":41,"time_elapsed":822614,"internal_node_id":"0.0-2.0-39.0"},{"group":"square cycles (cube, non-group)","room_assignment":["grey","pink","purple","green","red","blue","yellow","brown"],"door_color_assignment":["white","black"],"door_generator_assignment":[1,0],"goal":1,"start":2,"action_noise":0.1,"location_history":"[2,6,5,4,7,6,5,4,7,6,7,3,2,6,7,3,2,3,0,1]","action_history":"[1,0,1,0,0,0,0,1,0,1,1,1,1,1,1,1,0,0,1]","door_history":"[0,1,0,1,1,1,1,0,1,0,0,0,0,0,0,0,1,1,0]","location_rts":"[2350,423,1092,165,280,323,502,1112,420,497,590,456,655,1024,638,320,787,408,431]","trial_type":"two-door-navigation","trial_index":42,"time_elapsed":858083,"internal_node_id":"0.0-2.0-40.0"},{"group":"square cycles (cube, non-group)","room_assignment":["grey","pink","purple","green","red","blue","yellow","brown"],"door_color_assignment":["white","black"],"door_generator_assignment":[1,0],"goal":0,"start":1,"action_noise":0.1,"location_history":"[1,0]","action_history":"[1]","door_history":"[0]","location_rts":"[3894]","trial_type":"two-door-navigation","trial_index":43,"time_elapsed":866507,"internal_node_id":"0.0-2.0-41.0"},{"group":"square cycles (cube, non-group)","room_assignment":["grey","pink","purple","green","red","blue","yellow","brown"],"door_color_assignment":["white","black"],"door_generator_assignment":[1,0],"goal":4,"start":0,"action_noise":0.1,"location_history":"[0,1,0,1,2,3,2,3,0,4]","action_history":"[0,1,0,0,0,1,0,0,1]","door_history":"[1,0,1,1,1,0,1,1,0]","location_rts":"[767,223,228,211,408,337,257,220,313]","trial_type":"two-door-navigation","trial_index":44,"time_elapsed":882212,"internal_node_id":"0.0-2.0-42.0"},{"group":"square cycles (cube, non-group)","room_assignment":["grey","pink","purple","green","red","blue","yellow","brown"],"door_color_assignment":["white","black"],"door_generator_assignment":[1,0],"goal":6,"start":4,"action_noise":0.1,"location_history":"[4,7,3,2,6]","action_history":"[0,1,1,1]","door_history":"[1,0,0,0]","location_rts":"[848,523,785,24]","trial_type":"two-door-navigation","trial_index":45,"time_elapsed":892002,"internal_node_id":"0.0-2.0-43.0"},{"group":"square cycles (cube, non-group)","room_assignment":["grey","pink","purple","green","red","blue","yellow","brown"],"door_color_assignment":["white","black"],"door_generator_assignment":[1,0],"goal":3,"start":6,"action_noise":0.1,"location_history":"[6,5,1,0,1,2,3]","action_history":"[0,1,1,0,0,0]","door_history":"[1,0,0,1,1,1]","location_rts":"[493,475,207,224,494,413]","trial_type":"two-door-navigation","trial_index":46,"time_elapsed":903974,"internal_node_id":"0.0-2.0-44.0"},{"group":"square cycles (cube, non-group)","room_assignment":["grey","pink","purple","green","red","blue","yellow","brown"],"door_color_assignment":["white","black"],"door_generator_assignment":[1,0],"goal":7,"start":3,"action_noise":0.1,"location_history":"[3,0,1,0,4,5,1,2,3,2,6,5,4,7]","action_history":"[0,0,1,1,1,1,0,0,0,0,0,0,0]","door_history":"[1,1,0,0,0,0,1,1,1,1,1,1,1]","location_rts":"[11987,776,265,255,190,457,339,225,126,94,83,139,178]","trial_type":"two-door-navigation","trial_index":47,"time_elapsed":935926,"internal_node_id":"0.0-2.0-45.0"},{"group":"square cycles (cube, non-group)","room_assignment":["grey","pink","purple","green","red","blue","yellow","brown"],"door_color_assignment":["white","black"],"door_generator_assignment":[1,0],"goal":5,"start":7,"action_noise":0.1,"location_history":"[7,6,5]","action_history":"[0,0]","door_history":"[1,1]","location_rts":"[5592,270]","trial_type":"two-door-navigation","trial_index":48,"time_elapsed":947348,"internal_node_id":"0.0-2.0-46.0"},{"group":"square cycles (cube, non-group)","room_assignment":["grey","pink","purple","green","red","blue","yellow","brown"],"door_color_assignment":["white","black"],"door_generator_assignment":[1,0],"goal":1,"start":5,"action_noise":0.1,"location_history":"[5,1]","action_history":"[0]","door_history":"[1]","location_rts":"[1832]","trial_type":"two-door-navigation","trial_index":49,"time_elapsed":953714,"internal_node_id":"0.0-2.0-47.0"},{"group":"square cycles (cube, non-group)","room_assignment":["grey","pink","purple","green","red","blue","yellow","brown"],"door_color_assignment":["white","black"],"door_generator_assignment":[1,0],"goal":6,"start":1,"action_noise":0.1,"location_history":"[1,0,1,2,3,0,1,2,3,0,1,2,3,2,3,2,3,0,4,7,3,0,1,0,4,7,3,0,4,7,3,0,1,0,1,2,6]","action_history":"[1,0,0,0,0,0,0,0,0,0,0,0,1,1,1,0,0,0,0,1,0,0,1,1,0,1,0,1,0,1,0,0,1,0,0,1]","door_history":"[0,1,1,1,1,1,1,1,1,1,1,1,0,0,0,1,1,1,1,0,1,1,0,0,1,0,1,0,1,0,1,1,0,1,1,0]","location_rts":"[9615,337,406,622,377,855,524,653,1045,693,984,531,1173,687,853,290,208,532,432,311,667,378,727,624,608,681,392,495,292,510,464,615,403,339,242,572]","trial_type":"two-door-navigation","trial_index":50,"time_elapsed":1023322,"internal_node_id":"0.0-2.0-48.0"},{"group":"square cycles (cube, non-group)","room_assignment":["grey","pink","purple","green","red","blue","yellow","brown"],"door_color_assignment":["white","black"],"door_generator_assignment":[1,0],"goal":0,"start":6,"action_noise":0.1,"location_history":"[6,5,1,0]","action_history":"[0,1,1]","door_history":"[1,0,0]","location_rts":"[1215,446,274]","trial_type":"two-door-navigation","trial_index":51,"time_elapsed":1031841,"internal_node_id":"0.0-2.0-49.0"},{"view_history":"[{\"page_index\":0,\"viewing_time\":3602}]","rt":3603,"trial_type":"instructions","trial_index":52,"time_elapsed":1036446,"internal_node_id":"0.0-3.0"},{"view_history":"[{\"page_index\":0,\"viewing_time\":2442},{\"page_index\":1,\"viewing_time\":4333}]","rt":6776,"trial_type":"instructions","trial_index":53,"time_elapsed":1044222,"internal_node_id":"0.0-4.0"},{"group":"square cycles (cube, non-group)","fractal_assignment":["../images/cyn_red.png","../images/gry_blk.png","../images/ylw_pnk.png","../images/blu_wht.png","../images/grn_red.png","../images/ylw_slt.png","../images/org_blu.png","../images/pnk_blu.png"],"mutagen_generator_assignment":[0,1],"goal":6,"start":3,"action_noise":0.1,"location_history":"[3,0,4,5,4,7,3,2,6]","action_history":"[0,1,1,0,0,1,1,1]","mutagen_history":"[0,1,1,0,0,1,1,1]","location_rts":"[13228,79,374,202,271,123,64,101]","trial_type":"fractal-mutation","trial_index":54,"time_elapsed":1070649,"internal_node_id":"0.0-5.0-0.0"},{"group":"square cycles (cube, non-group)","fractal_assignment":["../images/cyn_red.png","../images/gry_blk.png","../images/ylw_pnk.png","../images/blu_wht.png","../images/grn_red.png","../images/ylw_slt.png","../images/org_blu.png","../images/pnk_blu.png"],"mutagen_generator_assignment":[0,1],"goal":1,"start":6,"action_noise":0.1,"location_history":"[6,7,6,5,1]","action_history":"[1,0,0,1]","mutagen_history":"[1,0,0,1]","location_rts":"[15921,697,480,497]","trial_type":"fractal-mutation","trial_index":55,"time_elapsed":1095981,"internal_node_id":"0.0-5.0-1.0"},{"group":"square cycles (cube, non-group)","fractal_assignment":["../images/cyn_red.png","../images/gry_blk.png","../images/ylw_pnk.png","../images/blu_wht.png","../images/grn_red.png","../images/ylw_slt.png","../images/org_blu.png","../images/pnk_blu.png"],"mutagen_generator_assignment":[0,1],"goal":2,"start":1,"action_noise":0.1,"location_history":"[1,0,4,7,6,7,3,2]","action_history":"[1,0,0,0,1,1,1]","mutagen_history":"[1,0,0,0,1,1,1]","location_rts":"[4442,241,348,119,30,166,1538]","trial_type":"fractal-mutation","trial_index":56,"time_elapsed":1113987,"internal_node_id":"0.0-5.0-2.0"},{"group":"square cycles (cube, non-group)","fractal_assignment":["../images/cyn_red.png","../images/gry_blk.png","../images/ylw_pnk.png","../images/blu_wht.png","../images/grn_red.png","../images/ylw_slt.png","../images/org_blu.png","../images/pnk_blu.png"],"mutagen_generator_assignment":[0,1],"goal":0,"start":2,"action_noise":0.1,"location_history":"[2,3,2,3,2,6,5,4,7,6,7,6,7,3,0]","action_history":"[0,1,1,1,1,0,0,0,0,0,0,1,1,0]","mutagen_history":"[0,1,1,1,1,0,0,0,0,0,0,1,1,0]","location_rts":"[1361,268,263,729,340,1736,267,185,341,288,395,209,314,125]","trial_type":"fractal-mutation","trial_index":57,"time_elapsed":1139320,"internal_node_id":"0.0-5.0-3.0"},{"group":"square cycles (cube, non-group)","fractal_assignment":["../images/cyn_red.png","../images/gry_blk.png","../images/ylw_pnk.png","../images/blu_wht.png","../images/grn_red.png","../images/ylw_slt.png","../images/org_blu.png","../images/pnk_blu.png"],"mutagen_generator_assignment":[0,1],"goal":7,"start":0,"action_noise":0.1,"location_history":"[0,1,2,6,7]","action_history":"[0,0,1,1]","mutagen_history":"[0,0,1,1]","location_rts":"[512,427,407,232]","trial_type":"fractal-mutation","trial_index":58,"time_elapsed":1148667,"internal_node_id":"0.0-5.0-4.0"},{"group":"square cycles (cube, non-group)","fractal_assignment":["../images/cyn_red.png","../images/gry_blk.png","../images/ylw_pnk.png","../images/blu_wht.png","../images/grn_red.png","../images/ylw_slt.png","../images/org_blu.png","../images/pnk_blu.png"],"mutagen_generator_assignment":[0,1],"goal":5,"start":7,"action_noise":0.1,"location_history":"[7,6,7,6,7,6,7,3,0,4,7,3,0,4,5]","action_history":"[0,0,0,1,0,1,1,1,1,0,1,0,1,1]","mutagen_history":"[0,0,0,1,0,1,1,1,1,0,1,0,1,1]","location_rts":"[360,160,391,1396,1013,520,313,360,341,336,317,312,284,110]","trial_type":"fractal-mutation","trial_index":59,"time_elapsed":1173420,"internal_node_id":"0.0-5.0-5.0"},{"group":"square cycles (cube, non-group)","fractal_assignment":["../images/cyn_red.png","../images/gry_blk.png","../images/ylw_pnk.png","../images/blu_wht.png","../images/grn_red.png","../images/ylw_slt.png","../images/org_blu.png","../images/pnk_blu.png"],"mutagen_generator_assignment":[0,1],"goal":4,"start":5,"action_noise":0.1,"location_history":"[5,4]","action_history":"[0]","mutagen_history":"[0]","location_rts":"[331]","trial_type":"fractal-mutation","trial_index":60,"time_elapsed":1178323,"internal_node_id":"0.0-5.0-6.0"},{"group":"square cycles (cube, non-group)","fractal_assignment":["../images/cyn_red.png","../images/gry_blk.png","../images/ylw_pnk.png","../images/blu_wht.png","../images/grn_red.png","../images/ylw_slt.png","../images/org_blu.png","../images/pnk_blu.png"],"mutagen_generator_assignment":[0,1],"goal":2,"start":4,"action_noise":0.1,"location_history":"[4,5,4,5,4,7,6,5,4,7,3,2]","action_history":"[1,1,1,1,0,0,0,0,1,1,1]","mutagen_history":"[1,1,1,1,0,0,0,0,1,1,1]","location_rts":"[1028,195,343,309,59,96,91,104,1201,338,930]","trial_type":"fractal-mutation","trial_index":61,"time_elapsed":1198319,"internal_node_id":"0.0-5.0-7.0"},{"group":"square cycles (cube, non-group)","fractal_assignment":["../images/cyn_red.png","../images/gry_blk.png","../images/ylw_pnk.png","../images/blu_wht.png","../images/grn_red.png","../images/ylw_slt.png","../images/org_blu.png","../images/pnk_blu.png"],"mutagen_generator_assignment":[0,1],"goal":3,"start":2,"action_noise":0.1,"location_history":"[2,3]","action_history":"[0]","mutagen_history":"[0]","location_rts":"[401]","trial_type":"fractal-mutation","trial_index":62,"time_elapsed":1203286,"internal_node_id":"0.0-5.0-8.0"},{"group":"square cycles (cube, non-group)","fractal_assignment":["../images/cyn_red.png","../images/gry_blk.png","../images/ylw_pnk.png","../images/blu_wht.png","../images/grn_red.png","../images/ylw_slt.png","../images/org_blu.png","../images/pnk_blu.png"],"mutagen_generator_assignment":[0,1],"goal":7,"start":3,"action_noise":0.1,"location_history":"[3,2,6,7]","action_history":"[1,1,1]","mutagen_history":"[1,1,1]","location_rts":"[371,355,135]","trial_type":"fractal-mutation","trial_index":63,"time_elapsed":1210917,"internal_node_id":"0.0-5.0-9.0"},{"group":"square cycles (cube, non-group)","fractal_assignment":["../images/cyn_red.png","../images/gry_blk.png","../images/ylw_pnk.png","../images/blu_wht.png","../images/grn_red.png","../images/ylw_slt.png","../images/org_blu.png","../images/pnk_blu.png"],"mutagen_generator_assignment":[0,1],"goal":0,"start":7,"action_noise":0.1,"location_history":"[7,6,5,1,0]","action_history":"[0,0,1,1]","mutagen_history":"[0,0,1,1]","location_rts":"[829,84,271,249]","trial_type":"fractal-mutation","trial_index":64,"time_elapsed":1220148,"internal_node_id":"0.0-5.0-10.0"},{"group":"square cycles (cube, non-group)","fractal_assignment":["../images/cyn_red.png","../images/gry_blk.png","../images/ylw_pnk.png","../images/blu_wht.png","../images/grn_red.png","../images/ylw_slt.png","../images/org_blu.png","../images/pnk_blu.png"],"mutagen_generator_assignment":[0,1],"goal":1,"start":0,"action_noise":0.1,"location_history":"[0,1]","action_history":"[0]","mutagen_history":"[0]","location_rts":"[345]","trial_type":"fractal-mutation","trial_index":65,"time_elapsed":1225063,"internal_node_id":"0.0-5.0-11.0"},{"group":"square cycles (cube, non-group)","fractal_assignment":["../images/cyn_red.png","../images/gry_blk.png","../images/ylw_pnk.png","../images/blu_wht.png","../images/grn_red.png","../images/ylw_slt.png","../images/org_blu.png","../images/pnk_blu.png"],"mutagen_generator_assignment":[0,1],"goal":6,"start":1,"action_noise":0.1,"location_history":"[1,0,4,5,4,7,6]","action_history":"[1,1,1,1,0,0]","mutagen_history":"[1,1,1,1,0,0]","location_rts":"[724,352,504,893,498,121]","trial_type":"fractal-mutation","trial_index":66,"time_elapsed":1238118,"internal_node_id":"0.0-5.0-12.0"},{"group":"square cycles (cube, non-group)","fractal_assignment":["../images/cyn_red.png","../images/gry_blk.png","../images/ylw_pnk.png","../images/blu_wht.png","../images/grn_red.png","../images/ylw_slt.png","../images/org_blu.png","../images/pnk_blu.png"],"mutagen_generator_assignment":[0,1],"goal":4,"start":6,"action_noise":0.1,"location_history":"[6,7,6,5,4]","action_history":"[1,0,0,0]","mutagen_history":"[1,0,0,0]","location_rts":"[503,141,240,37]","trial_type":"fractal-mutation","trial_index":67,"time_elapsed":1246847,"internal_node_id":"0.0-5.0-13.0"},{"group":"square cycles (cube, non-group)","fractal_assignment":["../images/cyn_red.png","../images/gry_blk.png","../images/ylw_pnk.png","../images/blu_wht.png","../images/grn_red.png","../images/ylw_slt.png","../images/org_blu.png","../images/pnk_blu.png"],"mutagen_generator_assignment":[0,1],"goal":5,"start":4,"action_noise":0.1,"location_history":"[4,5]","action_history":"[1]","mutagen_history":"[1]","location_rts":"[470]","trial_type":"fractal-mutation","trial_index":68,"time_elapsed":1251916,"internal_node_id":"0.0-5.0-14.0"},{"group":"square cycles (cube, non-group)","fractal_assignment":["../images/cyn_red.png","../images/gry_blk.png","../images/ylw_pnk.png","../images/blu_wht.png","../images/grn_red.png","../images/ylw_slt.png","../images/org_blu.png","../images/pnk_blu.png"],"mutagen_generator_assignment":[0,1],"goal":4,"start":5,"action_noise":0.1,"location_history":"[5,1,0,4]","action_history":"[0,1,1]","mutagen_history":"[0,1,1]","location_rts":"[489,1073,208]","trial_type":"fractal-mutation","trial_index":69,"time_elapsed":1260414,"internal_node_id":"0.0-5.0-15.0"},{"group":"square cycles (cube, non-group)","fractal_assignment":["../images/cyn_red.png","../images/gry_blk.png","../images/ylw_pnk.png","../images/blu_wht.png","../images/grn_red.png","../images/ylw_slt.png","../images/org_blu.png","../images/pnk_blu.png"],"mutagen_generator_assignment":[0,1],"goal":0,"start":4,"action_noise":0.1,"location_history":"[4,7,6,7,3,2,3,0]","action_history":"[0,0,1,1,1,0,0]","mutagen_history":"[0,0,1,1,1,0,0]","location_rts":"[540,380,334,229,180,158,103]","trial_type":"fractal-mutation","trial_index":70,"time_elapsed":1273363,"internal_node_id":"0.0-5.0-16.0"},{"group":"square cycles (cube, non-group)","fractal_assignment":["../images/cyn_red.png","../images/gry_blk.png","../images/ylw_pnk.png","../images/blu_wht.png","../images/grn_red.png","../images/ylw_slt.png","../images/org_blu.png","../images/pnk_blu.png"],"mutagen_generator_assignment":[0,1],"goal":7,"start":0,"action_noise":0.1,"location_history":"[0,1,0,1,0,4,7]","action_history":"[1,1,1,1,1,0]","mutagen_history":"[1,1,1,1,1,0]","location_rts":"[284,236,291,493,286,134]","trial_type":"fractal-mutation","trial_index":71,"time_elapsed":1285108,"internal_node_id":"0.0-5.0-17.0"},{"group":"square cycles (cube, non-group)","fractal_assignment":["../images/cyn_red.png","../images/gry_blk.png","../images/ylw_pnk.png","../images/blu_wht.png","../images/grn_red.png","../images/ylw_slt.png","../images/org_blu.png","../images/pnk_blu.png"],"mutagen_generator_assignment":[0,1],"goal":2,"start":7,"action_noise":0.1,"location_history":"[7,3,0,1,2]","action_history":"[1,0,0,0]","mutagen_history":"[1,0,0,0]","location_rts":"[317,234,704,356]","trial_type":"fractal-mutation","trial_index":72,"time_elapsed":1294486,"internal_node_id":"0.0-5.0-18.0"},{"group":"square cycles (cube, non-group)","fractal_assignment":["../images/cyn_red.png","../images/gry_blk.png","../images/ylw_pnk.png","../images/blu_wht.png","../images/grn_red.png","../images/ylw_slt.png","../images/org_blu.png","../images/pnk_blu.png"],"mutagen_generator_assignment":[0,1],"goal":1,"start":2,"action_noise":0.1,"location_history":"[2,6,5,4,7,6,7,3,0,4,5,1]","action_history":"[1,0,0,0,0,1,1,0,1,1,1]","mutagen_history":"[1,0,0,0,0,1,1,0,1,1,1]","location_rts":"[282,358,670,339,295,291,591,371,455,203,891]","trial_type":"fractal-mutation","trial_index":73,"time_elapsed":1314530,"internal_node_id":"0.0-5.0-19.0"},{"group":"square cycles (cube, non-group)","fractal_assignment":["../images/cyn_red.png","../images/gry_blk.png","../images/ylw_pnk.png","../images/blu_wht.png","../images/grn_red.png","../images/ylw_slt.png","../images/org_blu.png","../images/pnk_blu.png"],"mutagen_generator_assignment":[0,1],"goal":3,"start":1,"action_noise":0.1,"location_history":"[1,0,4,7,3]","action_history":"[1,0,0,0]","mutagen_history":"[1,0,0,0]","location_rts":"[541,254,323,302]","trial_type":"fractal-mutation","trial_index":74,"time_elapsed":1323716,"internal_node_id":"0.0-5.0-20.0"},{"group":"square cycles (cube, non-group)","fractal_assignment":["../images/cyn_red.png","../images/gry_blk.png","../images/ylw_pnk.png","../images/blu_wht.png","../images/grn_red.png","../images/ylw_slt.png","../images/org_blu.png","../images/pnk_blu.png"],"mutagen_generator_assignment":[0,1],"goal":6,"start":3,"action_noise":0.1,"location_history":"[3,0,1,0,4,5,1,2,3,0,1,0,4,5,1,0,1,2,6]","action_history":"[0,0,1,1,1,1,0,0,0,0,1,1,1,1,1,0,0,0]","mutagen_history":"[0,0,1,1,1,1,0,0,0,0,1,1,1,1,1,0,0,0]","location_rts":"[976,384,374,334,221,91,308,475,653,169,358,452,289,597,106,123,315,163]","trial_type":"fractal-mutation","trial_index":75,"time_elapsed":1352975,"internal_node_id":"0.0-5.0-21.0"},{"group":"square cycles (cube, non-group)","fractal_assignment":["../images/cyn_red.png","../images/gry_blk.png","../images/ylw_pnk.png","../images/blu_wht.png","../images/grn_red.png","../images/ylw_slt.png","../images/org_blu.png","../images/pnk_blu.png"],"mutagen_generator_assignment":[0,1],"goal":5,"start":6,"action_noise":0.1,"location_history":"[6,7,3,0,1,0,4,7,6,5]","action_history":"[1,1,0,0,1,1,1,1,0]","mutagen_history":"[1,1,0,0,1,1,1,1,0]","location_rts":"[497,167,220,262,288,336,169,109,186]","trial_type":"fractal-mutation","trial_index":76,"time_elapsed":1368421,"internal_node_id":"0.0-5.0-22.0"},{"group":"square cycles (cube, non-group)","fractal_assignment":["../images/cyn_red.png","../images/gry_blk.png","../images/ylw_pnk.png","../images/blu_wht.png","../images/grn_red.png","../images/ylw_slt.png","../images/org_blu.png","../images/pnk_blu.png"],"mutagen_generator_assignment":[0,1],"goal":3,"start":5,"action_noise":0.1,"location_history":"[5,1,2,3]","action_history":"[1,0,0]","mutagen_history":"[1,0,0]","location_rts":"[94,262,68]","trial_type":"fractal-mutation","trial_index":77,"time_elapsed":1375537,"internal_node_id":"0.0-5.0-23.0"},{"group":"square cycles (cube, non-group)","fractal_assignment":["../images/cyn_red.png","../images/gry_blk.png","../images/ylw_pnk.png","../images/blu_wht.png","../images/grn_red.png","../images/ylw_slt.png","../images/org_blu.png","../images/pnk_blu.png"],"mutagen_generator_assignment":[0,1],"goal":0,"start":3,"action_noise":0.1,"location_history":"[3,2,3,0]","action_history":"[1,0,0]","mutagen_history":"[1,0,0]","location_rts":"[402,1283,27]","trial_type":"fractal-mutation","trial_index":78,"time_elapsed":1383955,"internal_node_id":"0.0-5.0-24.0"},{"group":"square cycles (cube, non-group)","fractal_assignment":["../images/cyn_red.png","../images/gry_blk.png","../images/ylw_pnk.png","../images/blu_wht.png","../images/grn_red.png","../images/ylw_slt.png","../images/org_blu.png","../images/pnk_blu.png"],"mutagen_generator_assignment":[0,1],"goal":7,"start":0,"action_noise":0.1,"location_history":"[0,4,5,1,0,1,2,3,2,6,7]","action_history":"[0,1,1,1,0,0,0,0,1,1]","mutagen_history":"[0,1,1,1,0,0,0,0,1,1]","location_rts":"[383,172,88,380,110,12,232,198,36,21]","trial_type":"fractal-mutation","trial_index":79,"time_elapsed":1399800,"internal_node_id":"0.0-5.0-25.0"},{"group":"square cycles (cube, non-group)","fractal_assignment":["../images/cyn_red.png","../images/gry_blk.png","../images/ylw_pnk.png","../images/blu_wht.png","../images/grn_red.png","../images/ylw_slt.png","../images/org_blu.png","../images/pnk_blu.png"],"mutagen_generator_assignment":[0,1],"goal":2,"start":7,"action_noise":0.1,"location_history":"[7,6,5,1,0,4,7,6,5,4,5,1,2]","action_history":"[0,0,1,1,1,0,0,0,0,1,1,1]","mutagen_history":"[0,0,1,1,1,0,0,0,0,1,1,1]","location_rts":"[37,196,1050,17,255,1145,189,71,79,130,34,661]","trial_type":"fractal-mutation","trial_index":80,"time_elapsed":1420021,"internal_node_id":"0.0-5.0-26.0"},{"group":"square cycles (cube, non-group)","fractal_assignment":["../images/cyn_red.png","../images/gry_blk.png","../images/ylw_pnk.png","../images/blu_wht.png","../images/grn_red.png","../images/ylw_slt.png","../images/org_blu.png","../images/pnk_blu.png"],"mutagen_generator_assignment":[0,1],"goal":1,"start":2,"action_noise":0.1,"location_history":"[2,3,0,4,5,1]","action_history":"[0,0,1,1,1]","mutagen_history":"[0,0,1,1,1]","location_rts":"[425,903,312,59,1050]","trial_type":"fractal-mutation","trial_index":81,"time_elapsed":1431643,"internal_node_id":"0.0-5.0-27.0"},{"group":"square cycles (cube, non-group)","fractal_assignment":["../images/cyn_red.png","../images/gry_blk.png","../images/ylw_pnk.png","../images/blu_wht.png","../images/grn_red.png","../images/ylw_slt.png","../images/org_blu.png","../images/pnk_blu.png"],"mutagen_generator_assignment":[0,1],"goal":5,"start":1,"action_noise":0.1,"location_history":"[1,2,3,0,1,2,6,7,3,0,4,5]","action_history":"[0,0,0,0,1,1,1,1,0,1,1]","mutagen_history":"[0,0,0,0,1,1,1,1,0,1,1]","location_rts":"[479,113,1433,248,111,56,1295,890,274,12,157]","trial_type":"fractal-mutation","trial_index":82,"time_elapsed":1452054,"internal_node_id":"0.0-5.0-28.0"},{"group":"square cycles (cube, non-group)","fractal_assignment":["../images/cyn_red.png","../images/gry_blk.png","../images/ylw_pnk.png","../images/blu_wht.png","../images/grn_red.png","../images/ylw_slt.png","../images/org_blu.png","../images/pnk_blu.png"],"mutagen_generator_assignment":[0,1],"goal":4,"start":5,"action_noise":0.1,"location_history":"[5,1,0,4]","action_history":"[1,1,1]","mutagen_history":"[1,1,1]","location_rts":"[220,191,125]","trial_type":"fractal-mutation","trial_index":83,"time_elapsed":1459353,"internal_node_id":"0.0-5.0-29.0"},{"group":"square cycles (cube, non-group)","fractal_assignment":["../images/cyn_red.png","../images/gry_blk.png","../images/ylw_pnk.png","../images/blu_wht.png","../images/grn_red.png","../images/ylw_slt.png","../images/org_blu.png","../images/pnk_blu.png"],"mutagen_generator_assignment":[0,1],"goal":6,"start":4,"action_noise":0.1,"location_history":"[4,7,6]","action_history":"[0,0]","mutagen_history":"[0,0]","location_rts":"[16,136]","trial_type":"fractal-mutation","trial_index":84,"time_elapsed":1465137,"internal_node_id":"0.0-5.0-30.0"},{"group":"square cycles (cube, non-group)","fractal_assignment":["../images/cyn_red.png","../images/gry_blk.png","../images/ylw_pnk.png","../images/blu_wht.png","../images/grn_red.png","../images/ylw_slt.png","../images/org_blu.png","../images/pnk_blu.png"],"mutagen_generator_assignment":[0,1],"goal":4,"start":6,"action_noise":0.1,"location_history":"[6,5,1,2,3,2,6,7,6,5,4]","action_history":"[1,1,0,0,1,1,1,0,0,0]","mutagen_history":"[1,1,0,0,1,1,1,0,0,0]","location_rts":"[887,204,366,135,373,63,27,204,155,2]","trial_type":"fractal-mutation","trial_index":85,"time_elapsed":1481778,"internal_node_id":"0.0-5.0-31.0"},{"group":"square cycles (cube, non-group)","fractal_assignment":["../images/cyn_red.png","../images/gry_blk.png","../images/ylw_pnk.png","../images/blu_wht.png","../images/grn_red.png","../images/ylw_slt.png","../images/org_blu.png","../images/pnk_blu.png"],"mutagen_generator_assignment":[0,1],"goal":2,"start":4,"action_noise":0.1,"location_history":"[4,5,1,2]","action_history":"[1,1,0]","mutagen_history":"[1,1,0]","location_rts":"[288,1113,257]","trial_type":"fractal-mutation","trial_index":86,"time_elapsed":1490178,"internal_node_id":"0.0-5.0-32.0"},{"group":"square cycles (cube, non-group)","fractal_assignment":["../images/cyn_red.png","../images/gry_blk.png","../images/ylw_pnk.png","../images/blu_wht.png","../images/grn_red.png","../images/ylw_slt.png","../images/org_blu.png","../images/pnk_blu.png"],"mutagen_generator_assignment":[0,1],"goal":0,"start":2,"action_noise":0.1,"location_history":"[2,6,5,4,7,3,2,3,2,6,7,3,0]","action_history":"[1,0,0,0,1,0,0,1,1,1,1,0]","mutagen_history":"[1,0,0,0,1,0,0,1,1,1,1,0]","location_rts":"[440,918,39,1304,1295,730,309,424,722,112,6,455]","trial_type":"fractal-mutation","trial_index":87,"time_elapsed":1513170,"internal_node_id":"0.0-5.0-33.0"},{"group":"square cycles (cube, non-group)","fractal_assignment":["../images/cyn_red.png","../images/gry_blk.png","../images/ylw_pnk.png","../images/blu_wht.png","../images/grn_red.png","../images/ylw_slt.png","../images/org_blu.png","../images/pnk_blu.png"],"mutagen_generator_assignment":[0,1],"goal":5,"start":0,"action_noise":0.1,"location_history":"[0,1,0,4,5]","action_history":"[0,1,1,0]","mutagen_history":"[0,1,1,0]","location_rts":"[1761,543,23,586]","trial_type":"fractal-mutation","trial_index":88,"time_elapsed":1523822,"internal_node_id":"0.0-5.0-34.0"},{"group":"square cycles (cube, non-group)","fractal_assignment":["../images/cyn_red.png","../images/gry_blk.png","../images/ylw_pnk.png","../images/blu_wht.png","../images/grn_red.png","../images/ylw_slt.png","../images/org_blu.png","../images/pnk_blu.png"],"mutagen_generator_assignment":[0,1],"goal":1,"start":5,"action_noise":0.1,"location_history":"[5,4,7,6,5,4,5,1]","action_history":"[1,0,0,0,1,1,1]","mutagen_history":"[1,0,0,0,1,1,1]","location_rts":"[394,1078,1155,350,104,242,74]","trial_type":"fractal-mutation","trial_index":89,"time_elapsed":1538248,"internal_node_id":"0.0-5.0-35.0"},{"group":"square cycles (cube, non-group)","fractal_assignment":["../images/cyn_red.png","../images/gry_blk.png","../images/ylw_pnk.png","../images/blu_wht.png","../images/grn_red.png","../images/ylw_slt.png","../images/org_blu.png","../images/pnk_blu.png"],"mutagen_generator_assignment":[0,1],"goal":7,"start":1,"action_noise":0.1,"location_history":"[1,2,3,2,6,7]","action_history":"[0,0,1,1,1]","mutagen_history":"[0,0,1,1,1]","location_rts":"[31,1038,61,359,200]","trial_type":"fractal-mutation","trial_index":90,"time_elapsed":1548852,"internal_node_id":"0.0-5.0-36.0"},{"group":"square cycles (cube, non-group)","fractal_assignment":["../images/cyn_red.png","../images/gry_blk.png","../images/ylw_pnk.png","../images/blu_wht.png","../images/grn_red.png","../images/ylw_slt.png","../images/org_blu.png","../images/pnk_blu.png"],"mutagen_generator_assignment":[0,1],"goal":3,"start":7,"action_noise":0.1,"location_history":"[7,6,5,4,5,1,0,4,5,4,5,1,0,1,2,3]","action_history":"[0,0,0,1,1,1,1,0,0,1,1,1,0,0,0]","mutagen_history":"[0,0,0,1,1,1,1,0,0,1,1,1,0,0,0]","location_rts":"[436,253,834,225,288,102,142,297,612,106,244,237,323,195,151]","trial_type":"fractal-mutation","trial_index":91,"time_elapsed":1572977,"internal_node_id":"0.0-5.0-37.0"},{"group":"square cycles (cube, non-group)","fractal_assignment":["../images/cyn_red.png","../images/gry_blk.png","../images/ylw_pnk.png","../images/blu_wht.png","../images/grn_red.png","../images/ylw_slt.png","../images/org_blu.png","../images/pnk_blu.png"],"mutagen_generator_assignment":[0,1],"goal":6,"start":3,"action_noise":0.1,"location_history":"[3,2,6]","action_history":"[1,1]","mutagen_history":"[1,1]","location_rts":"[280,389]","trial_type":"fractal-mutation","trial_index":92,"time_elapsed":1579325,"internal_node_id":"0.0-5.0-38.0"},{"group":"square cycles (cube, non-group)","fractal_assignment":["../images/cyn_red.png","../images/gry_blk.png","../images/ylw_pnk.png","../images/blu_wht.png","../images/grn_red.png","../images/ylw_slt.png","../images/org_blu.png","../images/pnk_blu.png"],"mutagen_generator_assignment":[0,1],"goal":2,"start":6,"action_noise":0.1,"location_history":"[6,5,1,2]","action_history":"[0,0,0]","mutagen_history":"[0,0,0]","location_rts":"[136,129,1329]","trial_type":"fractal-mutation","trial_index":93,"time_elapsed":1587616,"internal_node_id":"0.0-5.0-39.0"},{"group":"square cycles (cube, non-group)","fractal_assignment":["../images/cyn_red.png","../images/gry_blk.png","../images/ylw_pnk.png","../images/blu_wht.png","../images/grn_red.png","../images/ylw_slt.png","../images/org_blu.png","../images/pnk_blu.png"],"mutagen_generator_assignment":[0,1],"goal":1,"start":2,"action_noise":0.1,"location_history":"[2,6,7,3,2,3,0,1]","action_history":"[1,1,1,1,0,0,0]","mutagen_history":"[1,1,1,1,0,0,0]","location_rts":"[102,81,49,275,286,137,50]","trial_type":"fractal-mutation","trial_index":94,"time_elapsed":1599607,"internal_node_id":"0.0-5.0-40.0"},{"group":"square cycles (cube, non-group)","fractal_assignment":["../images/cyn_red.png","../images/gry_blk.png","../images/ylw_pnk.png","../images/blu_wht.png","../images/grn_red.png","../images/ylw_slt.png","../images/org_blu.png","../images/pnk_blu.png"],"mutagen_generator_assignment":[0,1],"goal":0,"start":1,"action_noise":0.1,"location_history":"[1,0]","action_history":"[1]","mutagen_history":"[1]","location_rts":"[479]","trial_type":"fractal-mutation","trial_index":95,"time_elapsed":1604678,"internal_node_id":"0.0-5.0-41.0"},{"group":"square cycles (cube, non-group)","fractal_assignment":["../images/cyn_red.png","../images/gry_blk.png","../images/ylw_pnk.png","../images/blu_wht.png","../images/grn_red.png","../images/ylw_slt.png","../images/org_blu.png","../images/pnk_blu.png"],"mutagen_generator_assignment":[0,1],"goal":4,"start":0,"action_noise":0.1,"location_history":"[0,1,2,3,2,6,7,3,0,1,2,3,0,4]","action_history":"[0,0,0,1,1,1,1,0,0,0,0,0,1]","mutagen_history":"[0,0,0,1,1,1,1,0,0,0,0,0,1]","location_rts":"[455,368,1051,262,205,144,848,146,172,427,239,386,221]","trial_type":"fractal-mutation","trial_index":96,"time_elapsed":1626985,"internal_node_id":"0.0-5.0-42.0"},{"group":"square cycles (cube, non-group)","fractal_assignment":["../images/cyn_red.png","../images/gry_blk.png","../images/ylw_pnk.png","../images/blu_wht.png","../images/grn_red.png","../images/ylw_slt.png","../images/org_blu.png","../images/pnk_blu.png"],"mutagen_generator_assignment":[0,1],"goal":6,"start":4,"action_noise":0.1,"location_history":"[4,5,1,2,3,2,3,2,6]","action_history":"[1,1,0,0,1,0,1,1]","mutagen_history":"[1,1,0,0,1,0,1,1]","location_rts":"[368,567,1209,281,269,357,389,450]","trial_type":"fractal-mutation","trial_index":97,"time_elapsed":1642974,"internal_node_id":"0.0-5.0-43.0"},{"group":"square cycles (cube, non-group)","fractal_assignment":["../images/cyn_red.png","../images/gry_blk.png","../images/ylw_pnk.png","../images/blu_wht.png","../images/grn_red.png","../images/ylw_slt.png","../images/org_blu.png","../images/pnk_blu.png"],"mutagen_generator_assignment":[0,1],"goal":3,"start":6,"action_noise":0.1,"location_history":"[6,7,3]","action_history":"[1,1]","mutagen_history":"[1,1]","location_rts":"[1274,453]","trial_type":"fractal-mutation","trial_index":98,"time_elapsed":1650396,"internal_node_id":"0.0-5.0-44.0"},{"group":"square cycles (cube, non-group)","fractal_assignment":["../images/cyn_red.png","../images/gry_blk.png","../images/ylw_pnk.png","../images/blu_wht.png","../images/grn_red.png","../images/ylw_slt.png","../images/org_blu.png","../images/pnk_blu.png"],"mutagen_generator_assignment":[0,1],"goal":7,"start":3,"action_noise":0.1,"location_history":"[3,0,1,0,4,7]","action_history":"[0,0,1,1,0]","mutagen_history":"[0,0,1,1,0]","location_rts":"[92,2759,289,1162,335]","trial_type":"fractal-mutation","trial_index":99,"time_elapsed":1663895,"internal_node_id":"0.0-5.0-45.0"},{"group":"square cycles (cube, non-group)","fractal_assignment":["../images/cyn_red.png","../images/gry_blk.png","../images/ylw_pnk.png","../images/blu_wht.png","../images/grn_red.png","../images/ylw_slt.png","../images/org_blu.png","../images/pnk_blu.png"],"mutagen_generator_assignment":[0,1],"goal":5,"start":7,"action_noise":0.1,"location_history":"[7,3,2,6,7,3,0,1,2,3,2,6,7,3,0,4,7,6,7,3,2,3,0,4,5]","action_history":"[1,1,1,1,1,0,0,0,0,1,1,1,1,0,1,0,0,1,1,0,0,0,1,1]","mutagen_history":"[1,1,1,1,1,0,0,0,0,1,1,1,1,0,1,0,0,1,1,0,0,0,1,1]","location_rts":"[888,627,1602,371,400,405,775,109,1417,108,754,377,1846,860,3262,376,396,2506,168,72,150,674,400,260]","trial_type":"fractal-mutation","trial_index":100,"time_elapsed":1711837,"internal_node_id":"0.0-5.0-46.0"},{"group":"square cycles (cube, non-group)","fractal_assignment":["../images/cyn_red.png","../images/gry_blk.png","../images/ylw_pnk.png","../images/blu_wht.png","../images/grn_red.png","../images/ylw_slt.png","../images/org_blu.png","../images/pnk_blu.png"],"mutagen_generator_assignment":[0,1],"goal":1,"start":5,"action_noise":0.1,"location_history":"[5,4,7,6,7,6,7,6,5,4,7,6,7,6,5,4,7,3,2,3,2,6,7,3,0,1]","action_history":"[1,0,0,1,1,1,1,0,0,0,0,1,0,0,0,0,1,1,1,1,1,1,1,0,0]","mutagen_history":"[1,0,0,1,1,1,1,0,0,0,0,1,0,0,0,0,1,1,1,1,1,1,1,0,0]","location_rts":"[45696,376,312,1358,29,5799,17,212,90,436,512,16193,811,216,426,793,252,708,184,133,96,107,852,420,197]","trial_type":"fractal-mutation","trial_index":101,"time_elapsed":1818378,"internal_node_id":"0.0-5.0-47.0"},{"group":"square cycles (cube, non-group)","fractal_assignment":["../images/cyn_red.png","../images/gry_blk.png","../images/ylw_pnk.png","../images/blu_wht.png","../images/grn_red.png","../images/ylw_slt.png","../images/org_blu.png","../images/pnk_blu.png"],"mutagen_generator_assignment":[0,1],"goal":6,"start":1,"action_noise":0.1,"location_history":"[1,0,1,0,1,2,3,0,4,5,1,0,1,2,3,0,1,2,3,2,6]","action_history":"[1,0,1,0,0,0,0,1,1,1,1,0,0,0,0,0,0,0,1,1]","mutagen_history":"[1,0,1,0,0,0,0,1,1,1,1,0,0,0,0,0,0,0,1,1]","location_rts":"[27303,482,8617,152,296,198,336,424,24,58,16,101,286,132,26,743,335,238,844,1024]","trial_type":"fractal-mutation","trial_index":102,"time_elapsed":1884916,"internal_node_id":"0.0-5.0-48.0"},{"group":"square cycles (cube, non-group)","fractal_assignment":["../images/cyn_red.png","../images/gry_blk.png","../images/ylw_pnk.png","../images/blu_wht.png","../images/grn_red.png","../images/ylw_slt.png","../images/org_blu.png","../images/pnk_blu.png"],"mutagen_generator_assignment":[0,1],"goal":0,"start":6,"action_noise":0.1,"location_history":"[6,7,6,7,6,7,6,5,4,7,6,7,3,2,6,5,1,0]","action_history":"[1,0,0,0,1,0,0,0,0,0,1,1,1,1,0,1,1]","mutagen_history":"[1,0,0,0,1,0,0,0,0,0,1,1,1,1,0,1,1]","location_rts":"[3180,3109,293,1524,5755,631,380,316,319,256,184,184,41,443,52007,222,383]","trial_type":"fractal-mutation","trial_index":103,"time_elapsed":1975822,"internal_node_id":"0.0-5.0-49.0"},{"view_history":"[{\"page_index\":0,\"viewing_time\":13012}]","rt":13012,"trial_type":"instructions","trial_index":104,"time_elapsed":1989835,"internal_node_id":"0.0-6.0"},{"rt":3237,"responses":"{\"Q0\":\"\"}","trial_type":"survey-text","trial_index":105,"time_elapsed":1994086,"internal_node_id":"0.0-7.0"}]