[{"view_history":"[{\"page_index\":0,\"viewing_time\":38760},{\"page_index\":1,\"viewing_time\":215339}]","rt":254099,"trial_type":"instructions","trial_index":0,"time_elapsed":254100,"internal_node_id":"0.0-0.0"},{"view_history":"[{\"page_index\":0,\"viewing_time\":17274},{\"page_index\":1,\"viewing_time\":43780}]","rt":61054,"trial_type":"instructions","trial_index":1,"time_elapsed":316155,"internal_node_id":"0.0-1.0"},{"group":"square cycles (cube, non-group)","room_assignment":["pink","blue","green","yellow","purple","brown","red","grey"],"door_color_assignment":["white","black"],"door_generator_assignment":[0,1],"goal":6,"start":3,"action_noise":0.1,"location_history":"[3,0,1,2,3,0,1,0,4,7,3,0,1,2,3,0,1,2,3,0,4,5,4,7,6]","action_history":"[0,0,0,0,1,0,1,1,0,0,0,0,1,0,0,0,0,0,0,1,1,0,0,0]","door_history":"[0,0,0,0,1,0,1,1,0,0,0,0,1,0,0,0,0,0,0,1,1,0,0,0]","location_rts":"[4252,774,476,464,803,943,1078,944,717,402,385,447,1084,1381,436,381,527,1287,1440,466,756,842,431,695]","trial_type":"two-door-navigation","trial_index":2,"time_elapsed":365576,"internal_node_id":"0.0-2.0-0.0"},{"group":"square cycles (cube, non-group)","room_assignment":["pink","blue","green","yellow","purple","brown","red","grey"],"door_color_assignment":["white","black"],"door_generator_assignment":[0,1],"goal":1,"start":6,"action_noise":0.1,"location_history":"[6,5,4,5,4,5,1]","action_history":"[0,0,1,0,1,1]","door_history":"[0,0,1,0,1,1]","location_rts":"[2995,510,1080,1788,994,1645]","trial_type":"two-door-navigation","trial_index":3,"time_elapsed":384207,"internal_node_id":"0.0-2.0-1.0"},{"group":"square cycles (cube, non-group)","room_assignment":["pink","blue","green","yellow","purple","brown","red","grey"],"door_color_assignment":["white","black"],"door_generator_assignment":[0,1],"goal":2,"start":1,"action_noise":0.1,"location_history":"[1,2]","action_history":"[0]","door_history":"[0]","location_rts":"[2279]","trial_type":"two-door-navigation","trial_index":4,"time_elapsed":391011,"internal_node_id":"0.0-2.0-2.0"},{"group":"square cycles (cube, non-group)","room_assignment":["pink","blue","green","yellow","purple","brown","red","grey"],"door_color_assignment":["white","black"],"door_generator_assignment":[0,1],"goal":0,"start":2,"action_noise":0.1,"location_history":"[2,3,0]","action_history":"[0,0]","door_history":"[0,0]","location_rts":"[1688,436]","trial_type":"two-door-navigation","trial_index":5,"time_elapsed":398684,"internal_node_id":"0.0-2.0-3.0"},{"group":"square cycles (cube, non-group)","room_assignment":["pink","blue","green","yellow","purple","brown","red","grey"],"door_color_assignment":["white","black"],"door_generator_assignment":[0,1],"goal":7,"start":0,"action_noise":0.1,"location_history":"[0,1,2,3,0,4,7]","action_history":"[0,0,0,0,1,0]","door_history":"[0,0,0,0,1,0]","location_rts":"[1450,451,501,440,1194,514]","trial_type":"two-door-navigation","trial_index":6,"time_elapsed":412862,"internal_node_id":"0.0-2.0-4.0"},{"group":"square cycles (cube, non-group)","room_assignment":["pink","blue","green","yellow","purple","brown","red","grey"],"door_color_assignment":["white","black"],"door_generator_assignment":[0,1],"goal":5,"start":7,"action_noise":0.1,"location_history":"[7,3,0,1,2,3,2,3,0,1,2,6,5]","action_history":"[1,0,0,0,0,1,0,0,0,0,1,0]","door_history":"[1,0,0,0,0,1,0,0,0,0,1,0]","location_rts":"[3003,3144,494,510,627,1259,949,440,484,1196,659,707]","trial_type":"two-door-navigation","trial_index":7,"time_elapsed":442087,"internal_node_id":"0.0-2.0-5.0"},{"group":"square cycles (cube, non-group)","room_assignment":["pink","blue","green","yellow","purple","brown","red","grey"],"door_color_assignment":["white","black"],"door_generator_assignment":[0,1],"goal":4,"start":5,"action_noise":0.1,"location_history":"[5,4]","action_history":"[0]","door_history":"[0]","location_rts":"[2148]","trial_type":"two-door-navigation","trial_index":8,"time_elapsed":448758,"internal_node_id":"0.0-2.0-6.0"},{"group":"square cycles (cube, non-group)","room_assignment":["pink","blue","green","yellow","purple","brown","red","grey"],"door_color_assignment":["white","black"],"door_generator_assignment":[0,1],"goal":2,"start":4,"action_noise":0.1,"location_history":"[4,7,6,7,6,5,4,5,4,7,6,7,3,0,1,0,1,0,4,5,4,5,1,2]","action_history":"[0,0,0,0,0,0,1,0,0,0,0,1,0,0,0,0,1,0,1,1,1,0,0]","door_history":"[0,0,0,0,0,0,1,0,0,0,0,1,0,0,0,0,1,0,1,1,1,0,0]","location_rts":"[1699,612,547,586,701,1128,805,523,709,668,1543,459,1057,415,477,445,949,430,1338,744,1184,714,417]","trial_type":"two-door-navigation","trial_index":9,"time_elapsed":493873,"internal_node_id":"0.0-2.0-7.0"},{"group":"square cycles (cube, non-group)","room_assignment":["pink","blue","green","yellow","purple","brown","red","grey"],"door_color_assignment":["white","black"],"door_generator_assignment":[0,1],"goal":3,"start":2,"action_noise":0.1,"location_history":"[2,6,5,4,7,6,7,3]","action_history":"[1,0,0,0,0,1,1]","door_history":"[1,0,0,0,0,1,1]","location_rts":"[3821,1290,1030,970,776,646,1396]","trial_type":"two-door-navigation","trial_index":10,"time_elapsed":514444,"internal_node_id":"0.0-2.0-8.0"},{"group":"square cycles (cube, non-group)","room_assignment":["pink","blue","green","yellow","purple","brown","red","grey"],"door_color_assignment":["white","black"],"door_generator_assignment":[0,1],"goal":7,"start":3,"action_noise":0.1,"location_history":"[3,2,3,0,1,0,1,2,6,5,4,7]","action_history":"[1,0,0,0,1,0,0,1,0,0,0]","door_history":"[1,0,0,0,1,0,0,1,0,0,0]","location_rts":"[2681,774,524,639,866,631,790,1485,868,532,889]","trial_type":"two-door-navigation","trial_index":11,"time_elapsed":539826,"internal_node_id":"0.0-2.0-9.0"},{"group":"square cycles (cube, non-group)","room_assignment":["pink","blue","green","yellow","purple","brown","red","grey"],"door_color_assignment":["white","black"],"door_generator_assignment":[0,1],"goal":0,"start":7,"action_noise":0.1,"location_history":"[7,6,5,4,5,4,5,1,2,3,0]","action_history":"[0,0,0,1,0,1,1,0,0,0]","door_history":"[0,0,0,1,0,1,1,0,0,0]","location_rts":"[1981,661,822,826,1234,1480,1097,981,382,358]","trial_type":"two-door-navigation","trial_index":12,"time_elapsed":563343,"internal_node_id":"0.0-2.0-10.0"},{"group":"square cycles (cube, non-group)","room_assignment":["pink","blue","green","yellow","purple","brown","red","grey"],"door_color_assignment":["white","black"],"door_generator_assignment":[0,1],"goal":1,"start":0,"action_noise":0.1,"location_history":"[0,1]","action_history":"[0]","door_history":"[0]","location_rts":"[1553]","trial_type":"two-door-navigation","trial_index":13,"time_elapsed":569418,"internal_node_id":"0.0-2.0-11.0"},{"group":"square cycles (cube, non-group)","room_assignment":["pink","blue","green","yellow","purple","brown","red","grey"],"door_color_assignment":["white","black"],"door_generator_assignment":[0,1],"goal":6,"start":1,"action_noise":0.1,"location_history":"[1,0,4,7,6]","action_history":"[1,1,0,0]","door_history":"[1,1,0,0]","location_rts":"[2882,1682,2690,722]","trial_type":"two-door-navigation","trial_index":14,"time_elapsed":584978,"internal_node_id":"0.0-2.0-12.0"},{"group":"square cycles (cube, non-group)","room_assignment":["pink","blue","green","yellow","purple","brown","red","grey"],"door_color_assignment":["white","black"],"door_generator_assignment":[0,1],"goal":4,"start":6,"action_noise":0.1,"location_history":"[6,5,4]","action_history":"[0,0]","door_history":"[0,0]","location_rts":"[2346,537]","trial_type":"two-door-navigation","trial_index":15,"time_elapsed":593406,"internal_node_id":"0.0-2.0-13.0"},{"group":"square cycles (cube, non-group)","room_assignment":["pink","blue","green","yellow","purple","brown","red","grey"],"door_color_assignment":["white","black"],"door_generator_assignment":[0,1],"goal":5,"start":4,"action_noise":0.1,"location_history":"[4,5]","action_history":"[1]","door_history":"[1]","location_rts":"[3248]","trial_type":"two-door-navigation","trial_index":16,"time_elapsed":601174,"internal_node_id":"0.0-2.0-14.0"},{"group":"square cycles (cube, non-group)","room_assignment":["pink","blue","green","yellow","purple","brown","red","grey"],"door_color_assignment":["white","black"],"door_generator_assignment":[0,1],"goal":4,"start":5,"action_noise":0.1,"location_history":"[5,4]","action_history":"[0]","door_history":"[0]","location_rts":"[1665]","trial_type":"two-door-navigation","trial_index":17,"time_elapsed":607361,"internal_node_id":"0.0-2.0-15.0"},{"group":"square cycles (cube, non-group)","room_assignment":["pink","blue","green","yellow","purple","brown","red","grey"],"door_color_assignment":["white","black"],"door_generator_assignment":[0,1],"goal":0,"start":4,"action_noise":0.1,"location_history":"[4,5,4,7,6,5,4,5,1,2,3,0]","action_history":"[1,0,0,0,0,0,0,1,0,0,0]","door_history":"[1,0,0,0,0,0,0,1,0,0,0]","location_rts":"[2254,1046,710,528,576,737,362,1168,895,479,473]","trial_type":"two-door-navigation","trial_index":18,"time_elapsed":631313,"internal_node_id":"0.0-2.0-16.0"},{"group":"square cycles (cube, non-group)","room_assignment":["pink","blue","green","yellow","purple","brown","red","grey"],"door_color_assignment":["white","black"],"door_generator_assignment":[0,1],"goal":7,"start":0,"action_noise":0.1,"location_history":"[0,1,0,4,7]","action_history":"[0,1,1,0]","door_history":"[0,1,1,0]","location_rts":"[3352,1279,944,2584]","trial_type":"two-door-navigation","trial_index":19,"time_elapsed":647058,"internal_node_id":"0.0-2.0-17.0"},{"group":"square cycles (cube, non-group)","room_assignment":["pink","blue","green","yellow","purple","brown","red","grey"],"door_color_assignment":["white","black"],"door_generator_assignment":[0,1],"goal":2,"start":7,"action_noise":0.1,"location_history":"[7,3,0,1,2]","action_history":"[1,0,0,0]","door_history":"[1,0,0,0]","location_rts":"[4062,675,377,419]","trial_type":"two-door-navigation","trial_index":20,"time_elapsed":660178,"internal_node_id":"0.0-2.0-18.0"},{"group":"square cycles (cube, non-group)","room_assignment":["pink","blue","green","yellow","purple","brown","red","grey"],"door_color_assignment":["white","black"],"door_generator_assignment":[0,1],"goal":1,"start":2,"action_noise":0.1,"location_history":"[2,6,7,6,5,4,7,6,7,6,5,4,5,4,5,4,5,1]","action_history":"[1,1,0,0,0,0,0,1,0,0,0,1,0,1,1,1,1]","door_history":"[1,1,0,0,0,0,0,1,0,0,0,1,0,1,1,1,1]","location_rts":"[3024,1313,634,284,470,413,566,868,622,511,569,1162,885,1552,273,354,707]","trial_type":"two-door-navigation","trial_index":21,"time_elapsed":695233,"internal_node_id":"0.0-2.0-19.0"},{"group":"square cycles (cube, non-group)","room_assignment":["pink","blue","green","yellow","purple","brown","red","grey"],"door_color_assignment":["white","black"],"door_generator_assignment":[0,1],"goal":3,"start":1,"action_noise":0.1,"location_history":"[1,2,3]","action_history":"[0,0]","door_history":"[0,0]","location_rts":"[4883,456]","trial_type":"two-door-navigation","trial_index":22,"time_elapsed":706110,"internal_node_id":"0.0-2.0-20.0"},{"group":"square cycles (cube, non-group)","room_assignment":["pink","blue","green","yellow","purple","brown","red","grey"],"door_color_assignment":["white","black"],"door_generator_assignment":[0,1],"goal":6,"start":3,"action_noise":0.1,"location_history":"[3,0,4,7,6]","action_history":"[0,1,0,0]","door_history":"[0,1,0,0]","location_rts":"[1554,1221,652,363]","trial_type":"two-door-navigation","trial_index":23,"time_elapsed":717488,"internal_node_id":"0.0-2.0-21.0"},{"group":"square cycles (cube, non-group)","room_assignment":["pink","blue","green","yellow","purple","brown","red","grey"],"door_color_assignment":["white","black"],"door_generator_assignment":[0,1],"goal":5,"start":6,"action_noise":0.1,"location_history":"[6,5]","action_history":"[0]","door_history":"[0]","location_rts":"[1842]","trial_type":"two-door-navigation","trial_index":24,"time_elapsed":723854,"internal_node_id":"0.0-2.0-22.0"},{"group":"square cycles (cube, non-group)","room_assignment":["pink","blue","green","yellow","purple","brown","red","grey"],"door_color_assignment":["white","black"],"door_generator_assignment":[0,1],"goal":3,"start":5,"action_noise":0.1,"location_history":"[5,4,5,1,2,3]","action_history":"[0,1,1,0,0]","door_history":"[0,1,1,0,0]","location_rts":"[1900,957,409,851,380]","trial_type":"two-door-navigation","trial_index":25,"time_elapsed":736967,"internal_node_id":"0.0-2.0-23.0"},{"group":"square cycles (cube, non-group)","room_assignment":["pink","blue","green","yellow","purple","brown","red","grey"],"door_color_assignment":["white","black"],"door_generator_assignment":[0,1],"goal":0,"start":3,"action_noise":0.1,"location_history":"[3,0]","action_history":"[0]","door_history":"[0]","location_rts":"[2277]","trial_type":"two-door-navigation","trial_index":26,"time_elapsed":743763,"internal_node_id":"0.0-2.0-24.0"},{"group":"square cycles (cube, non-group)","room_assignment":["pink","blue","green","yellow","purple","brown","red","grey"],"door_color_assignment":["white","black"],"door_generator_assignment":[0,1],"goal":7,"start":0,"action_noise":0.1,"location_history":"[0,1,0,1,2,3,0,4,7]","action_history":"[0,1,1,0,0,0,1,0]","door_history":"[0,1,1,0,0,0,1,0]","location_rts":"[1633,1806,437,2179,689,477,819,569]","trial_type":"two-door-navigation","trial_index":27,"time_elapsed":764029,"internal_node_id":"0.0-2.0-25.0"},{"group":"square cycles (cube, non-group)","room_assignment":["pink","blue","green","yellow","purple","brown","red","grey"],"door_color_assignment":["white","black"],"door_generator_assignment":[0,1],"goal":2,"start":7,"action_noise":0.1,"location_history":"[7,3,0,4,7,6,5,1,2]","action_history":"[1,0,0,0,0,0,1,0]","door_history":"[1,0,0,0,0,0,1,0]","location_rts":"[4049,731,354,391,527,597,903,486]","trial_type":"two-door-navigation","trial_index":28,"time_elapsed":783723,"internal_node_id":"0.0-2.0-26.0"},{"group":"square cycles (cube, non-group)","room_assignment":["pink","blue","green","yellow","purple","brown","red","grey"],"door_color_assignment":["white","black"],"door_generator_assignment":[0,1],"goal":1,"start":2,"action_noise":0.1,"location_history":"[2,3,0,1]","action_history":"[0,0,0]","door_history":"[0,0,0]","location_rts":"[1853,363,343]","trial_type":"two-door-navigation","trial_index":29,"time_elapsed":792850,"internal_node_id":"0.0-2.0-27.0"},{"group":"square cycles (cube, non-group)","room_assignment":["pink","blue","green","yellow","purple","brown","red","grey"],"door_color_assignment":["white","black"],"door_generator_assignment":[0,1],"goal":5,"start":1,"action_noise":0.1,"location_history":"[1,0,1,2,3,0,1,0,1,2,3,2,6,5]","action_history":"[1,0,0,0,0,0,1,0,0,0,1,1,0]","door_history":"[1,0,0,0,0,0,1,0,0,0,1,1,0]","location_rts":"[1877,886,916,605,434,358,1326,1135,548,674,1269,2956,874]","trial_type":"two-door-navigation","trial_index":30,"time_elapsed":823446,"internal_node_id":"0.0-2.0-28.0"},{"group":"square cycles (cube, non-group)","room_assignment":["pink","blue","green","yellow","purple","brown","red","grey"],"door_color_assignment":["white","black"],"door_generator_assignment":[0,1],"goal":4,"start":5,"action_noise":0.1,"location_history":"[5,4]","action_history":"[0]","door_history":"[0]","location_rts":"[1856]","trial_type":"two-door-navigation","trial_index":31,"time_elapsed":829827,"internal_node_id":"0.0-2.0-29.0"},{"group":"square cycles (cube, non-group)","room_assignment":["pink","blue","green","yellow","purple","brown","red","grey"],"door_color_assignment":["white","black"],"door_generator_assignment":[0,1],"goal":6,"start":4,"action_noise":0.1,"location_history":"[4,7,6]","action_history":"[0,0]","door_history":"[0,0]","location_rts":"[2113,496]","trial_type":"two-door-navigation","trial_index":32,"time_elapsed":837977,"internal_node_id":"0.0-2.0-30.0"},{"group":"square cycles (cube, non-group)","room_assignment":["pink","blue","green","yellow","purple","brown","red","grey"],"door_color_assignment":["white","black"],"door_generator_assignment":[0,1],"goal":4,"start":6,"action_noise":0.1,"location_history":"[6,5,4]","action_history":"[0,0]","door_history":"[0,0]","location_rts":"[1716,402]","trial_type":"two-door-navigation","trial_index":33,"time_elapsed":845635,"internal_node_id":"0.0-2.0-31.0"},{"group":"square cycles (cube, non-group)","room_assignment":["pink","blue","green","yellow","purple","brown","red","grey"],"door_color_assignment":["white","black"],"door_generator_assignment":[0,1],"goal":2,"start":4,"action_noise":0.1,"location_history":"[4,5,4,7,3,0,1,2]","action_history":"[1,0,0,1,0,0,0]","door_history":"[1,0,0,1,0,0,0]","location_rts":"[2148,1130,773,1102,777,375,467]","trial_type":"two-door-navigation","trial_index":34,"time_elapsed":863051,"internal_node_id":"0.0-2.0-32.0"},{"group":"square cycles (cube, non-group)","room_assignment":["pink","blue","green","yellow","purple","brown","red","grey"],"door_color_assignment":["white","black"],"door_generator_assignment":[0,1],"goal":0,"start":2,"action_noise":0.1,"location_history":"[2,3,0]","action_history":"[0,0]","door_history":"[0,0]","location_rts":"[1702,477]","trial_type":"two-door-navigation","trial_index":35,"time_elapsed":870778,"internal_node_id":"0.0-2.0-33.0"},{"group":"square cycles (cube, non-group)","room_assignment":["pink","blue","green","yellow","purple","brown","red","grey"],"door_color_assignment":["white","black"],"door_generator_assignment":[0,1],"goal":5,"start":0,"action_noise":0.1,"location_history":"[0,4,7,6,5]","action_history":"[1,0,0,0]","door_history":"[1,0,0,0]","location_rts":"[2261,2650,528,566]","trial_type":"two-door-navigation","trial_index":36,"time_elapsed":884365,"internal_node_id":"0.0-2.0-34.0"},{"group":"square cycles (cube, non-group)","room_assignment":["pink","blue","green","yellow","purple","brown","red","grey"],"door_color_assignment":["white","black"],"door_generator_assignment":[0,1],"goal":1,"start":5,"action_noise":0.1,"location_history":"[5,1]","action_history":"[1]","door_history":"[1]","location_rts":"[1843]","trial_type":"two-door-navigation","trial_index":37,"time_elapsed":890730,"internal_node_id":"0.0-2.0-35.0"},{"group":"square cycles (cube, non-group)","room_assignment":["pink","blue","green","yellow","purple","brown","red","grey"],"door_color_assignment":["white","black"],"door_generator_assignment":[0,1],"goal":7,"start":1,"action_noise":0.1,"location_history":"[1,0,1,0,4,7]","action_history":"[1,0,1,1,0]","door_history":"[1,0,1,1,0]","location_rts":"[2939,648,3455,893,922]","trial_type":"two-door-navigation","trial_index":38,"time_elapsed":908199,"internal_node_id":"0.0-2.0-36.0"},{"group":"square cycles (cube, non-group)","room_assignment":["pink","blue","green","yellow","purple","brown","red","grey"],"door_color_assignment":["white","black"],"door_generator_assignment":[0,1],"goal":3,"start":7,"action_noise":0.1,"location_history":"[7,3]","action_history":"[1]","door_history":"[1]","location_rts":"[3633]","trial_type":"two-door-navigation","trial_index":39,"time_elapsed":916351,"internal_node_id":"0.0-2.0-37.0"},{"group":"square cycles (cube, non-group)","room_assignment":["pink","blue","green","yellow","purple","brown","red","grey"],"door_color_assignment":["white","black"],"door_generator_assignment":[0,1],"goal":6,"start":3,"action_noise":0.1,"location_history":"[3,0,1,2,3,2,3,0,1,0,4,7,6]","action_history":"[0,0,0,0,1,0,0,0,1,1,0,0]","door_history":"[0,0,0,0,1,0,0,0,1,1,0,0]","location_rts":"[1999,496,540,484,843,917,663,417,1042,1130,926,425]","trial_type":"two-door-navigation","trial_index":40,"time_elapsed":941959,"internal_node_id":"0.0-2.0-38.0"},{"group":"square cycles (cube, non-group)","room_assignment":["pink","blue","green","yellow","purple","brown","red","grey"],"door_color_assignment":["white","black"],"door_generator_assignment":[0,1],"goal":2,"start":6,"action_noise":0.1,"location_history":"[6,5,1,2]","action_history":"[0,1,0]","door_history":"[0,1,0]","location_rts":"[2152,1861,707]","trial_type":"two-door-navigation","trial_index":41,"time_elapsed":953253,"internal_node_id":"0.0-2.0-39.0"},{"group":"square cycles (cube, non-group)","room_assignment":["pink","blue","green","yellow","purple","brown","red","grey"],"door_color_assignment":["white","black"],"door_generator_assignment":[0,1],"goal":1,"start":2,"action_noise":0.1,"location_history":"[2,6,5,4,7,3,0,1]","action_history":"[0,0,0,1,1,0,0]","door_history":"[0,0,0,1,1,0,0]","location_rts":"[1826,438,514,1437,3103,905,413]","trial_type":"two-door-navigation","trial_index":42,"time_elapsed":972543,"internal_node_id":"0.0-2.0-40.0"},{"group":"square cycles (cube, non-group)","room_assignment":["pink","blue","green","yellow","purple","brown","red","grey"],"door_color_assignment":["white","black"],"door_generator_assignment":[0,1],"goal":0,"start":1,"action_noise":0.1,"location_history":"[1,2,3,0]","action_history":"[0,0,0]","door_history":"[0,0,0]","location_rts":"[1434,357,343]","trial_type":"two-door-navigation","trial_index":43,"time_elapsed":981250,"internal_node_id":"0.0-2.0-41.0"},{"group":"square cycles (cube, non-group)","room_assignment":["pink","blue","green","yellow","purple","brown","red","grey"],"door_color_assignment":["white","black"],"door_generator_assignment":[0,1],"goal":4,"start":0,"action_noise":0.1,"location_history":"[0,4]","action_history":"[1]","door_history":"[1]","location_rts":"[1971]","trial_type":"two-door-navigation","trial_index":44,"time_elapsed":987744,"internal_node_id":"0.0-2.0-42.0"},{"group":"square cycles (cube, non-group)","room_assignment":["pink","blue","green","yellow","purple","brown","red","grey"],"door_color_assignment":["white","black"],"door_generator_assignment":[0,1],"goal":6,"start":4,"action_noise":0.1,"location_history":"[4,7,6]","action_history":"[0,0]","door_history":"[0,0]","location_rts":"[2311,3009]","trial_type":"two-door-navigation","trial_index":45,"time_elapsed":998606,"internal_node_id":"0.0-2.0-43.0"},{"group":"square cycles (cube, non-group)","room_assignment":["pink","blue","green","yellow","purple","brown","red","grey"],"door_color_assignment":["white","black"],"door_generator_assignment":[0,1],"goal":3,"start":6,"action_noise":0.1,"location_history":"[6,7,3]","action_history":"[1,1]","door_history":"[1,1]","location_rts":"[3869,1407]","trial_type":"two-door-navigation","trial_index":46,"time_elapsed":1009425,"internal_node_id":"0.0-2.0-44.0"},{"group":"square cycles (cube, non-group)","room_assignment":["pink","blue","green","yellow","purple","brown","red","grey"],"door_color_assignment":["white","black"],"door_generator_assignment":[0,1],"goal":7,"start":3,"action_noise":0.1,"location_history":"[3,0,1,0,4,7]","action_history":"[1,0,1,1,0]","door_history":"[1,0,1,1,0]","location_rts":"[2500,1099,847,714,1392]","trial_type":"two-door-navigation","trial_index":47,"time_elapsed":1024579,"internal_node_id":"0.0-2.0-45.0"},{"group":"square cycles (cube, non-group)","room_assignment":["pink","blue","green","yellow","purple","brown","red","grey"],"door_color_assignment":["white","black"],"door_generator_assignment":[0,1],"goal":5,"start":7,"action_noise":0.1,"location_history":"[7,6,5]","action_history":"[0,0]","door_history":"[0,0]","location_rts":"[2048,676]","trial_type":"two-door-navigation","trial_index":48,"time_elapsed":1032844,"internal_node_id":"0.0-2.0-46.0"},{"group":"square cycles (cube, non-group)","room_assignment":["pink","blue","green","yellow","purple","brown","red","grey"],"door_color_assignment":["white","black"],"door_generator_assignment":[0,1],"goal":1,"start":5,"action_noise":0.1,"location_history":"[5,4,5,4,5,1]","action_history":"[1,1,0,1,1]","door_history":"[1,1,0,1,1]","location_rts":"[2401,937,1695,878,705]","trial_type":"two-door-navigation","trial_index":49,"time_elapsed":1048061,"internal_node_id":"0.0-2.0-47.0"},{"group":"square cycles (cube, non-group)","room_assignment":["pink","blue","green","yellow","purple","brown","red","grey"],"door_color_assignment":["white","black"],"door_generator_assignment":[0,1],"goal":6,"start":1,"action_noise":0.1,"location_history":"[1,0,4,7,6]","action_history":"[1,1,0,0]","door_history":"[1,1,0,0]","location_rts":"[3149,947,1201,911]","trial_type":"two-door-navigation","trial_index":50,"time_elapsed":1061853,"internal_node_id":"0.0-2.0-48.0"},{"group":"square cycles (cube, non-group)","room_assignment":["pink","blue","green","yellow","purple","brown","red","grey"],"door_color_assignment":["white","black"],"door_generator_assignment":[0,1],"goal":0,"start":6,"action_noise":0.1,"location_history":"[6,7,6,5,1,2,6,5,4,5,1,2,3,0]","action_history":"[1,0,0,1,0,0,0,0,1,1,0,0,0]","door_history":"[1,0,0,1,0,0,0,0,1,1,0,0,0]","location_rts":"[4994,1600,947,1880,1086,836,737,662,905,2122,1091,503,469]","trial_type":"two-door-navigation","trial_index":51,"time_elapsed":1096457,"internal_node_id":"0.0-2.0-49.0"},{"view_history":"[{\"page_index\":0,\"viewing_time\":2616}]","rt":2617,"trial_type":"instructions","trial_index":52,"time_elapsed":1100076,"internal_node_id":"0.0-3.0"},{"view_history":"[{\"page_index\":0,\"viewing_time\":2686},{\"page_index\":1,\"viewing_time\":20780}]","rt":23466,"trial_type":"instructions","trial_index":53,"time_elapsed":1124543,"internal_node_id":"0.0-4.0"},{"group":"tri cycles (cube, non-group)","fractal_assignment":["../images/cyn_red.png","../images/org_blu.png","../images/pnk_blu.png","../images/ylw_slt.png","../images/blu_wht.png","../images/ylw_pnk.png","../images/grn_red.png","../images/gry_blk.png"],"mutagen_generator_assignment":[1,0],"goal":6,"start":3,"action_noise":0.1,"location_history":"[3,7,6]","action_history":"[0,0]","mutagen_history":"[1,1]","location_rts":"[2933,832]","trial_type":"fractal-mutation","trial_index":54,"time_elapsed":1133893,"internal_node_id":"0.0-5.0-0.0"},{"group":"tri cycles (cube, non-group)","fractal_assignment":["../images/cyn_red.png","../images/org_blu.png","../images/pnk_blu.png","../images/ylw_slt.png","../images/blu_wht.png","../images/ylw_pnk.png","../images/grn_red.png","../images/gry_blk.png"],"mutagen_generator_assignment":[1,0],"goal":1,"start":6,"action_noise":0.1,"location_history":"[6,4,7,3,4,0,2,6,5,1]","action_history":"[1,0,0,1,1,0,1,1,0]","mutagen_history":"[0,1,1,0,0,1,0,0,1]","location_rts":"[1361,1579,608,543,1425,669,1086,1023,1302]","trial_type":"fractal-mutation","trial_index":55,"time_elapsed":1156225,"internal_node_id":"0.0-5.0-1.0"},{"group":"tri cycles (cube, non-group)","fractal_assignment":["../images/cyn_red.png","../images/org_blu.png","../images/pnk_blu.png","../images/ylw_slt.png","../images/blu_wht.png","../images/ylw_pnk.png","../images/grn_red.png","../images/gry_blk.png"],"mutagen_generator_assignment":[1,0],"goal":2,"start":1,"action_noise":0.1,"location_history":"[1,5,1,5,2]","action_history":"[1,0,1,1]","mutagen_history":"[0,1,0,0]","location_rts":"[2139,1531,979,1002]","trial_type":"fractal-mutation","trial_index":56,"time_elapsed":1169506,"internal_node_id":"0.0-5.0-2.0"},{"group":"tri cycles (cube, non-group)","fractal_assignment":["../images/cyn_red.png","../images/org_blu.png","../images/pnk_blu.png","../images/ylw_slt.png","../images/blu_wht.png","../images/ylw_pnk.png","../images/grn_red.png","../images/gry_blk.png"],"mutagen_generator_assignment":[1,0],"goal":0,"start":2,"action_noise":0.1,"location_history":"[2,1,0]","action_history":"[0,0]","mutagen_history":"[1,1]","location_rts":"[1325,497]","trial_type":"fractal-mutation","trial_index":57,"time_elapsed":1176893,"internal_node_id":"0.0-5.0-3.0"},{"group":"tri cycles (cube, non-group)","fractal_assignment":["../images/cyn_red.png","../images/org_blu.png","../images/pnk_blu.png","../images/ylw_slt.png","../images/blu_wht.png","../images/ylw_pnk.png","../images/grn_red.png","../images/gry_blk.png"],"mutagen_generator_assignment":[1,0],"goal":7,"start":0,"action_noise":0.1,"location_history":"[0,2,1,0,3,7]","action_history":"[0,0,0,1,0]","mutagen_history":"[1,1,1,0,1]","location_rts":"[2280,714,691,875,470]","trial_type":"fractal-mutation","trial_index":58,"time_elapsed":1190591,"internal_node_id":"0.0-5.0-4.0"},{"group":"tri cycles (cube, non-group)","fractal_assignment":["../images/cyn_red.png","../images/org_blu.png","../images/pnk_blu.png","../images/ylw_slt.png","../images/blu_wht.png","../images/ylw_pnk.png","../images/grn_red.png","../images/gry_blk.png"],"mutagen_generator_assignment":[1,0],"goal":5,"start":7,"action_noise":0.1,"location_history":"[7,6,5]","action_history":"[0,1]","mutagen_history":"[1,0]","location_rts":"[2777,867]","trial_type":"fractal-mutation","trial_index":59,"time_elapsed":1199798,"internal_node_id":"0.0-5.0-5.0"},{"group":"tri cycles (cube, non-group)","fractal_assignment":["../images/cyn_red.png","../images/org_blu.png","../images/pnk_blu.png","../images/ylw_slt.png","../images/blu_wht.png","../images/ylw_pnk.png","../images/grn_red.png","../images/gry_blk.png"],"mutagen_generator_assignment":[1,0],"goal":4,"start":5,"action_noise":0.1,"location_history":"[5,1,5,1,0,2,6,4]","action_history":"[0,1,1,0,0,1,0]","mutagen_history":"[1,0,0,1,1,0,1]","location_rts":"[1439,1131,1021,944,1463,699,1416]","trial_type":"fractal-mutation","trial_index":60,"time_elapsed":1218623,"internal_node_id":"0.0-5.0-6.0"},{"group":"tri cycles (cube, non-group)","fractal_assignment":["../images/cyn_red.png","../images/org_blu.png","../images/pnk_blu.png","../images/ylw_slt.png","../images/blu_wht.png","../images/ylw_pnk.png","../images/grn_red.png","../images/gry_blk.png"],"mutagen_generator_assignment":[1,0],"goal":2,"start":4,"action_noise":0.1,"location_history":"[4,7,6,4,0,3,7,6,4,0,2]","action_history":"[0,0,0,1,1,0,0,0,1,0]","mutagen_history":"[1,1,1,0,0,1,1,1,0,1]","location_rts":"[1287,634,1632,1370,923,707,888,445,814,1438]","trial_type":"fractal-mutation","trial_index":61,"time_elapsed":1242575,"internal_node_id":"0.0-5.0-7.0"},{"group":"tri cycles (cube, non-group)","fractal_assignment":["../images/cyn_red.png","../images/org_blu.png","../images/pnk_blu.png","../images/ylw_slt.png","../images/blu_wht.png","../images/ylw_pnk.png","../images/grn_red.png","../images/gry_blk.png"],"mutagen_generator_assignment":[1,0],"goal":3,"start":2,"action_noise":0.1,"location_history":"[2,6,4,0,3]","action_history":"[1,0,1,1]","mutagen_history":"[0,1,0,0]","location_rts":"[1629,873,1133,938]","trial_type":"fractal-mutation","trial_index":62,"time_elapsed":1254759,"internal_node_id":"0.0-5.0-8.0"},{"group":"tri cycles (cube, non-group)","fractal_assignment":["../images/cyn_red.png","../images/org_blu.png","../images/pnk_blu.png","../images/ylw_slt.png","../images/blu_wht.png","../images/ylw_pnk.png","../images/grn_red.png","../images/gry_blk.png"],"mutagen_generator_assignment":[1,0],"goal":7,"start":3,"action_noise":0.1,"location_history":"[3,7]","action_history":"[0]","mutagen_history":"[1]","location_rts":"[917]","trial_type":"fractal-mutation","trial_index":63,"time_elapsed":1260216,"internal_node_id":"0.0-5.0-9.0"},{"group":"tri cycles (cube, non-group)","fractal_assignment":["../images/cyn_red.png","../images/org_blu.png","../images/pnk_blu.png","../images/ylw_slt.png","../images/blu_wht.png","../images/ylw_pnk.png","../images/grn_red.png","../images/gry_blk.png"],"mutagen_generator_assignment":[1,0],"goal":0,"start":7,"action_noise":0.1,"location_history":"[7,6,5,2,6,5,2,1,0]","action_history":"[0,1,0,1,1,1,0,0]","mutagen_history":"[1,0,1,0,0,0,1,1]","location_rts":"[1728,811,1683,1487,646,748,674,368]","trial_type":"fractal-mutation","trial_index":64,"time_elapsed":1280129,"internal_node_id":"0.0-5.0-10.0"},{"group":"tri cycles (cube, non-group)","fractal_assignment":["../images/cyn_red.png","../images/org_blu.png","../images/pnk_blu.png","../images/ylw_slt.png","../images/blu_wht.png","../images/ylw_pnk.png","../images/grn_red.png","../images/gry_blk.png"],"mutagen_generator_assignment":[1,0],"goal":1,"start":0,"action_noise":0.1,"location_history":"[0,3,7,6,5,1]","action_history":"[1,0,0,1,0]","mutagen_history":"[0,1,1,0,1]","location_rts":"[2742,1250,442,529,761]","trial_type":"fractal-mutation","trial_index":65,"time_elapsed":1294500,"internal_node_id":"0.0-5.0-11.0"},{"group":"tri cycles (cube, non-group)","fractal_assignment":["../images/cyn_red.png","../images/org_blu.png","../images/pnk_blu.png","../images/ylw_slt.png","../images/blu_wht.png","../images/ylw_pnk.png","../images/grn_red.png","../images/gry_blk.png"],"mutagen_generator_assignment":[1,0],"goal":6,"start":1,"action_noise":0.1,"location_history":"[1,0,3,7,6]","action_history":"[0,1,0,0]","mutagen_history":"[1,0,1,1]","location_rts":"[1765,1166,848,402]","trial_type":"fractal-mutation","trial_index":66,"time_elapsed":1306301,"internal_node_id":"0.0-5.0-12.0"},{"group":"tri cycles (cube, non-group)","fractal_assignment":["../images/cyn_red.png","../images/org_blu.png","../images/pnk_blu.png","../images/ylw_slt.png","../images/blu_wht.png","../images/ylw_pnk.png","../images/grn_red.png","../images/gry_blk.png"],"mutagen_generator_assignment":[1,0],"goal":4,"start":6,"action_noise":0.1,"location_history":"[6,4]","action_history":"[0]","mutagen_history":"[1]","location_rts":"[2199]","trial_type":"fractal-mutation","trial_index":67,"time_elapsed":1313032,"internal_node_id":"0.0-5.0-13.0"},{"group":"tri cycles (cube, non-group)","fractal_assignment":["../images/cyn_red.png","../images/org_blu.png","../images/pnk_blu.png","../images/ylw_slt.png","../images/blu_wht.png","../images/ylw_pnk.png","../images/grn_red.png","../images/gry_blk.png"],"mutagen_generator_assignment":[1,0],"goal":5,"start":4,"action_noise":0.1,"location_history":"[4,7,3,7,6,5]","action_history":"[1,1,0,0,1]","mutagen_history":"[0,0,1,1,0]","location_rts":"[1333,659,750,549,727]","trial_type":"fractal-mutation","trial_index":68,"time_elapsed":1325697,"internal_node_id":"0.0-5.0-14.0"},{"group":"tri cycles (cube, non-group)","fractal_assignment":["../images/cyn_red.png","../images/org_blu.png","../images/pnk_blu.png","../images/ylw_slt.png","../images/blu_wht.png","../images/ylw_pnk.png","../images/grn_red.png","../images/gry_blk.png"],"mutagen_generator_assignment":[1,0],"goal":4,"start":5,"action_noise":0.1,"location_history":"[5,1,0,3,7,6,4]","action_history":"[0,0,1,0,0,0]","mutagen_history":"[1,1,0,1,1,1]","location_rts":"[908,1802,1450,960,874,658]","trial_type":"fractal-mutation","trial_index":69,"time_elapsed":1342047,"internal_node_id":"0.0-5.0-15.0"},{"group":"tri cycles (cube, non-group)","fractal_assignment":["../images/cyn_red.png","../images/org_blu.png","../images/pnk_blu.png","../images/ylw_slt.png","../images/blu_wht.png","../images/ylw_pnk.png","../images/grn_red.png","../images/gry_blk.png"],"mutagen_generator_assignment":[1,0],"goal":0,"start":4,"action_noise":0.1,"location_history":"[4,7,6,5,1,0]","action_history":"[0,0,1,0,0]","mutagen_history":"[1,1,0,1,1]","location_rts":"[1073,493,729,1187,679]","trial_type":"fractal-mutation","trial_index":70,"time_elapsed":1354882,"internal_node_id":"0.0-5.0-16.0"},{"group":"tri cycles (cube, non-group)","fractal_assignment":["../images/cyn_red.png","../images/org_blu.png","../images/pnk_blu.png","../images/ylw_slt.png","../images/blu_wht.png","../images/ylw_pnk.png","../images/grn_red.png","../images/gry_blk.png"],"mutagen_generator_assignment":[1,0],"goal":7,"start":0,"action_noise":0.1,"location_history":"[0,3,7]","action_history":"[1,0]","mutagen_history":"[0,1]","location_rts":"[3245,546]","trial_type":"fractal-mutation","trial_index":71,"time_elapsed":1364241,"internal_node_id":"0.0-5.0-17.0"},{"group":"tri cycles (cube, non-group)","fractal_assignment":["../images/cyn_red.png","../images/org_blu.png","../images/pnk_blu.png","../images/ylw_slt.png","../images/blu_wht.png","../images/ylw_pnk.png","../images/grn_red.png","../images/gry_blk.png"],"mutagen_generator_assignment":[1,0],"goal":2,"start":7,"action_noise":0.1,"location_history":"[7,6,4,7,3,7,6,5,1,0,2]","action_history":"[0,0,0,1,0,0,1,0,0,0]","mutagen_history":"[1,1,1,0,1,1,0,1,1,1]","location_rts":"[1517,504,1148,1003,727,497,3468,749,767,1128]","trial_type":"fractal-mutation","trial_index":72,"time_elapsed":1389545,"internal_node_id":"0.0-5.0-18.0"},{"group":"tri cycles (cube, non-group)","fractal_assignment":["../images/cyn_red.png","../images/org_blu.png","../images/pnk_blu.png","../images/ylw_slt.png","../images/blu_wht.png","../images/ylw_pnk.png","../images/grn_red.png","../images/gry_blk.png"],"mutagen_generator_assignment":[1,0],"goal":1,"start":2,"action_noise":0.1,"location_history":"[2,1]","action_history":"[1]","mutagen_history":"[0]","location_rts":"[1781]","trial_type":"fractal-mutation","trial_index":73,"time_elapsed":1395855,"internal_node_id":"0.0-5.0-19.0"},{"group":"tri cycles (cube, non-group)","fractal_assignment":["../images/cyn_red.png","../images/org_blu.png","../images/pnk_blu.png","../images/ylw_slt.png","../images/blu_wht.png","../images/ylw_pnk.png","../images/grn_red.png","../images/gry_blk.png"],"mutagen_generator_assignment":[1,0],"goal":3,"start":1,"action_noise":0.1,"location_history":"[1,0,2,6,4,7,3]","action_history":"[0,0,1,0,0,1]","mutagen_history":"[1,1,0,1,1,0]","location_rts":"[1261,726,1003,645,671,725]","trial_type":"fractal-mutation","trial_index":74,"time_elapsed":1410573,"internal_node_id":"0.0-5.0-20.0"},{"group":"tri cycles (cube, non-group)","fractal_assignment":["../images/cyn_red.png","../images/org_blu.png","../images/pnk_blu.png","../images/ylw_slt.png","../images/blu_wht.png","../images/ylw_pnk.png","../images/grn_red.png","../images/gry_blk.png"],"mutagen_generator_assignment":[1,0],"goal":6,"start":3,"action_noise":0.1,"location_history":"[3,7,6]","action_history":"[0,0]","mutagen_history":"[1,1]","location_rts":"[1120,458]","trial_type":"fractal-mutation","trial_index":75,"time_elapsed":1417713,"internal_node_id":"0.0-5.0-21.0"},{"group":"tri cycles (cube, non-group)","fractal_assignment":["../images/cyn_red.png","../images/org_blu.png","../images/pnk_blu.png","../images/ylw_slt.png","../images/blu_wht.png","../images/ylw_pnk.png","../images/grn_red.png","../images/gry_blk.png"],"mutagen_generator_assignment":[1,0],"goal":5,"start":6,"action_noise":0.1,"location_history":"[6,4,7,3,4,7,6,5]","action_history":"[1,0,0,1,1,0,1]","mutagen_history":"[0,1,1,0,0,1,0]","location_rts":"[1603,897,720,1023,1016,687,884]","trial_type":"fractal-mutation","trial_index":76,"time_elapsed":1435254,"internal_node_id":"0.0-5.0-22.0"},{"group":"tri cycles (cube, non-group)","fractal_assignment":["../images/cyn_red.png","../images/org_blu.png","../images/pnk_blu.png","../images/ylw_slt.png","../images/blu_wht.png","../images/ylw_pnk.png","../images/grn_red.png","../images/gry_blk.png"],"mutagen_generator_assignment":[1,0],"goal":3,"start":5,"action_noise":0.1,"location_history":"[5,1,0,2,6,5,1,0,2,1,0,2,1,0,3]","action_history":"[0,0,0,0,1,0,0,0,1,0,0,0,0,1]","mutagen_history":"[1,1,1,1,0,1,1,1,0,1,1,1,1,0]","location_rts":"[1146,1966,1731,425,618,625,950,1372,787,587,831,1217,551,685]","trial_type":"fractal-mutation","trial_index":77,"time_elapsed":1466669,"internal_node_id":"0.0-5.0-23.0"},{"group":"tri cycles (cube, non-group)","fractal_assignment":["../images/cyn_red.png","../images/org_blu.png","../images/pnk_blu.png","../images/ylw_slt.png","../images/blu_wht.png","../images/ylw_pnk.png","../images/grn_red.png","../images/gry_blk.png"],"mutagen_generator_assignment":[1,0],"goal":0,"start":3,"action_noise":0.1,"location_history":"[3,7,3,4,7,6,5,2,1,5,1,5,2,1,0]","action_history":"[0,1,1,0,0,1,1,0,0,0,1,1,0,0]","mutagen_history":"[1,0,0,1,1,0,0,1,1,1,0,0,1,1]","location_rts":"[1608,779,1166,644,561,509,892,1048,386,1900,987,784,1110,415]","trial_type":"fractal-mutation","trial_index":78,"time_elapsed":1497368,"internal_node_id":"0.0-5.0-24.0"},{"group":"tri cycles (cube, non-group)","fractal_assignment":["../images/cyn_red.png","../images/org_blu.png","../images/pnk_blu.png","../images/ylw_slt.png","../images/blu_wht.png","../images/ylw_pnk.png","../images/grn_red.png","../images/gry_blk.png"],"mutagen_generator_assignment":[1,0],"goal":7,"start":0,"action_noise":0.1,"location_history":"[0,2,1,0,3,7]","action_history":"[1,0,0,1,0]","mutagen_history":"[0,1,1,0,1]","location_rts":"[3684,298,763,940,822]","trial_type":"fractal-mutation","trial_index":79,"time_elapsed":1512542,"internal_node_id":"0.0-5.0-25.0"},{"group":"tri cycles (cube, non-group)","fractal_assignment":["../images/cyn_red.png","../images/org_blu.png","../images/pnk_blu.png","../images/ylw_slt.png","../images/blu_wht.png","../images/ylw_pnk.png","../images/grn_red.png","../images/gry_blk.png"],"mutagen_generator_assignment":[1,0],"goal":2,"start":7,"action_noise":0.1,"location_history":"[7,6,4,0,2]","action_history":"[0,0,1,0]","mutagen_history":"[1,1,0,1]","location_rts":"[1672,741,805,519]","trial_type":"fractal-mutation","trial_index":80,"time_elapsed":1523912,"internal_node_id":"0.0-5.0-26.0"},{"group":"tri cycles (cube, non-group)","fractal_assignment":["../images/cyn_red.png","../images/org_blu.png","../images/pnk_blu.png","../images/ylw_slt.png","../images/blu_wht.png","../images/ylw_pnk.png","../images/grn_red.png","../images/gry_blk.png"],"mutagen_generator_assignment":[1,0],"goal":1,"start":2,"action_noise":0.1,"location_history":"[2,6,4,7,3,7,6,5,1]","action_history":"[1,0,0,1,0,0,1,0]","mutagen_history":"[0,1,1,0,1,1,0,1]","location_rts":"[22526,1030,931,1082,801,671,1032,684]","trial_type":"fractal-mutation","trial_index":81,"time_elapsed":1564398,"internal_node_id":"0.0-5.0-27.0"},{"group":"tri cycles (cube, non-group)","fractal_assignment":["../images/cyn_red.png","../images/org_blu.png","../images/pnk_blu.png","../images/ylw_slt.png","../images/blu_wht.png","../images/ylw_pnk.png","../images/grn_red.png","../images/gry_blk.png"],"mutagen_generator_assignment":[1,0],"goal":5,"start":1,"action_noise":0.1,"location_history":"[1,0,3,7,6,5]","action_history":"[0,1,0,0,1]","mutagen_history":"[1,0,1,1,0]","location_rts":"[2712,715,451,608,728]","trial_type":"fractal-mutation","trial_index":82,"time_elapsed":1578273,"internal_node_id":"0.0-5.0-28.0"},{"group":"tri cycles (cube, non-group)","fractal_assignment":["../images/cyn_red.png","../images/org_blu.png","../images/pnk_blu.png","../images/ylw_slt.png","../images/blu_wht.png","../images/ylw_pnk.png","../images/grn_red.png","../images/gry_blk.png"],"mutagen_generator_assignment":[1,0],"goal":4,"start":5,"action_noise":0.1,"location_history":"[5,1,5,2,6,5,1,5,1,0,2,6,4]","action_history":"[0,1,0,1,1,0,0,0,0,0,1,0]","mutagen_history":"[1,0,1,0,0,1,1,1,1,1,0,1]","location_rts":"[867,1010,549,960,496,650,492,781,615,940,598,1267]","trial_type":"fractal-mutation","trial_index":83,"time_elapsed":1603387,"internal_node_id":"0.0-5.0-29.0"},{"group":"tri cycles (cube, non-group)","fractal_assignment":["../images/cyn_red.png","../images/org_blu.png","../images/pnk_blu.png","../images/ylw_slt.png","../images/blu_wht.png","../images/ylw_pnk.png","../images/grn_red.png","../images/gry_blk.png"],"mutagen_generator_assignment":[1,0],"goal":6,"start":4,"action_noise":0.1,"location_history":"[4,0,3,7,6]","action_history":"[1,1,0,0]","mutagen_history":"[0,0,1,1]","location_rts":"[1364,1995,1004,466]","trial_type":"fractal-mutation","trial_index":84,"time_elapsed":1615836,"internal_node_id":"0.0-5.0-30.0"},{"group":"tri cycles (cube, non-group)","fractal_assignment":["../images/cyn_red.png","../images/org_blu.png","../images/pnk_blu.png","../images/ylw_slt.png","../images/blu_wht.png","../images/ylw_pnk.png","../images/grn_red.png","../images/gry_blk.png"],"mutagen_generator_assignment":[1,0],"goal":4,"start":6,"action_noise":0.1,"location_history":"[6,4]","action_history":"[0]","mutagen_history":"[1]","location_rts":"[1602]","trial_type":"fractal-mutation","trial_index":85,"time_elapsed":1621974,"internal_node_id":"0.0-5.0-31.0"},{"group":"tri cycles (cube, non-group)","fractal_assignment":["../images/cyn_red.png","../images/org_blu.png","../images/pnk_blu.png","../images/ylw_slt.png","../images/blu_wht.png","../images/ylw_pnk.png","../images/grn_red.png","../images/gry_blk.png"],"mutagen_generator_assignment":[1,0],"goal":2,"start":4,"action_noise":0.1,"location_history":"[4,7,6,4,7,6,4,7,3,7,6,5,1,5,2]","action_history":"[0,0,0,1,0,0,1,1,0,0,1,0,1,0]","mutagen_history":"[1,1,1,0,1,1,0,0,1,1,0,1,0,1]","location_rts":"[1127,1731,1080,454,639,863,1106,837,615,1036,858,1123,752,773]","trial_type":"fractal-mutation","trial_index":86,"time_elapsed":1652923,"internal_node_id":"0.0-5.0-32.0"},{"group":"tri cycles (cube, non-group)","fractal_assignment":["../images/cyn_red.png","../images/org_blu.png","../images/pnk_blu.png","../images/ylw_slt.png","../images/blu_wht.png","../images/ylw_pnk.png","../images/grn_red.png","../images/gry_blk.png"],"mutagen_generator_assignment":[1,0],"goal":0,"start":2,"action_noise":0.1,"location_history":"[2,1,0]","action_history":"[0,0]","mutagen_history":"[1,1]","location_rts":"[1149,512]","trial_type":"fractal-mutation","trial_index":87,"time_elapsed":1660145,"internal_node_id":"0.0-5.0-33.0"},{"group":"tri cycles (cube, non-group)","fractal_assignment":["../images/cyn_red.png","../images/org_blu.png","../images/pnk_blu.png","../images/ylw_slt.png","../images/blu_wht.png","../images/ylw_pnk.png","../images/grn_red.png","../images/gry_blk.png"],"mutagen_generator_assignment":[1,0],"goal":5,"start":0,"action_noise":0.1,"location_history":"[0,2,1,5]","action_history":"[0,0,1]","mutagen_history":"[1,1,0]","location_rts":"[2454,2046,736]","trial_type":"fractal-mutation","trial_index":88,"time_elapsed":1671968,"internal_node_id":"0.0-5.0-34.0"},{"group":"tri cycles (cube, non-group)","fractal_assignment":["../images/cyn_red.png","../images/org_blu.png","../images/pnk_blu.png","../images/ylw_slt.png","../images/blu_wht.png","../images/ylw_pnk.png","../images/grn_red.png","../images/gry_blk.png"],"mutagen_generator_assignment":[1,0],"goal":1,"start":5,"action_noise":0.1,"location_history":"[5,1]","action_history":"[0]","mutagen_history":"[1]","location_rts":"[1918]","trial_type":"fractal-mutation","trial_index":89,"time_elapsed":1678415,"internal_node_id":"0.0-5.0-35.0"},{"group":"tri cycles (cube, non-group)","fractal_assignment":["../images/cyn_red.png","../images/org_blu.png","../images/pnk_blu.png","../images/ylw_slt.png","../images/blu_wht.png","../images/ylw_pnk.png","../images/grn_red.png","../images/gry_blk.png"],"mutagen_generator_assignment":[1,0],"goal":7,"start":1,"action_noise":0.1,"location_history":"[1,5,1,0,2,1,0,2,6,4,7]","action_history":"[1,0,0,0,0,1,0,1,0,0]","mutagen_history":"[0,1,1,1,1,0,1,0,1,1]","location_rts":"[1488,867,1416,2388,633,1301,943,407,555,685]","trial_type":"fractal-mutation","trial_index":90,"time_elapsed":1702924,"internal_node_id":"0.0-5.0-36.0"},{"group":"tri cycles (cube, non-group)","fractal_assignment":["../images/cyn_red.png","../images/org_blu.png","../images/pnk_blu.png","../images/ylw_slt.png","../images/blu_wht.png","../images/ylw_pnk.png","../images/grn_red.png","../images/gry_blk.png"],"mutagen_generator_assignment":[1,0],"goal":3,"start":7,"action_noise":0.1,"location_history":"[7,6,5,1,0,2,1,5,2,1,5,1,5,2,1,0,3]","action_history":"[0,1,0,0,1,1,1,1,0,1,0,1,1,0,0,1]","mutagen_history":"[1,0,1,1,0,0,0,0,1,0,1,0,0,1,1,0]","location_rts":"[1200,673,830,1120,1053,1429,835,829,1353,740,512,770,617,989,912,861]","trial_type":"fractal-mutation","trial_index":91,"time_elapsed":1737627,"internal_node_id":"0.0-5.0-37.0"},{"group":"tri cycles (cube, non-group)","fractal_assignment":["../images/cyn_red.png","../images/org_blu.png","../images/pnk_blu.png","../images/ylw_slt.png","../images/blu_wht.png","../images/ylw_pnk.png","../images/grn_red.png","../images/gry_blk.png"],"mutagen_generator_assignment":[1,0],"goal":6,"start":3,"action_noise":0.1,"location_history":"[3,7,6]","action_history":"[0,0]","mutagen_history":"[1,1]","location_rts":"[1932,553]","trial_type":"fractal-mutation","trial_index":92,"time_elapsed":1745700,"internal_node_id":"0.0-5.0-38.0"},{"group":"tri cycles (cube, non-group)","fractal_assignment":["../images/cyn_red.png","../images/org_blu.png","../images/pnk_blu.png","../images/ylw_slt.png","../images/blu_wht.png","../images/ylw_pnk.png","../images/grn_red.png","../images/gry_blk.png"],"mutagen_generator_assignment":[1,0],"goal":2,"start":6,"action_noise":0.1,"location_history":"[6,4,0,2]","action_history":"[0,1,0]","mutagen_history":"[1,0,1]","location_rts":"[1096,2052,694]","trial_type":"fractal-mutation","trial_index":93,"time_elapsed":1756150,"internal_node_id":"0.0-5.0-39.0"},{"group":"tri cycles (cube, non-group)","fractal_assignment":["../images/cyn_red.png","../images/org_blu.png","../images/pnk_blu.png","../images/ylw_slt.png","../images/blu_wht.png","../images/ylw_pnk.png","../images/grn_red.png","../images/gry_blk.png"],"mutagen_generator_assignment":[1,0],"goal":1,"start":2,"action_noise":0.1,"location_history":"[2,6,4,0,2,6,5,1]","action_history":"[1,0,1,1,1,1,0]","mutagen_history":"[0,1,0,0,0,0,1]","location_rts":"[1558,752,635,381,775,761,467]","trial_type":"fractal-mutation","trial_index":94,"time_elapsed":1772170,"internal_node_id":"0.0-5.0-40.0"},{"group":"tri cycles (cube, non-group)","fractal_assignment":["../images/cyn_red.png","../images/org_blu.png","../images/pnk_blu.png","../images/ylw_slt.png","../images/blu_wht.png","../images/ylw_pnk.png","../images/grn_red.png","../images/gry_blk.png"],"mutagen_generator_assignment":[1,0],"goal":0,"start":1,"action_noise":0.1,"location_history":"[1,5,2,6,5,2,1,0]","action_history":"[1,1,0,1,1,0,0]","mutagen_history":"[0,0,1,0,0,1,1]","location_rts":"[2341,1084,684,1074,339,762,554]","trial_type":"fractal-mutation","trial_index":95,"time_elapsed":1789706,"internal_node_id":"0.0-5.0-41.0"},{"group":"tri cycles (cube, non-group)","fractal_assignment":["../images/cyn_red.png","../images/org_blu.png","../images/pnk_blu.png","../images/ylw_slt.png","../images/blu_wht.png","../images/ylw_pnk.png","../images/grn_red.png","../images/gry_blk.png"],"mutagen_generator_assignment":[1,0],"goal":4,"start":0,"action_noise":0.1,"location_history":"[0,3,7,6,4]","action_history":"[0,1,0,0]","mutagen_history":"[1,0,1,1]","location_rts":"[1740,902,644,470]","trial_type":"fractal-mutation","trial_index":96,"time_elapsed":1801080,"internal_node_id":"0.0-5.0-42.0"},{"group":"tri cycles (cube, non-group)","fractal_assignment":["../images/cyn_red.png","../images/org_blu.png","../images/pnk_blu.png","../images/ylw_slt.png","../images/blu_wht.png","../images/ylw_pnk.png","../images/grn_red.png","../images/gry_blk.png"],"mutagen_generator_assignment":[1,0],"goal":6,"start":4,"action_noise":0.1,"location_history":"[4,7,6]","action_history":"[0,0]","mutagen_history":"[1,1]","location_rts":"[2565,433]","trial_type":"fractal-mutation","trial_index":97,"time_elapsed":1809647,"internal_node_id":"0.0-5.0-43.0"},{"group":"tri cycles (cube, non-group)","fractal_assignment":["../images/cyn_red.png","../images/org_blu.png","../images/pnk_blu.png","../images/ylw_slt.png","../images/blu_wht.png","../images/ylw_pnk.png","../images/grn_red.png","../images/gry_blk.png"],"mutagen_generator_assignment":[1,0],"goal":3,"start":6,"action_noise":0.1,"location_history":"[6,4,0,3]","action_history":"[0,0,1]","mutagen_history":"[1,1,0]","location_rts":"[1863,1262,812]","trial_type":"fractal-mutation","trial_index":98,"time_elapsed":1820197,"internal_node_id":"0.0-5.0-44.0"},{"group":"tri cycles (cube, non-group)","fractal_assignment":["../images/cyn_red.png","../images/org_blu.png","../images/pnk_blu.png","../images/ylw_slt.png","../images/blu_wht.png","../images/ylw_pnk.png","../images/grn_red.png","../images/gry_blk.png"],"mutagen_generator_assignment":[1,0],"goal":7,"start":3,"action_noise":0.1,"location_history":"[3,7]","action_history":"[0]","mutagen_history":"[1]","location_rts":"[954]","trial_type":"fractal-mutation","trial_index":99,"time_elapsed":1825689,"internal_node_id":"0.0-5.0-45.0"},{"group":"tri cycles (cube, non-group)","fractal_assignment":["../images/cyn_red.png","../images/org_blu.png","../images/pnk_blu.png","../images/ylw_slt.png","../images/blu_wht.png","../images/ylw_pnk.png","../images/grn_red.png","../images/gry_blk.png"],"mutagen_generator_assignment":[1,0],"goal":5,"start":7,"action_noise":0.1,"location_history":"[7,3,7,6,5]","action_history":"[1,0,0,1]","mutagen_history":"[0,1,1,0]","location_rts":"[1166,873,875,919]","trial_type":"fractal-mutation","trial_index":100,"time_elapsed":1837150,"internal_node_id":"0.0-5.0-46.0"},{"group":"tri cycles (cube, non-group)","fractal_assignment":["../images/cyn_red.png","../images/org_blu.png","../images/pnk_blu.png","../images/ylw_slt.png","../images/blu_wht.png","../images/ylw_pnk.png","../images/grn_red.png","../images/gry_blk.png"],"mutagen_generator_assignment":[1,0],"goal":1,"start":5,"action_noise":0.1,"location_history":"[5,1]","action_history":"[0]","mutagen_history":"[1]","location_rts":"[906]","trial_type":"fractal-mutation","trial_index":101,"time_elapsed":1842593,"internal_node_id":"0.0-5.0-47.0"},{"group":"tri cycles (cube, non-group)","fractal_assignment":["../images/cyn_red.png","../images/org_blu.png","../images/pnk_blu.png","../images/ylw_slt.png","../images/blu_wht.png","../images/ylw_pnk.png","../images/grn_red.png","../images/gry_blk.png"],"mutagen_generator_assignment":[1,0],"goal":6,"start":1,"action_noise":0.1,"location_history":"[1,0,3,7,6]","action_history":"[0,1,0,0]","mutagen_history":"[1,0,1,1]","location_rts":"[1236,698,625,647]","trial_type":"fractal-mutation","trial_index":102,"time_elapsed":1853428,"internal_node_id":"0.0-5.0-48.0"},{"group":"tri cycles (cube, non-group)","fractal_assignment":["../images/cyn_red.png","../images/org_blu.png","../images/pnk_blu.png","../images/ylw_slt.png","../images/blu_wht.png","../images/ylw_pnk.png","../images/grn_red.png","../images/gry_blk.png"],"mutagen_generator_assignment":[1,0],"goal":0,"start":6,"action_noise":0.1,"location_history":"[6,4,7,3,4,0]","action_history":"[0,0,0,1,1]","mutagen_history":"[1,1,1,0,0]","location_rts":"[2555,608,550,835,944]","trial_type":"fractal-mutation","trial_index":103,"time_elapsed":1867586,"internal_node_id":"0.0-5.0-49.0"},{"view_history":"[{\"page_index\":0,\"viewing_time\":19264}]","rt":19264,"trial_type":"instructions","trial_index":104,"time_elapsed":1887851,"internal_node_id":"0.0-6.0"},{"rt":10342,"responses":"{\"Q0\":\"No.\"}","trial_type":"survey-text","trial_index":105,"time_elapsed":1899196,"internal_node_id":"0.0-7.0"}]