[{"view_history":"[{\"page_index\":0,\"viewing_time\":4961},{\"page_index\":1,\"viewing_time\":20866}]","rt":25830,"trial_type":"instructions","trial_index":0,"time_elapsed":25831,"internal_node_id":"0.0-0.0"},{"view_history":"[{\"page_index\":0,\"viewing_time\":10348},{\"page_index\":1,\"viewing_time\":16805}]","rt":27154,"trial_type":"instructions","trial_index":1,"time_elapsed":53987,"internal_node_id":"0.0-1.0"},{"group":"square cycles (cube, non-group)","room_assignment":["green","purple","pink","brown","red","grey","yellow","blue"],"door_color_assignment":["white","black"],"door_generator_assignment":[1,0],"goal":6,"start":3,"action_noise":0.1,"location_history":"[3,2,6]","action_history":"[1,1]","door_history":"[0,0]","location_rts":"[2547,579]","trial_type":"two-door-navigation","trial_index":2,"time_elapsed":62693,"internal_node_id":"0.0-2.0-0.0"},{"group":"square cycles (cube, non-group)","room_assignment":["green","purple","pink","brown","red","grey","yellow","blue"],"door_color_assignment":["white","black"],"door_generator_assignment":[1,0],"goal":1,"start":6,"action_noise":0.1,"location_history":"[6,5,4,5,4,7,6,7,3,2,6,7,6,5,4,5,1]","action_history":"[0,0,0,0,0,0,1,1,1,1,1,0,0,0,1,1]","door_history":"[1,1,1,1,1,1,0,0,0,0,0,1,1,1,0,0]","location_rts":"[4098,476,614,382,374,882,778,427,405,605,380,1105,388,657,735,762]","trial_type":"two-door-navigation","trial_index":3,"time_elapsed":95768,"internal_node_id":"0.0-2.0-1.0"},{"group":"square cycles (cube, non-group)","room_assignment":["green","purple","pink","brown","red","grey","yellow","blue"],"door_color_assignment":["white","black"],"door_generator_assignment":[1,0],"goal":2,"start":1,"action_noise":0.1,"location_history":"[1,0,4,5,1,0,1,0,4,7,6,5,1,0,4,7,3,2]","action_history":"[1,1,1,1,1,1,1,0,0,0,0,0,1,1,1,1,1]","door_history":"[0,0,0,0,0,0,0,1,1,1,1,1,0,0,0,0,0]","location_rts":"[3196,406,346,347,353,396,381,832,373,968,381,369,704,344,341,357,520]","trial_type":"two-door-navigation","trial_index":4,"time_elapsed":127366,"internal_node_id":"0.0-2.0-2.0"},{"group":"square cycles (cube, non-group)","room_assignment":["green","purple","pink","brown","red","grey","yellow","blue"],"door_color_assignment":["white","black"],"door_generator_assignment":[1,0],"goal":0,"start":2,"action_noise":0.1,"location_history":"[2,6,7,3,2,6,5,1,2,3,2,3,0]","action_history":"[1,1,1,1,1,0,0,0,0,0,0,0]","door_history":"[0,0,0,0,0,1,1,1,1,1,1,1]","location_rts":"[1477,412,363,306,360,625,368,385,327,369,352,462]","trial_type":"two-door-navigation","trial_index":5,"time_elapsed":149048,"internal_node_id":"0.0-2.0-3.0"},{"group":"square cycles (cube, non-group)","room_assignment":["green","purple","pink","brown","red","grey","yellow","blue"],"door_color_assignment":["white","black"],"door_generator_assignment":[1,0],"goal":7,"start":0,"action_noise":0.1,"location_history":"[0,4,5,1,0,4,5,4,7]","action_history":"[1,1,1,1,1,1,0,0]","door_history":"[0,0,0,0,0,0,1,1]","location_rts":"[830,870,714,2892,1297,396,985,330]","trial_type":"two-door-navigation","trial_index":6,"time_elapsed":169106,"internal_node_id":"0.0-2.0-4.0"},{"group":"square cycles (cube, non-group)","room_assignment":["green","purple","pink","brown","red","grey","yellow","blue"],"door_color_assignment":["white","black"],"door_generator_assignment":[1,0],"goal":5,"start":7,"action_noise":0.1,"location_history":"[7,6,5]","action_history":"[0,0]","door_history":"[1,1]","location_rts":"[1132,391]","trial_type":"two-door-navigation","trial_index":7,"time_elapsed":176188,"internal_node_id":"0.0-2.0-5.0"},{"group":"square cycles (cube, non-group)","room_assignment":["green","purple","pink","brown","red","grey","yellow","blue"],"door_color_assignment":["white","black"],"door_generator_assignment":[1,0],"goal":4,"start":5,"action_noise":0.1,"location_history":"[5,4]","action_history":"[0]","door_history":"[1]","location_rts":"[377]","trial_type":"two-door-navigation","trial_index":8,"time_elapsed":181104,"internal_node_id":"0.0-2.0-6.0"},{"group":"square cycles (cube, non-group)","room_assignment":["green","purple","pink","brown","red","grey","yellow","blue"],"door_color_assignment":["white","black"],"door_generator_assignment":[1,0],"goal":2,"start":4,"action_noise":0.1,"location_history":"[4,5,1,0,4,7,6,5,4,7,6,7,3,2]","action_history":"[1,1,1,1,0,0,0,0,0,0,1,1,1]","door_history":"[0,0,0,0,1,1,1,1,1,1,0,0,0]","location_rts":"[1873,556,2491,648,1029,629,533,400,377,524,978,376,430]","trial_type":"two-door-navigation","trial_index":9,"time_elapsed":208822,"internal_node_id":"0.0-2.0-7.0"},{"group":"square cycles (cube, non-group)","room_assignment":["green","purple","pink","brown","red","grey","yellow","blue"],"door_color_assignment":["white","black"],"door_generator_assignment":[1,0],"goal":3,"start":2,"action_noise":0.1,"location_history":"[2,6,7,3]","action_history":"[1,1,1]","door_history":"[0,0,0]","location_rts":"[1083,374,331]","trial_type":"two-door-navigation","trial_index":10,"time_elapsed":217202,"internal_node_id":"0.0-2.0-8.0"},{"group":"square cycles (cube, non-group)","room_assignment":["green","purple","pink","brown","red","grey","yellow","blue"],"door_color_assignment":["white","black"],"door_generator_assignment":[1,0],"goal":7,"start":3,"action_noise":0.1,"location_history":"[3,0,1,2,6,5,1,2,3,0,1,2,6,7]","action_history":"[0,0,0,1,1,1,0,0,0,0,0,1,1]","door_history":"[1,1,1,0,0,0,1,1,1,1,1,0,0]","location_rts":"[1929,854,1133,4624,581,683,1168,368,492,586,563,1072,312]","trial_type":"two-door-navigation","trial_index":11,"time_elapsed":248447,"internal_node_id":"0.0-2.0-9.0"},{"group":"square cycles (cube, non-group)","room_assignment":["green","purple","pink","brown","red","grey","yellow","blue"],"door_color_assignment":["white","black"],"door_generator_assignment":[1,0],"goal":0,"start":7,"action_noise":0.1,"location_history":"[7,3,2,6,5,4,7,6,5,4,7,3,2,6,7,3,2,6,5,4,7,6,5,1,0]","action_history":"[1,1,1,0,0,0,0,0,0,1,1,1,1,1,1,1,1,0,0,0,0,0,1,1]","door_history":"[0,0,0,1,1,1,1,1,1,0,0,0,0,0,0,0,0,1,1,1,1,1,0,0]","location_rts":"[832,479,475,1340,1666,374,625,582,532,1181,423,395,372,508,343,333,362,1014,387,432,528,568,980,386]","trial_type":"two-door-navigation","trial_index":12,"time_elapsed":291810,"internal_node_id":"0.0-2.0-10.0"},{"group":"square cycles (cube, non-group)","room_assignment":["green","purple","pink","brown","red","grey","yellow","blue"],"door_color_assignment":["white","black"],"door_generator_assignment":[1,0],"goal":1,"start":0,"action_noise":0.1,"location_history":"[0,4,5,1]","action_history":"[1,1,1]","door_history":"[0,0,0]","location_rts":"[1011,361,401]","trial_type":"two-door-navigation","trial_index":13,"time_elapsed":300196,"internal_node_id":"0.0-2.0-11.0"},{"group":"square cycles (cube, non-group)","room_assignment":["green","purple","pink","brown","red","grey","yellow","blue"],"door_color_assignment":["white","black"],"door_generator_assignment":[1,0],"goal":6,"start":1,"action_noise":0.1,"location_history":"[1,0,4,7,6]","action_history":"[1,1,0,0]","door_history":"[0,0,1,1]","location_rts":"[885,395,864,351]","trial_type":"two-door-navigation","trial_index":14,"time_elapsed":310345,"internal_node_id":"0.0-2.0-12.0"},{"group":"square cycles (cube, non-group)","room_assignment":["green","purple","pink","brown","red","grey","yellow","blue"],"door_color_assignment":["white","black"],"door_generator_assignment":[1,0],"goal":4,"start":6,"action_noise":0.1,"location_history":"[6,5,4]","action_history":"[0,0]","door_history":"[1,1]","location_rts":"[1551,360]","trial_type":"two-door-navigation","trial_index":15,"time_elapsed":317818,"internal_node_id":"0.0-2.0-13.0"},{"group":"square cycles (cube, non-group)","room_assignment":["green","purple","pink","brown","red","grey","yellow","blue"],"door_color_assignment":["white","black"],"door_generator_assignment":[1,0],"goal":5,"start":4,"action_noise":0.1,"location_history":"[4,7,3,2,3,2,6,7,3,0,1,2,3,0,1,2,6,7,3,2,6,5]","action_history":"[0,1,1,1,1,1,1,1,1,0,0,0,0,0,1,1,1,1,1,1,0]","door_history":"[1,0,0,0,0,0,0,0,0,1,1,1,1,1,0,0,0,0,0,0,1]","location_rts":"[3070,884,272,653,782,460,518,522,1033,1002,333,429,496,623,1372,377,352,442,349,536,715]","trial_type":"two-door-navigation","trial_index":16,"time_elapsed":358194,"internal_node_id":"0.0-2.0-14.0"},{"group":"square cycles (cube, non-group)","room_assignment":["green","purple","pink","brown","red","grey","yellow","blue"],"door_color_assignment":["white","black"],"door_generator_assignment":[1,0],"goal":4,"start":5,"action_noise":0.1,"location_history":"[5,1,0,4]","action_history":"[1,1,1]","door_history":"[0,0,0]","location_rts":"[990,537,410]","trial_type":"two-door-navigation","trial_index":17,"time_elapsed":366732,"internal_node_id":"0.0-2.0-15.0"},{"group":"square cycles (cube, non-group)","room_assignment":["green","purple","pink","brown","red","grey","yellow","blue"],"door_color_assignment":["white","black"],"door_generator_assignment":[1,0],"goal":0,"start":4,"action_noise":0.1,"location_history":"[4,5,1,0]","action_history":"[1,1,1]","door_history":"[0,0,0]","location_rts":"[893,436,335]","trial_type":"two-door-navigation","trial_index":18,"time_elapsed":375026,"internal_node_id":"0.0-2.0-16.0"},{"group":"square cycles (cube, non-group)","room_assignment":["green","purple","pink","brown","red","grey","yellow","blue"],"door_color_assignment":["white","black"],"door_generator_assignment":[1,0],"goal":7,"start":0,"action_noise":0.1,"location_history":"[0,4,5,1,0,4,7]","action_history":"[1,1,1,1,1,0]","door_history":"[0,0,0,0,0,1]","location_rts":"[1442,394,551,581,730,1300]","trial_type":"two-door-navigation","trial_index":19,"time_elapsed":389699,"internal_node_id":"0.0-2.0-17.0"},{"group":"square cycles (cube, non-group)","room_assignment":["green","purple","pink","brown","red","grey","yellow","blue"],"door_color_assignment":["white","black"],"door_generator_assignment":[1,0],"goal":2,"start":7,"action_noise":0.1,"location_history":"[7,6,5,4,7,3,2]","action_history":"[0,0,0,0,0,1]","door_history":"[1,1,1,1,1,0]","location_rts":"[1189,4205,411,322,366,1367]","trial_type":"two-door-navigation","trial_index":20,"time_elapsed":407244,"internal_node_id":"0.0-2.0-18.0"},{"group":"square cycles (cube, non-group)","room_assignment":["green","purple","pink","brown","red","grey","yellow","blue"],"door_color_assignment":["white","black"],"door_generator_assignment":[1,0],"goal":1,"start":2,"action_noise":0.1,"location_history":"[2,6,7,3,0,1]","action_history":"[1,1,1,1,0]","door_history":"[0,0,0,0,1]","location_rts":"[1544,350,523,602,1185]","trial_type":"two-door-navigation","trial_index":21,"time_elapsed":420089,"internal_node_id":"0.0-2.0-19.0"},{"group":"square cycles (cube, non-group)","room_assignment":["green","purple","pink","brown","red","grey","yellow","blue"],"door_color_assignment":["white","black"],"door_generator_assignment":[1,0],"goal":3,"start":1,"action_noise":0.1,"location_history":"[1,2,3]","action_history":"[0,0]","door_history":"[1,1]","location_rts":"[863,313]","trial_type":"two-door-navigation","trial_index":22,"time_elapsed":426832,"internal_node_id":"0.0-2.0-20.0"},{"group":"square cycles (cube, non-group)","room_assignment":["green","purple","pink","brown","red","grey","yellow","blue"],"door_color_assignment":["white","black"],"door_generator_assignment":[1,0],"goal":6,"start":3,"action_noise":0.1,"location_history":"[3,0,1,2,3,0,1,2,3,0,4,5,1,0,4,5,4,7,6]","action_history":"[0,0,0,0,0,0,0,0,0,1,1,1,1,1,1,0,0,0]","door_history":"[1,1,1,1,1,1,1,1,1,0,0,0,0,0,0,1,1,1]","location_rts":"[1100,491,441,410,394,343,341,501,440,737,336,490,385,549,458,788,383,700]","trial_type":"two-door-navigation","trial_index":23,"time_elapsed":458190,"internal_node_id":"0.0-2.0-21.0"},{"group":"square cycles (cube, non-group)","room_assignment":["green","purple","pink","brown","red","grey","yellow","blue"],"door_color_assignment":["white","black"],"door_generator_assignment":[1,0],"goal":5,"start":6,"action_noise":0.1,"location_history":"[6,5]","action_history":"[0]","door_history":"[1]","location_rts":"[1051]","trial_type":"two-door-navigation","trial_index":24,"time_elapsed":463776,"internal_node_id":"0.0-2.0-22.0"},{"group":"square cycles (cube, non-group)","room_assignment":["green","purple","pink","brown","red","grey","yellow","blue"],"door_color_assignment":["white","black"],"door_generator_assignment":[1,0],"goal":3,"start":5,"action_noise":0.1,"location_history":"[5,1,0,4,5,4,7,6,5,1,0,4,5,4,7,6,7,3]","action_history":"[1,1,1,1,0,0,0,0,0,1,1,1,0,0,0,1,1]","door_history":"[0,0,0,0,1,1,1,1,1,0,0,0,1,1,1,0,0]","location_rts":"[2022,432,545,387,417,370,555,493,1005,980,806,656,1284,543,718,1137,477]","trial_type":"two-door-navigation","trial_index":25,"time_elapsed":497576,"internal_node_id":"0.0-2.0-23.0"},{"group":"square cycles (cube, non-group)","room_assignment":["green","purple","pink","brown","red","grey","yellow","blue"],"door_color_assignment":["white","black"],"door_generator_assignment":[1,0],"goal":0,"start":3,"action_noise":0.1,"location_history":"[3,2,6,7,6,5,1,2,3,0]","action_history":"[1,1,1,0,0,0,0,0,0]","door_history":"[0,0,0,1,1,1,1,1,1]","location_rts":"[923,592,475,1331,370,421,387,357,418]","trial_type":"two-door-navigation","trial_index":26,"time_elapsed":515634,"internal_node_id":"0.0-2.0-24.0"},{"group":"square cycles (cube, non-group)","room_assignment":["green","purple","pink","brown","red","grey","yellow","blue"],"door_color_assignment":["white","black"],"door_generator_assignment":[1,0],"goal":7,"start":0,"action_noise":0.1,"location_history":"[0,4,5,1,0,4,5,4,7]","action_history":"[0,1,1,1,1,1,0,0]","door_history":"[1,0,0,0,0,0,1,1]","location_rts":"[1768,5719,743,407,527,525,1051,446]","trial_type":"two-door-navigation","trial_index":27,"time_elapsed":538623,"internal_node_id":"0.0-2.0-25.0"},{"group":"square cycles (cube, non-group)","room_assignment":["green","purple","pink","brown","red","grey","yellow","blue"],"door_color_assignment":["white","black"],"door_generator_assignment":[1,0],"goal":2,"start":7,"action_noise":0.1,"location_history":"[7,6,5,4,5,1,0,4,5,4,7,6,7,6,7,3,2]","action_history":"[0,0,0,0,1,1,1,1,1,0,0,0,0,1,1,1]","door_history":"[1,1,1,1,0,0,0,0,0,1,1,1,1,0,0,0]","location_rts":"[1036,397,352,517,645,358,3830,762,832,1108,335,376,389,849,313,456]","trial_type":"two-door-navigation","trial_index":28,"time_elapsed":571142,"internal_node_id":"0.0-2.0-26.0"},{"group":"square cycles (cube, non-group)","room_assignment":["green","purple","pink","brown","red","grey","yellow","blue"],"door_color_assignment":["white","black"],"door_generator_assignment":[1,0],"goal":1,"start":2,"action_noise":0.1,"location_history":"[2,6,7,3,2,3,0,1]","action_history":"[1,1,1,1,0,0,0]","door_history":"[0,0,0,0,1,1,1]","location_rts":"[1029,508,341,417,508,266,341]","trial_type":"two-door-navigation","trial_index":29,"time_elapsed":585269,"internal_node_id":"0.0-2.0-27.0"},{"group":"square cycles (cube, non-group)","room_assignment":["green","purple","pink","brown","red","grey","yellow","blue"],"door_color_assignment":["white","black"],"door_generator_assignment":[1,0],"goal":5,"start":1,"action_noise":0.1,"location_history":"[1,2,3,0,1,0,4,7,3,2,3,2,6,7,3,2,3,0,1,2,3,0,4,7,3,0,1,2,6,7,3,2,6,7,3,0,1,2,3,0,4,5]","action_history":"[0,0,0,0,1,1,1,1,0,0,1,1,1,1,1,0,0,0,0,0,0,1,1,1,0,0,0,1,1,1,1,1,1,0,0,0,0,0,0,1,1]","door_history":"[1,1,1,1,0,0,0,0,1,1,0,0,0,0,0,1,1,1,1,1,1,0,0,0,1,1,1,0,0,0,0,0,0,1,1,1,1,1,1,0,0]","location_rts":"[1141,547,441,384,736,417,488,628,639,419,637,491,443,572,538,775,348,326,417,366,456,582,361,765,881,418,392,908,410,545,481,867,428,857,614,570,375,486,739,554,395]","trial_type":"two-door-navigation","trial_index":30,"time_elapsed":653859,"internal_node_id":"0.0-2.0-28.0"},{"group":"square cycles (cube, non-group)","room_assignment":["green","purple","pink","brown","red","grey","yellow","blue"],"door_color_assignment":["white","black"],"door_generator_assignment":[1,0],"goal":4,"start":5,"action_noise":0.1,"location_history":"[5,4]","action_history":"[0]","door_history":"[1]","location_rts":"[1278]","trial_type":"two-door-navigation","trial_index":31,"time_elapsed":659671,"internal_node_id":"0.0-2.0-29.0"},{"group":"square cycles (cube, non-group)","room_assignment":["green","purple","pink","brown","red","grey","yellow","blue"],"door_color_assignment":["white","black"],"door_generator_assignment":[1,0],"goal":6,"start":4,"action_noise":0.1,"location_history":"[4,5,1,0,4,7,6]","action_history":"[1,1,1,1,0,0]","door_history":"[0,0,0,0,1,1]","location_rts":"[2304,853,1474,755,891,318]","trial_type":"two-door-navigation","trial_index":32,"time_elapsed":675965,"internal_node_id":"0.0-2.0-30.0"},{"group":"square cycles (cube, non-group)","room_assignment":["green","purple","pink","brown","red","grey","yellow","blue"],"door_color_assignment":["white","black"],"door_generator_assignment":[1,0],"goal":4,"start":6,"action_noise":0.1,"location_history":"[6,5,4]","action_history":"[0,0]","door_history":"[1,1]","location_rts":"[1900,493]","trial_type":"two-door-navigation","trial_index":33,"time_elapsed":683911,"internal_node_id":"0.0-2.0-31.0"},{"group":"square cycles (cube, non-group)","room_assignment":["green","purple","pink","brown","red","grey","yellow","blue"],"door_color_assignment":["white","black"],"door_generator_assignment":[1,0],"goal":2,"start":4,"action_noise":0.1,"location_history":"[4,5,1,0,4,5,4,7,6,5,4,7,3,0,4,7,6,5,4,5,1,0,4,7,3,0,4,5,1,2]","action_history":"[1,1,1,1,1,0,0,0,0,0,0,1,1,1,1,0,0,0,1,1,1,1,0,0,0,0,1,1,0]","door_history":"[0,0,0,0,0,1,1,1,1,1,1,0,0,0,0,1,1,1,0,0,0,0,1,1,1,1,0,0,1]","location_rts":"[1098,604,347,493,393,980,343,326,339,631,380,881,299,346,398,1305,382,401,919,348,407,417,852,346,440,402,733,425,766]","trial_type":"two-door-navigation","trial_index":34,"time_elapsed":733270,"internal_node_id":"0.0-2.0-32.0"},{"group":"square cycles (cube, non-group)","room_assignment":["green","purple","pink","brown","red","grey","yellow","blue"],"door_color_assignment":["white","black"],"door_generator_assignment":[1,0],"goal":0,"start":2,"action_noise":0.1,"location_history":"[2,3,0]","action_history":"[0,0]","door_history":"[1,1]","location_rts":"[2173,1749]","trial_type":"two-door-navigation","trial_index":35,"time_elapsed":742749,"internal_node_id":"0.0-2.0-33.0"},{"group":"square cycles (cube, non-group)","room_assignment":["green","purple","pink","brown","red","grey","yellow","blue"],"door_color_assignment":["white","black"],"door_generator_assignment":[1,0],"goal":5,"start":0,"action_noise":0.1,"location_history":"[0,4,5]","action_history":"[1,1]","door_history":"[0,0]","location_rts":"[2465,463]","trial_type":"two-door-navigation","trial_index":36,"time_elapsed":751234,"internal_node_id":"0.0-2.0-34.0"},{"group":"square cycles (cube, non-group)","room_assignment":["green","purple","pink","brown","red","grey","yellow","blue"],"door_color_assignment":["white","black"],"door_generator_assignment":[1,0],"goal":1,"start":5,"action_noise":0.1,"location_history":"[5,1]","action_history":"[1]","door_history":"[0]","location_rts":"[1248]","trial_type":"two-door-navigation","trial_index":37,"time_elapsed":757011,"internal_node_id":"0.0-2.0-35.0"},{"group":"square cycles (cube, non-group)","room_assignment":["green","purple","pink","brown","red","grey","yellow","blue"],"door_color_assignment":["white","black"],"door_generator_assignment":[1,0],"goal":7,"start":1,"action_noise":0.1,"location_history":"[1,0,4,5,4,7]","action_history":"[1,1,1,0,0]","door_history":"[0,0,0,1,1]","location_rts":"[724,378,387,835,349]","trial_type":"two-door-navigation","trial_index":38,"time_elapsed":768332,"internal_node_id":"0.0-2.0-36.0"},{"group":"square cycles (cube, non-group)","room_assignment":["green","purple","pink","brown","red","grey","yellow","blue"],"door_color_assignment":["white","black"],"door_generator_assignment":[1,0],"goal":3,"start":7,"action_noise":0.1,"location_history":"[7,6,5,4,7,3]","action_history":"[0,0,0,0,1]","door_history":"[1,1,1,1,0]","location_rts":"[966,306,589,337,683]","trial_type":"two-door-navigation","trial_index":39,"time_elapsed":779861,"internal_node_id":"0.0-2.0-37.0"},{"group":"square cycles (cube, non-group)","room_assignment":["green","purple","pink","brown","red","grey","yellow","blue"],"door_color_assignment":["white","black"],"door_generator_assignment":[1,0],"goal":6,"start":3,"action_noise":0.1,"location_history":"[3,2,6]","action_history":"[1,1]","door_history":"[0,0]","location_rts":"[11686,498]","trial_type":"two-door-navigation","trial_index":40,"time_elapsed":797640,"internal_node_id":"0.0-2.0-38.0"},{"group":"square cycles (cube, non-group)","room_assignment":["green","purple","pink","brown","red","grey","yellow","blue"],"door_color_assignment":["white","black"],"door_generator_assignment":[1,0],"goal":2,"start":6,"action_noise":0.1,"location_history":"[6,5,1,0,4,5,1,2]","action_history":"[0,1,1,1,1,1,0]","door_history":"[1,0,0,0,0,0,1]","location_rts":"[1590,5620,353,314,276,859,1144]","trial_type":"two-door-navigation","trial_index":41,"time_elapsed":818517,"internal_node_id":"0.0-2.0-39.0"},{"group":"square cycles (cube, non-group)","room_assignment":["green","purple","pink","brown","red","grey","yellow","blue"],"door_color_assignment":["white","black"],"door_generator_assignment":[1,0],"goal":1,"start":2,"action_noise":0.1,"location_history":"[2,3,0,1]","action_history":"[0,0,0]","door_history":"[1,1,1]","location_rts":"[1024,372,412]","trial_type":"two-door-navigation","trial_index":42,"time_elapsed":826937,"internal_node_id":"0.0-2.0-40.0"},{"group":"square cycles (cube, non-group)","room_assignment":["green","purple","pink","brown","red","grey","yellow","blue"],"door_color_assignment":["white","black"],"door_generator_assignment":[1,0],"goal":0,"start":1,"action_noise":0.1,"location_history":"[1,0]","action_history":"[1]","door_history":"[0]","location_rts":"[1501]","trial_type":"two-door-navigation","trial_index":43,"time_elapsed":832970,"internal_node_id":"0.0-2.0-41.0"},{"group":"square cycles (cube, non-group)","room_assignment":["green","purple","pink","brown","red","grey","yellow","blue"],"door_color_assignment":["white","black"],"door_generator_assignment":[1,0],"goal":4,"start":0,"action_noise":0.1,"location_history":"[0,4]","action_history":"[1]","door_history":"[0]","location_rts":"[949]","trial_type":"two-door-navigation","trial_index":44,"time_elapsed":838465,"internal_node_id":"0.0-2.0-42.0"},{"group":"square cycles (cube, non-group)","room_assignment":["green","purple","pink","brown","red","grey","yellow","blue"],"door_color_assignment":["white","black"],"door_generator_assignment":[1,0],"goal":6,"start":4,"action_noise":0.1,"location_history":"[4,7,6]","action_history":"[0,0]","door_history":"[1,1]","location_rts":"[1685,406]","trial_type":"two-door-navigation","trial_index":45,"time_elapsed":846138,"internal_node_id":"0.0-2.0-43.0"},{"group":"square cycles (cube, non-group)","room_assignment":["green","purple","pink","brown","red","grey","yellow","blue"],"door_color_assignment":["white","black"],"door_generator_assignment":[1,0],"goal":3,"start":6,"action_noise":0.1,"location_history":"[6,7,3]","action_history":"[1,1]","door_history":"[0,0]","location_rts":"[1716,904]","trial_type":"two-door-navigation","trial_index":46,"time_elapsed":854337,"internal_node_id":"0.0-2.0-44.0"},{"group":"square cycles (cube, non-group)","room_assignment":["green","purple","pink","brown","red","grey","yellow","blue"],"door_color_assignment":["white","black"],"door_generator_assignment":[1,0],"goal":7,"start":3,"action_noise":0.1,"location_history":"[3,2,6,7]","action_history":"[1,1,1]","door_history":"[0,0,0]","location_rts":"[1303,381,352]","trial_type":"two-door-navigation","trial_index":47,"time_elapsed":863042,"internal_node_id":"0.0-2.0-45.0"},{"group":"square cycles (cube, non-group)","room_assignment":["green","purple","pink","brown","red","grey","yellow","blue"],"door_color_assignment":["white","black"],"door_generator_assignment":[1,0],"goal":5,"start":7,"action_noise":0.1,"location_history":"[7,3,0,1,2,3,0,4,5]","action_history":"[0,0,0,0,0,1,1,1]","door_history":"[1,1,1,1,1,0,0,0]","location_rts":"[1432,351,362,358,590,912,376,373]","trial_type":"two-door-navigation","trial_index":48,"time_elapsed":879548,"internal_node_id":"0.0-2.0-46.0"},{"group":"square cycles (cube, non-group)","room_assignment":["green","purple","pink","brown","red","grey","yellow","blue"],"door_color_assignment":["white","black"],"door_generator_assignment":[1,0],"goal":1,"start":5,"action_noise":0.1,"location_history":"[5,4,5,1]","action_history":"[1,1,1]","door_history":"[0,0,0]","location_rts":"[907,394,384]","trial_type":"two-door-navigation","trial_index":49,"time_elapsed":887831,"internal_node_id":"0.0-2.0-47.0"},{"group":"square cycles (cube, non-group)","room_assignment":["green","purple","pink","brown","red","grey","yellow","blue"],"door_color_assignment":["white","black"],"door_generator_assignment":[1,0],"goal":6,"start":1,"action_noise":0.1,"location_history":"[1,2,3,0,1,0,4,5,1,0,4,7,6]","action_history":"[0,0,0,0,1,1,1,1,1,0,0,0]","door_history":"[1,1,1,1,0,0,0,0,0,1,1,1]","location_rts":"[15648,438,347,430,961,400,369,358,425,332,344,326]","trial_type":"two-door-navigation","trial_index":50,"time_elapsed":924076,"internal_node_id":"0.0-2.0-48.0"},{"group":"square cycles (cube, non-group)","room_assignment":["green","purple","pink","brown","red","grey","yellow","blue"],"door_color_assignment":["white","black"],"door_generator_assignment":[1,0],"goal":0,"start":6,"action_noise":0.1,"location_history":"[6,7,6,7,6,5,4,7,3,2,6,7,3,0]","action_history":"[1,1,1,0,0,0,0,1,1,1,1,1,0]","door_history":"[0,0,0,1,1,1,1,0,0,0,0,0,1]","location_rts":"[5315,398,483,394,339,435,353,628,10892,501,410,562,663]","trial_type":"two-door-navigation","trial_index":51,"time_elapsed":962594,"internal_node_id":"0.0-2.0-49.0"},{"view_history":"[{\"page_index\":0,\"viewing_time\":243489}]","rt":243489,"trial_type":"instructions","trial_index":52,"time_elapsed":1207085,"internal_node_id":"0.0-3.0"},{"view_history":"[{\"page_index\":0,\"viewing_time\":2659},{\"page_index\":1,\"viewing_time\":22264}]","rt":24924,"trial_type":"instructions","trial_index":53,"time_elapsed":1233010,"internal_node_id":"0.0-4.0"},{"group":"tri cycles (cube, non-group)","fractal_assignment":["../images/ylw_pnk.png","../images/blu_wht.png","../images/ylw_slt.png","../images/org_blu.png","../images/gry_blk.png","../images/grn_red.png","../images/cyn_red.png","../images/pnk_blu.png"],"mutagen_generator_assignment":[0,1],"goal":6,"start":3,"action_noise":0.1,"location_history":"[3,7,3,7,3,7,3,4,7,6]","action_history":"[0,1,1,0,0,1,1,0,0]","mutagen_history":"[0,1,1,0,0,1,1,0,0]","location_rts":"[3540,537,757,487,1690,529,320,1159,1228]","trial_type":"fractal-mutation","trial_index":54,"time_elapsed":1256323,"internal_node_id":"0.0-5.0-0.0"},{"group":"tri cycles (cube, non-group)","fractal_assignment":["../images/ylw_pnk.png","../images/blu_wht.png","../images/ylw_slt.png","../images/org_blu.png","../images/gry_blk.png","../images/grn_red.png","../images/cyn_red.png","../images/pnk_blu.png"],"mutagen_generator_assignment":[0,1],"goal":1,"start":6,"action_noise":0.1,"location_history":"[6,5,1]","action_history":"[1,0]","mutagen_history":"[1,0]","location_rts":"[1309,434]","trial_type":"fractal-mutation","trial_index":55,"time_elapsed":1263759,"internal_node_id":"0.0-5.0-1.0"},{"group":"tri cycles (cube, non-group)","fractal_assignment":["../images/ylw_pnk.png","../images/blu_wht.png","../images/ylw_slt.png","../images/org_blu.png","../images/gry_blk.png","../images/grn_red.png","../images/cyn_red.png","../images/pnk_blu.png"],"mutagen_generator_assignment":[0,1],"goal":2,"start":1,"action_noise":0.1,"location_history":"[1,0,3,4,7,6,5,2]","action_history":"[0,1,1,0,1,1,1]","mutagen_history":"[0,1,1,0,1,1,1]","location_rts":"[13029,1090,509,378,573,381,446]","trial_type":"fractal-mutation","trial_index":56,"time_elapsed":1291114,"internal_node_id":"0.0-5.0-2.0"},{"group":"tri cycles (cube, non-group)","fractal_assignment":["../images/ylw_pnk.png","../images/blu_wht.png","../images/ylw_slt.png","../images/org_blu.png","../images/gry_blk.png","../images/grn_red.png","../images/cyn_red.png","../images/pnk_blu.png"],"mutagen_generator_assignment":[0,1],"goal":0,"start":2,"action_noise":0.1,"location_history":"[2,1,0]","action_history":"[0,0]","mutagen_history":"[0,0]","location_rts":"[722,661]","trial_type":"fractal-mutation","trial_index":57,"time_elapsed":1298099,"internal_node_id":"0.0-5.0-3.0"},{"group":"tri cycles (cube, non-group)","fractal_assignment":["../images/ylw_pnk.png","../images/blu_wht.png","../images/ylw_slt.png","../images/org_blu.png","../images/gry_blk.png","../images/grn_red.png","../images/cyn_red.png","../images/pnk_blu.png"],"mutagen_generator_assignment":[0,1],"goal":7,"start":0,"action_noise":0.1,"location_history":"[0,3,4,7]","action_history":"[1,1,0]","mutagen_history":"[1,1,0]","location_rts":"[1560,1501,1955]","trial_type":"fractal-mutation","trial_index":58,"time_elapsed":1309790,"internal_node_id":"0.0-5.0-4.0"},{"group":"tri cycles (cube, non-group)","fractal_assignment":["../images/ylw_pnk.png","../images/blu_wht.png","../images/ylw_slt.png","../images/org_blu.png","../images/gry_blk.png","../images/grn_red.png","../images/cyn_red.png","../images/pnk_blu.png"],"mutagen_generator_assignment":[0,1],"goal":5,"start":7,"action_noise":0.1,"location_history":"[7,6,5]","action_history":"[0,1]","mutagen_history":"[0,1]","location_rts":"[4865,794]","trial_type":"fractal-mutation","trial_index":59,"time_elapsed":1321062,"internal_node_id":"0.0-5.0-5.0"},{"group":"tri cycles (cube, non-group)","fractal_assignment":["../images/ylw_pnk.png","../images/blu_wht.png","../images/ylw_slt.png","../images/org_blu.png","../images/gry_blk.png","../images/grn_red.png","../images/cyn_red.png","../images/pnk_blu.png"],"mutagen_generator_assignment":[0,1],"goal":4,"start":5,"action_noise":0.1,"location_history":"[5,1,5,2,1,0,2,1,0,2,6,4]","action_history":"[0,1,1,0,0,0,0,1,0,1,0]","mutagen_history":"[0,1,1,0,0,0,0,1,0,1,0]","location_rts":"[55889,1076,5093,392,402,456,856,533,477,1172,695]","trial_type":"fractal-mutation","trial_index":60,"time_elapsed":1403266,"internal_node_id":"0.0-5.0-6.0"},{"group":"tri cycles (cube, non-group)","fractal_assignment":["../images/ylw_pnk.png","../images/blu_wht.png","../images/ylw_slt.png","../images/org_blu.png","../images/gry_blk.png","../images/grn_red.png","../images/cyn_red.png","../images/pnk_blu.png"],"mutagen_generator_assignment":[0,1],"goal":2,"start":4,"action_noise":0.1,"location_history":"[4,7,3,4,0,2]","action_history":"[0,1,1,1,0]","mutagen_history":"[0,1,1,1,0]","location_rts":"[3971,515,410,462,413]","trial_type":"fractal-mutation","trial_index":61,"time_elapsed":1417841,"internal_node_id":"0.0-5.0-7.0"},{"group":"tri cycles (cube, non-group)","fractal_assignment":["../images/ylw_pnk.png","../images/blu_wht.png","../images/ylw_slt.png","../images/org_blu.png","../images/gry_blk.png","../images/grn_red.png","../images/cyn_red.png","../images/pnk_blu.png"],"mutagen_generator_assignment":[0,1],"goal":3,"start":2,"action_noise":0.1,"location_history":"[2,1,0,3]","action_history":"[0,0,1]","mutagen_history":"[0,0,1]","location_rts":"[4365,852,1239]","trial_type":"fractal-mutation","trial_index":62,"time_elapsed":1430942,"internal_node_id":"0.0-5.0-8.0"},{"group":"tri cycles (cube, non-group)","fractal_assignment":["../images/ylw_pnk.png","../images/blu_wht.png","../images/ylw_slt.png","../images/org_blu.png","../images/gry_blk.png","../images/grn_red.png","../images/cyn_red.png","../images/pnk_blu.png"],"mutagen_generator_assignment":[0,1],"goal":7,"start":3,"action_noise":0.1,"location_history":"[3,7]","action_history":"[0]","mutagen_history":"[0]","location_rts":"[11722]","trial_type":"fractal-mutation","trial_index":63,"time_elapsed":1447237,"internal_node_id":"0.0-5.0-9.0"},{"group":"tri cycles (cube, non-group)","fractal_assignment":["../images/ylw_pnk.png","../images/blu_wht.png","../images/ylw_slt.png","../images/org_blu.png","../images/gry_blk.png","../images/grn_red.png","../images/cyn_red.png","../images/pnk_blu.png"],"mutagen_generator_assignment":[0,1],"goal":0,"start":7,"action_noise":0.1,"location_history":"[7,6,4,7,3,4,0]","action_history":"[0,0,0,0,1,1]","mutagen_history":"[0,0,0,0,1,1]","location_rts":"[2773,1032,694,717,1550,409]","trial_type":"fractal-mutation","trial_index":64,"time_elapsed":1464218,"internal_node_id":"0.0-5.0-10.0"},{"group":"tri cycles (cube, non-group)","fractal_assignment":["../images/ylw_pnk.png","../images/blu_wht.png","../images/ylw_slt.png","../images/org_blu.png","../images/gry_blk.png","../images/grn_red.png","../images/cyn_red.png","../images/pnk_blu.png"],"mutagen_generator_assignment":[0,1],"goal":1,"start":0,"action_noise":0.1,"location_history":"[0,3,7,6,4,0,3,4,7,6,4,0,3,7,6,4,7,6,5,1]","action_history":"[1,0,0,0,1,1,1,0,1,1,1,1,0,0,0,0,0,1,0]","mutagen_history":"[1,0,0,0,1,1,1,0,1,1,1,1,0,0,0,0,0,1,0]","location_rts":"[1338,787,533,797,1094,581,589,430,591,637,754,516,543,582,612,648,1085,641,352]","trial_type":"fractal-mutation","trial_index":65,"time_elapsed":1500783,"internal_node_id":"0.0-5.0-11.0"},{"group":"tri cycles (cube, non-group)","fractal_assignment":["../images/ylw_pnk.png","../images/blu_wht.png","../images/ylw_slt.png","../images/org_blu.png","../images/gry_blk.png","../images/grn_red.png","../images/cyn_red.png","../images/pnk_blu.png"],"mutagen_generator_assignment":[0,1],"goal":6,"start":1,"action_noise":0.1,"location_history":"[1,0,3,4,0,3,4,7,6]","action_history":"[0,1,1,0,1,1,0,0]","mutagen_history":"[0,1,1,0,1,1,0,0]","location_rts":"[860,718,825,518,952,1062,552,716]","trial_type":"fractal-mutation","trial_index":66,"time_elapsed":1518908,"internal_node_id":"0.0-5.0-12.0"},{"group":"tri cycles (cube, non-group)","fractal_assignment":["../images/ylw_pnk.png","../images/blu_wht.png","../images/ylw_slt.png","../images/org_blu.png","../images/gry_blk.png","../images/grn_red.png","../images/cyn_red.png","../images/pnk_blu.png"],"mutagen_generator_assignment":[0,1],"goal":4,"start":6,"action_noise":0.1,"location_history":"[6,4]","action_history":"[0]","mutagen_history":"[0]","location_rts":"[711]","trial_type":"fractal-mutation","trial_index":67,"time_elapsed":1524171,"internal_node_id":"0.0-5.0-13.0"},{"group":"tri cycles (cube, non-group)","fractal_assignment":["../images/ylw_pnk.png","../images/blu_wht.png","../images/ylw_slt.png","../images/org_blu.png","../images/gry_blk.png","../images/grn_red.png","../images/cyn_red.png","../images/pnk_blu.png"],"mutagen_generator_assignment":[0,1],"goal":5,"start":4,"action_noise":0.1,"location_history":"[4,7,3,4,0,2,1,0,2,6,5]","action_history":"[0,1,1,1,0,0,0,1,1,1]","mutagen_history":"[0,1,1,1,0,0,0,1,1,1]","location_rts":"[1747,587,632,476,1448,555,657,785,326,811]","trial_type":"fractal-mutation","trial_index":68,"time_elapsed":1546394,"internal_node_id":"0.0-5.0-14.0"},{"group":"tri cycles (cube, non-group)","fractal_assignment":["../images/ylw_pnk.png","../images/blu_wht.png","../images/ylw_slt.png","../images/org_blu.png","../images/gry_blk.png","../images/grn_red.png","../images/cyn_red.png","../images/pnk_blu.png"],"mutagen_generator_assignment":[0,1],"goal":4,"start":5,"action_noise":0.1,"location_history":"[5,1,5,1,0,2,6,5,1,0,3,4]","action_history":"[0,1,0,0,0,1,1,1,0,1,1]","mutagen_history":"[0,1,0,0,0,1,1,1,0,1,1]","location_rts":"[435,758,1233,418,422,505,569,508,624,666,785]","trial_type":"fractal-mutation","trial_index":69,"time_elapsed":1568412,"internal_node_id":"0.0-5.0-15.0"},{"group":"tri cycles (cube, non-group)","fractal_assignment":["../images/ylw_pnk.png","../images/blu_wht.png","../images/ylw_slt.png","../images/org_blu.png","../images/gry_blk.png","../images/grn_red.png","../images/cyn_red.png","../images/pnk_blu.png"],"mutagen_generator_assignment":[0,1],"goal":0,"start":4,"action_noise":0.1,"location_history":"[4,7,3,4,0]","action_history":"[0,1,1,1]","mutagen_history":"[0,1,1,1]","location_rts":"[517,633,714,532]","trial_type":"fractal-mutation","trial_index":70,"time_elapsed":1578522,"internal_node_id":"0.0-5.0-16.0"},{"group":"tri cycles (cube, non-group)","fractal_assignment":["../images/ylw_pnk.png","../images/blu_wht.png","../images/ylw_slt.png","../images/org_blu.png","../images/gry_blk.png","../images/grn_red.png","../images/cyn_red.png","../images/pnk_blu.png"],"mutagen_generator_assignment":[0,1],"goal":7,"start":0,"action_noise":0.1,"location_history":"[0,2,6,5,1,0,3,4,0,2,6,4,0,3,4,7]","action_history":"[1,1,1,0,0,1,1,1,0,0,0,1,1,1,0]","mutagen_history":"[1,1,1,0,0,1,1,1,0,0,0,1,1,1,0]","location_rts":"[1093,458,834,703,537,478,384,588,369,468,559,611,423,461,417]","trial_type":"fractal-mutation","trial_index":71,"time_elapsed":1606245,"internal_node_id":"0.0-5.0-17.0"},{"group":"tri cycles (cube, non-group)","fractal_assignment":["../images/ylw_pnk.png","../images/blu_wht.png","../images/ylw_slt.png","../images/org_blu.png","../images/gry_blk.png","../images/grn_red.png","../images/cyn_red.png","../images/pnk_blu.png"],"mutagen_generator_assignment":[0,1],"goal":2,"start":7,"action_noise":0.1,"location_history":"[7,3,4,0,2]","action_history":"[1,1,0,0]","mutagen_history":"[1,1,0,0]","location_rts":"[885,985,334,384]","trial_type":"fractal-mutation","trial_index":72,"time_elapsed":1616539,"internal_node_id":"0.0-5.0-18.0"},{"group":"tri cycles (cube, non-group)","fractal_assignment":["../images/ylw_pnk.png","../images/blu_wht.png","../images/ylw_slt.png","../images/org_blu.png","../images/gry_blk.png","../images/grn_red.png","../images/cyn_red.png","../images/pnk_blu.png"],"mutagen_generator_assignment":[0,1],"goal":1,"start":2,"action_noise":0.1,"location_history":"[2,1]","action_history":"[0]","mutagen_history":"[0]","location_rts":"[992]","trial_type":"fractal-mutation","trial_index":73,"time_elapsed":1622079,"internal_node_id":"0.0-5.0-19.0"},{"group":"tri cycles (cube, non-group)","fractal_assignment":["../images/ylw_pnk.png","../images/blu_wht.png","../images/ylw_slt.png","../images/org_blu.png","../images/gry_blk.png","../images/grn_red.png","../images/cyn_red.png","../images/pnk_blu.png"],"mutagen_generator_assignment":[0,1],"goal":3,"start":1,"action_noise":0.1,"location_history":"[1,0,3]","action_history":"[0,1]","mutagen_history":"[0,1]","location_rts":"[696,422]","trial_type":"fractal-mutation","trial_index":74,"time_elapsed":1628796,"internal_node_id":"0.0-5.0-20.0"},{"group":"tri cycles (cube, non-group)","fractal_assignment":["../images/ylw_pnk.png","../images/blu_wht.png","../images/ylw_slt.png","../images/org_blu.png","../images/gry_blk.png","../images/grn_red.png","../images/cyn_red.png","../images/pnk_blu.png"],"mutagen_generator_assignment":[0,1],"goal":6,"start":3,"action_noise":0.1,"location_history":"[3,4,0,2,1,5,2,6]","action_history":"[1,1,0,0,1,1,1]","mutagen_history":"[1,1,0,0,1,1,1]","location_rts":"[1023,703,768,461,403,1014,547]","trial_type":"fractal-mutation","trial_index":75,"time_elapsed":1644610,"internal_node_id":"0.0-5.0-21.0"},{"group":"tri cycles (cube, non-group)","fractal_assignment":["../images/ylw_pnk.png","../images/blu_wht.png","../images/ylw_slt.png","../images/org_blu.png","../images/gry_blk.png","../images/grn_red.png","../images/cyn_red.png","../images/pnk_blu.png"],"mutagen_generator_assignment":[0,1],"goal":5,"start":6,"action_noise":0.1,"location_history":"[6,5]","action_history":"[1]","mutagen_history":"[1]","location_rts":"[920]","trial_type":"fractal-mutation","trial_index":76,"time_elapsed":1650098,"internal_node_id":"0.0-5.0-22.0"},{"group":"tri cycles (cube, non-group)","fractal_assignment":["../images/ylw_pnk.png","../images/blu_wht.png","../images/ylw_slt.png","../images/org_blu.png","../images/gry_blk.png","../images/grn_red.png","../images/cyn_red.png","../images/pnk_blu.png"],"mutagen_generator_assignment":[0,1],"goal":3,"start":5,"action_noise":0.1,"location_history":"[5,2,6,4,7,3]","action_history":"[1,0,0,0,1]","mutagen_history":"[1,0,0,0,1]","location_rts":"[726,405,431,540,421]","trial_type":"fractal-mutation","trial_index":77,"time_elapsed":1661382,"internal_node_id":"0.0-5.0-23.0"},{"group":"tri cycles (cube, non-group)","fractal_assignment":["../images/ylw_pnk.png","../images/blu_wht.png","../images/ylw_slt.png","../images/org_blu.png","../images/gry_blk.png","../images/grn_red.png","../images/cyn_red.png","../images/pnk_blu.png"],"mutagen_generator_assignment":[0,1],"goal":0,"start":3,"action_noise":0.1,"location_history":"[3,4,7,6,5,2,1,5,1,0]","action_history":"[1,0,0,1,1,0,0,0,0]","mutagen_history":"[1,0,0,1,1,0,0,0,0]","location_rts":"[458,910,486,610,353,447,682,1164,566]","trial_type":"fractal-mutation","trial_index":78,"time_elapsed":1679989,"internal_node_id":"0.0-5.0-24.0"},{"group":"tri cycles (cube, non-group)","fractal_assignment":["../images/ylw_pnk.png","../images/blu_wht.png","../images/ylw_slt.png","../images/org_blu.png","../images/gry_blk.png","../images/grn_red.png","../images/cyn_red.png","../images/pnk_blu.png"],"mutagen_generator_assignment":[0,1],"goal":7,"start":0,"action_noise":0.1,"location_history":"[0,2,6,4,0,3,7]","action_history":"[1,1,0,1,0,0]","mutagen_history":"[1,1,0,1,0,0]","location_rts":"[1551,632,385,1668,1057,988]","trial_type":"fractal-mutation","trial_index":79,"time_elapsed":1696108,"internal_node_id":"0.0-5.0-25.0"},{"group":"tri cycles (cube, non-group)","fractal_assignment":["../images/ylw_pnk.png","../images/blu_wht.png","../images/ylw_slt.png","../images/org_blu.png","../images/gry_blk.png","../images/grn_red.png","../images/cyn_red.png","../images/pnk_blu.png"],"mutagen_generator_assignment":[0,1],"goal":2,"start":7,"action_noise":0.1,"location_history":"[7,3,4,7,3,7,3,4,0,2]","action_history":"[1,1,0,0,0,1,1,1,0]","mutagen_history":"[1,1,0,0,0,1,1,1,0]","location_rts":"[882,492,381,831,647,908,380,466,372]","trial_type":"fractal-mutation","trial_index":80,"time_elapsed":1714475,"internal_node_id":"0.0-5.0-26.0"},{"group":"tri cycles (cube, non-group)","fractal_assignment":["../images/ylw_pnk.png","../images/blu_wht.png","../images/ylw_slt.png","../images/org_blu.png","../images/gry_blk.png","../images/grn_red.png","../images/cyn_red.png","../images/pnk_blu.png"],"mutagen_generator_assignment":[0,1],"goal":1,"start":2,"action_noise":0.1,"location_history":"[2,6,4,7,6,4,7,3,4,0,3,4,0,2,6,5,1]","action_history":"[1,0,0,0,0,1,1,1,1,0,0,1,1,1,1,0]","mutagen_history":"[1,0,0,0,0,1,1,1,1,0,0,1,1,1,1,0]","location_rts":"[697,357,378,591,483,673,580,779,614,582,370,582,416,571,426,423]","trial_type":"fractal-mutation","trial_index":81,"time_elapsed":1743356,"internal_node_id":"0.0-5.0-27.0"},{"group":"tri cycles (cube, non-group)","fractal_assignment":["../images/ylw_pnk.png","../images/blu_wht.png","../images/ylw_slt.png","../images/org_blu.png","../images/gry_blk.png","../images/grn_red.png","../images/cyn_red.png","../images/pnk_blu.png"],"mutagen_generator_assignment":[0,1],"goal":5,"start":1,"action_noise":0.1,"location_history":"[1,0,2,6,5]","action_history":"[0,0,1,1]","mutagen_history":"[0,0,1,1]","location_rts":"[757,1343,383,346]","trial_type":"fractal-mutation","trial_index":82,"time_elapsed":1753907,"internal_node_id":"0.0-5.0-28.0"},{"group":"tri cycles (cube, non-group)","fractal_assignment":["../images/ylw_pnk.png","../images/blu_wht.png","../images/ylw_slt.png","../images/org_blu.png","../images/gry_blk.png","../images/grn_red.png","../images/cyn_red.png","../images/pnk_blu.png"],"mutagen_generator_assignment":[0,1],"goal":4,"start":5,"action_noise":0.1,"location_history":"[5,2,6,4]","action_history":"[1,0,0]","mutagen_history":"[1,0,0]","location_rts":"[18368,8192,428]","trial_type":"fractal-mutation","trial_index":83,"time_elapsed":1787539,"internal_node_id":"0.0-5.0-29.0"},{"group":"tri cycles (cube, non-group)","fractal_assignment":["../images/ylw_pnk.png","../images/blu_wht.png","../images/ylw_slt.png","../images/org_blu.png","../images/gry_blk.png","../images/grn_red.png","../images/cyn_red.png","../images/pnk_blu.png"],"mutagen_generator_assignment":[0,1],"goal":6,"start":4,"action_noise":0.1,"location_history":"[4,7,3,4,7,6]","action_history":"[0,1,1,0,0]","mutagen_history":"[0,1,1,0,0]","location_rts":"[2034,521,875,352,460]","trial_type":"fractal-mutation","trial_index":84,"time_elapsed":1800546,"internal_node_id":"0.0-5.0-30.0"},{"group":"tri cycles (cube, non-group)","fractal_assignment":["../images/ylw_pnk.png","../images/blu_wht.png","../images/ylw_slt.png","../images/org_blu.png","../images/gry_blk.png","../images/grn_red.png","../images/cyn_red.png","../images/pnk_blu.png"],"mutagen_generator_assignment":[0,1],"goal":4,"start":6,"action_noise":0.1,"location_history":"[6,5,2,1,0,2,1,5,2,1,0,3,7,3,4]","action_history":"[1,1,0,0,0,0,1,1,0,0,0,0,1,1]","mutagen_history":"[1,1,0,0,0,0,1,1,0,0,0,0,1,1]","location_rts":"[645,471,420,430,446,530,311,384,409,484,531,553,562,545]","trial_type":"fractal-mutation","trial_index":85,"time_elapsed":1825494,"internal_node_id":"0.0-5.0-31.0"},{"group":"tri cycles (cube, non-group)","fractal_assignment":["../images/ylw_pnk.png","../images/blu_wht.png","../images/ylw_slt.png","../images/org_blu.png","../images/gry_blk.png","../images/grn_red.png","../images/cyn_red.png","../images/pnk_blu.png"],"mutagen_generator_assignment":[0,1],"goal":2,"start":4,"action_noise":0.1,"location_history":"[4,0,2]","action_history":"[1,0]","mutagen_history":"[1,0]","location_rts":"[888,844]","trial_type":"fractal-mutation","trial_index":86,"time_elapsed":1832840,"internal_node_id":"0.0-5.0-32.0"},{"group":"tri cycles (cube, non-group)","fractal_assignment":["../images/ylw_pnk.png","../images/blu_wht.png","../images/ylw_slt.png","../images/org_blu.png","../images/gry_blk.png","../images/grn_red.png","../images/cyn_red.png","../images/pnk_blu.png"],"mutagen_generator_assignment":[0,1],"goal":0,"start":2,"action_noise":0.1,"location_history":"[2,1,0]","action_history":"[0,0]","mutagen_history":"[0,0]","location_rts":"[2745,706]","trial_type":"fractal-mutation","trial_index":87,"time_elapsed":1841906,"internal_node_id":"0.0-5.0-33.0"},{"group":"tri cycles (cube, non-group)","fractal_assignment":["../images/ylw_pnk.png","../images/blu_wht.png","../images/ylw_slt.png","../images/org_blu.png","../images/gry_blk.png","../images/grn_red.png","../images/cyn_red.png","../images/pnk_blu.png"],"mutagen_generator_assignment":[0,1],"goal":5,"start":0,"action_noise":0.1,"location_history":"[0,3,4,0,3,4,7,6,5]","action_history":"[1,1,1,1,1,0,0,1]","mutagen_history":"[1,1,1,1,1,0,0,1]","location_rts":"[471,543,396,786,884,407,629,369]","trial_type":"fractal-mutation","trial_index":88,"time_elapsed":1858342,"internal_node_id":"0.0-5.0-34.0"},{"group":"tri cycles (cube, non-group)","fractal_assignment":["../images/ylw_pnk.png","../images/blu_wht.png","../images/ylw_slt.png","../images/org_blu.png","../images/gry_blk.png","../images/grn_red.png","../images/cyn_red.png","../images/pnk_blu.png"],"mutagen_generator_assignment":[0,1],"goal":1,"start":5,"action_noise":0.1,"location_history":"[5,1]","action_history":"[1]","mutagen_history":"[1]","location_rts":"[1238]","trial_type":"fractal-mutation","trial_index":89,"time_elapsed":1864146,"internal_node_id":"0.0-5.0-35.0"},{"group":"tri cycles (cube, non-group)","fractal_assignment":["../images/ylw_pnk.png","../images/blu_wht.png","../images/ylw_slt.png","../images/org_blu.png","../images/gry_blk.png","../images/grn_red.png","../images/cyn_red.png","../images/pnk_blu.png"],"mutagen_generator_assignment":[0,1],"goal":7,"start":1,"action_noise":0.1,"location_history":"[1,5,1,0,3,4,7]","action_history":"[1,0,0,1,1,0]","mutagen_history":"[1,0,0,1,1,0]","location_rts":"[1758,422,1500,454,845,735]","trial_type":"fractal-mutation","trial_index":90,"time_elapsed":1879649,"internal_node_id":"0.0-5.0-36.0"},{"group":"tri cycles (cube, non-group)","fractal_assignment":["../images/ylw_pnk.png","../images/blu_wht.png","../images/ylw_slt.png","../images/org_blu.png","../images/gry_blk.png","../images/grn_red.png","../images/cyn_red.png","../images/pnk_blu.png"],"mutagen_generator_assignment":[0,1],"goal":3,"start":7,"action_noise":0.1,"location_history":"[7,6,5,2,1,5,1,0,3]","action_history":"[0,1,1,0,1,0,0,1]","mutagen_history":"[0,1,1,0,1,0,0,1]","location_rts":"[1875,1017,405,398,1413,614,424,911]","trial_type":"fractal-mutation","trial_index":91,"time_elapsed":1898615,"internal_node_id":"0.0-5.0-37.0"},{"group":"tri cycles (cube, non-group)","fractal_assignment":["../images/ylw_pnk.png","../images/blu_wht.png","../images/ylw_slt.png","../images/org_blu.png","../images/gry_blk.png","../images/grn_red.png","../images/cyn_red.png","../images/pnk_blu.png"],"mutagen_generator_assignment":[0,1],"goal":6,"start":3,"action_noise":0.1,"location_history":"[3,4,0,2,1,0,3,7,6]","action_history":"[1,1,1,0,0,1,1,0]","mutagen_history":"[1,1,1,0,0,1,1,0]","location_rts":"[1253,680,848,427,574,944,842,397]","trial_type":"fractal-mutation","trial_index":92,"time_elapsed":1916502,"internal_node_id":"0.0-5.0-38.0"},{"group":"tri cycles (cube, non-group)","fractal_assignment":["../images/ylw_pnk.png","../images/blu_wht.png","../images/ylw_slt.png","../images/org_blu.png","../images/gry_blk.png","../images/grn_red.png","../images/cyn_red.png","../images/pnk_blu.png"],"mutagen_generator_assignment":[0,1],"goal":2,"start":6,"action_noise":0.1,"location_history":"[6,5,1,0,3,4,7,3,4,0,3,7,6,5,2]","action_history":"[1,0,0,1,1,0,0,1,1,1,0,0,1,1]","mutagen_history":"[1,0,0,1,1,0,0,1,1,1,0,0,1,1]","location_rts":"[889,436,618,506,691,703,773,452,439,788,480,532,691,570]","trial_type":"fractal-mutation","trial_index":93,"time_elapsed":1943287,"internal_node_id":"0.0-5.0-39.0"},{"group":"tri cycles (cube, non-group)","fractal_assignment":["../images/ylw_pnk.png","../images/blu_wht.png","../images/ylw_slt.png","../images/org_blu.png","../images/gry_blk.png","../images/grn_red.png","../images/cyn_red.png","../images/pnk_blu.png"],"mutagen_generator_assignment":[0,1],"goal":1,"start":2,"action_noise":0.1,"location_history":"[2,6,4,7,6,4,0,3,7,6,5,2,6,5,1]","action_history":"[1,0,0,0,0,1,1,0,0,1,1,1,1,0]","mutagen_history":"[1,0,0,0,0,1,1,0,0,1,1,1,1,0]","location_rts":"[1042,483,385,456,580,395,350,439,679,550,423,456,428,344]","trial_type":"fractal-mutation","trial_index":94,"time_elapsed":1968450,"internal_node_id":"0.0-5.0-40.0"},{"group":"tri cycles (cube, non-group)","fractal_assignment":["../images/ylw_pnk.png","../images/blu_wht.png","../images/ylw_slt.png","../images/org_blu.png","../images/gry_blk.png","../images/grn_red.png","../images/cyn_red.png","../images/pnk_blu.png"],"mutagen_generator_assignment":[0,1],"goal":0,"start":1,"action_noise":0.1,"location_history":"[1,5,1,0]","action_history":"[1,0,0]","mutagen_history":"[1,0,0]","location_rts":"[4870,521,553]","trial_type":"fractal-mutation","trial_index":95,"time_elapsed":1981032,"internal_node_id":"0.0-5.0-41.0"},{"group":"tri cycles (cube, non-group)","fractal_assignment":["../images/ylw_pnk.png","../images/blu_wht.png","../images/ylw_slt.png","../images/org_blu.png","../images/gry_blk.png","../images/grn_red.png","../images/cyn_red.png","../images/pnk_blu.png"],"mutagen_generator_assignment":[0,1],"goal":4,"start":0,"action_noise":0.1,"location_history":"[0,3,7,6,5,2,1,0,3,7,6,4]","action_history":"[1,0,0,1,1,0,0,1,1,0,0]","mutagen_history":"[1,0,0,1,1,0,0,1,1,0,0]","location_rts":"[3666,1699,884,398,551,400,626,361,396,393,793]","trial_type":"fractal-mutation","trial_index":96,"time_elapsed":2006230,"internal_node_id":"0.0-5.0-42.0"},{"group":"tri cycles (cube, non-group)","fractal_assignment":["../images/ylw_pnk.png","../images/blu_wht.png","../images/ylw_slt.png","../images/org_blu.png","../images/gry_blk.png","../images/grn_red.png","../images/cyn_red.png","../images/pnk_blu.png"],"mutagen_generator_assignment":[0,1],"goal":6,"start":4,"action_noise":0.1,"location_history":"[4,7,3,4,7,3,4,0,3,7,6]","action_history":"[0,1,1,0,1,1,1,1,0,0]","mutagen_history":"[0,1,1,0,1,1,1,1,0,0]","location_rts":"[755,1405,622,452,611,799,762,916,916,823]","trial_type":"fractal-mutation","trial_index":97,"time_elapsed":2028313,"internal_node_id":"0.0-5.0-43.0"},{"group":"tri cycles (cube, non-group)","fractal_assignment":["../images/ylw_pnk.png","../images/blu_wht.png","../images/ylw_slt.png","../images/org_blu.png","../images/gry_blk.png","../images/grn_red.png","../images/cyn_red.png","../images/pnk_blu.png"],"mutagen_generator_assignment":[0,1],"goal":3,"start":6,"action_noise":0.1,"location_history":"[6,4,7,3]","action_history":"[0,1,1]","mutagen_history":"[0,1,1]","location_rts":"[874,1028,395]","trial_type":"fractal-mutation","trial_index":98,"time_elapsed":2037265,"internal_node_id":"0.0-5.0-44.0"},{"group":"tri cycles (cube, non-group)","fractal_assignment":["../images/ylw_pnk.png","../images/blu_wht.png","../images/ylw_slt.png","../images/org_blu.png","../images/gry_blk.png","../images/grn_red.png","../images/cyn_red.png","../images/pnk_blu.png"],"mutagen_generator_assignment":[0,1],"goal":7,"start":3,"action_noise":0.1,"location_history":"[3,7]","action_history":"[0]","mutagen_history":"[0]","location_rts":"[829]","trial_type":"fractal-mutation","trial_index":99,"time_elapsed":2042645,"internal_node_id":"0.0-5.0-45.0"},{"group":"tri cycles (cube, non-group)","fractal_assignment":["../images/ylw_pnk.png","../images/blu_wht.png","../images/ylw_slt.png","../images/org_blu.png","../images/gry_blk.png","../images/grn_red.png","../images/cyn_red.png","../images/pnk_blu.png"],"mutagen_generator_assignment":[0,1],"goal":5,"start":7,"action_noise":0.1,"location_history":"[7,3,4,7,6,5]","action_history":"[1,1,0,0,1]","mutagen_history":"[1,1,0,0,1]","location_rts":"[1159,833,435,745,665]","trial_type":"fractal-mutation","trial_index":100,"time_elapsed":2055272,"internal_node_id":"0.0-5.0-46.0"},{"group":"tri cycles (cube, non-group)","fractal_assignment":["../images/ylw_pnk.png","../images/blu_wht.png","../images/ylw_slt.png","../images/org_blu.png","../images/gry_blk.png","../images/grn_red.png","../images/cyn_red.png","../images/pnk_blu.png"],"mutagen_generator_assignment":[0,1],"goal":1,"start":5,"action_noise":0.1,"location_history":"[5,1]","action_history":"[1]","mutagen_history":"[1]","location_rts":"[936]","trial_type":"fractal-mutation","trial_index":101,"time_elapsed":2060774,"internal_node_id":"0.0-5.0-47.0"},{"group":"tri cycles (cube, non-group)","fractal_assignment":["../images/ylw_pnk.png","../images/blu_wht.png","../images/ylw_slt.png","../images/org_blu.png","../images/gry_blk.png","../images/grn_red.png","../images/cyn_red.png","../images/pnk_blu.png"],"mutagen_generator_assignment":[0,1],"goal":6,"start":1,"action_noise":0.1,"location_history":"[1,0,3,4,0,3,7,6]","action_history":"[0,1,1,1,1,0,0]","mutagen_history":"[0,1,1,1,1,0,0]","location_rts":"[734,1051,758,432,680,1150,442]","trial_type":"fractal-mutation","trial_index":102,"time_elapsed":2076931,"internal_node_id":"0.0-5.0-48.0"},{"group":"tri cycles (cube, non-group)","fractal_assignment":["../images/ylw_pnk.png","../images/blu_wht.png","../images/ylw_slt.png","../images/org_blu.png","../images/gry_blk.png","../images/grn_red.png","../images/cyn_red.png","../images/pnk_blu.png"],"mutagen_generator_assignment":[0,1],"goal":0,"start":6,"action_noise":0.1,"location_history":"[6,5,1,0]","action_history":"[1,0,0]","mutagen_history":"[1,0,0]","location_rts":"[857,468,369]","trial_type":"fractal-mutation","trial_index":103,"time_elapsed":2085277,"internal_node_id":"0.0-5.0-49.0"},{"view_history":"[{\"page_index\":0,\"viewing_time\":7699}]","rt":7701,"trial_type":"instructions","trial_index":104,"time_elapsed":2093979,"internal_node_id":"0.0-6.0"},{"rt":7020,"responses":"{\"Q0\":\"No. Thank you!\"}","trial_type":"survey-text","trial_index":105,"time_elapsed":2102010,"internal_node_id":"0.0-7.0"}]