[{"view_history":"[{\"page_index\":0,\"viewing_time\":370726},{\"page_index\":1,\"viewing_time\":27747}]","rt":398474,"trial_type":"instructions","trial_index":0,"time_elapsed":398475,"internal_node_id":"0.0-0.0"},{"view_history":"[{\"page_index\":0,\"viewing_time\":3886},{\"page_index\":1,\"viewing_time\":6041}]","rt":9928,"trial_type":"instructions","trial_index":1,"time_elapsed":409404,"internal_node_id":"0.0-1.0"},{"group":"tri cycles (cube, non-group)","room_assignment":["grey","yellow","pink","brown","blue","red","purple","green"],"door_color_assignment":["black","white"],"door_generator_assignment":[1,0],"goal":6,"start":3,"action_noise":0.1,"location_history":"[3,7,3,7,6]","action_history":"[1,1,0,0]","door_history":"[0,0,1,1]","location_rts":"[3210,1167,787,481]","trial_type":"two-door-navigation","trial_index":2,"time_elapsed":422708,"internal_node_id":"0.0-2.0-0.0"},{"group":"tri cycles (cube, non-group)","room_assignment":["grey","yellow","pink","brown","blue","red","purple","green"],"door_color_assignment":["black","white"],"door_generator_assignment":[1,0],"goal":1,"start":6,"action_noise":0.1,"location_history":"[6,4,7,3,4,7,3,4,0,2,6,5,2,6,5,1]","action_history":"[0,0,1,1,0,0,1,1,0,0,0,1,1,1,0]","door_history":"[1,1,0,0,1,1,0,0,1,1,1,0,0,0,1]","location_rts":"[1653,548,976,397,691,436,920,361,812,582,423,1204,433,367,748]","trial_type":"two-door-navigation","trial_index":3,"time_elapsed":452257,"internal_node_id":"0.0-2.0-1.0"},{"group":"tri cycles (cube, non-group)","room_assignment":["grey","yellow","pink","brown","blue","red","purple","green"],"door_color_assignment":["black","white"],"door_generator_assignment":[1,0],"goal":2,"start":1,"action_noise":0.1,"location_history":"[1,0,3,4,0,2]","action_history":"[0,0,1,1,0]","door_history":"[1,1,0,0,1]","location_rts":"[2301,985,1246,780,2017]","trial_type":"two-door-navigation","trial_index":4,"time_elapsed":468277,"internal_node_id":"0.0-2.0-2.0"},{"group":"tri cycles (cube, non-group)","room_assignment":["grey","yellow","pink","brown","blue","red","purple","green"],"door_color_assignment":["black","white"],"door_generator_assignment":[1,0],"goal":0,"start":2,"action_noise":0.1,"location_history":"[2,6,4,0]","action_history":"[1,0,1]","door_history":"[0,1,0]","location_rts":"[4789,1130,1130]","trial_type":"two-door-navigation","trial_index":5,"time_elapsed":481923,"internal_node_id":"0.0-2.0-3.0"},{"group":"tri cycles (cube, non-group)","room_assignment":["grey","yellow","pink","brown","blue","red","purple","green"],"door_color_assignment":["black","white"],"door_generator_assignment":[1,0],"goal":7,"start":0,"action_noise":0.1,"location_history":"[0,2,1,5,2,1,0,2,1,0,2,1,0,3,4,0,3,7]","action_history":"[0,0,1,1,0,0,1,1,0,0,0,0,1,1,1,1,0]","door_history":"[1,1,0,0,1,1,0,0,1,1,1,1,0,0,0,0,1]","location_rts":"[2158,713,869,498,1029,1235,1248,598,1382,778,2309,919,907,938,581,439,481]","trial_type":"two-door-navigation","trial_index":6,"time_elapsed":519973,"internal_node_id":"0.0-2.0-4.0"},{"group":"tri cycles (cube, non-group)","room_assignment":["grey","yellow","pink","brown","blue","red","purple","green"],"door_color_assignment":["black","white"],"door_generator_assignment":[1,0],"goal":5,"start":7,"action_noise":0.1,"location_history":"[7,6,4,0,3,7,6,4,0,3,4,0,3,4,7,6,5]","action_history":"[0,0,1,1,0,0,0,1,1,1,1,1,1,0,0,0]","door_history":"[1,1,0,0,1,1,1,0,0,0,0,0,0,1,1,1]","location_rts":"[2578,966,1166,619,818,1103,772,1376,497,498,811,625,719,1232,1156,449]","trial_type":"two-door-navigation","trial_index":7,"time_elapsed":555329,"internal_node_id":"0.0-2.0-5.0"},{"group":"tri cycles (cube, non-group)","room_assignment":["grey","yellow","pink","brown","blue","red","purple","green"],"door_color_assignment":["black","white"],"door_generator_assignment":[1,0],"goal":4,"start":5,"action_noise":0.1,"location_history":"[5,2,6,4]","action_history":"[1,1,0]","door_history":"[0,0,1]","location_rts":"[3010,1455,910]","trial_type":"two-door-navigation","trial_index":8,"time_elapsed":567298,"internal_node_id":"0.0-2.0-6.0"},{"group":"tri cycles (cube, non-group)","room_assignment":["grey","yellow","pink","brown","blue","red","purple","green"],"door_color_assignment":["black","white"],"door_generator_assignment":[1,0],"goal":2,"start":4,"action_noise":0.1,"location_history":"[4,7,6,5,2]","action_history":"[0,0,1,1]","door_history":"[1,1,0,0]","location_rts":"[3010,496,807,1389]","trial_type":"two-door-navigation","trial_index":9,"time_elapsed":580631,"internal_node_id":"0.0-2.0-7.0"},{"group":"tri cycles (cube, non-group)","room_assignment":["grey","yellow","pink","brown","blue","red","purple","green"],"door_color_assignment":["black","white"],"door_generator_assignment":[1,0],"goal":3,"start":2,"action_noise":0.1,"location_history":"[2,6,5,1,5,2,6,4,7,3]","action_history":"[1,1,0,0,1,1,0,0,1]","door_history":"[0,0,1,1,0,0,1,1,0]","location_rts":"[1959,506,1096,497,768,544,1009,393,1004]","trial_type":"two-door-navigation","trial_index":10,"time_elapsed":601133,"internal_node_id":"0.0-2.0-8.0"},{"group":"tri cycles (cube, non-group)","room_assignment":["grey","yellow","pink","brown","blue","red","purple","green"],"door_color_assignment":["black","white"],"door_generator_assignment":[1,0],"goal":7,"start":3,"action_noise":0.1,"location_history":"[3,7]","action_history":"[0]","door_history":"[1]","location_rts":"[2124]","trial_type":"two-door-navigation","trial_index":11,"time_elapsed":607790,"internal_node_id":"0.0-2.0-9.0"},{"group":"tri cycles (cube, non-group)","room_assignment":["grey","yellow","pink","brown","blue","red","purple","green"],"door_color_assignment":["black","white"],"door_generator_assignment":[1,0],"goal":0,"start":7,"action_noise":0.1,"location_history":"[7,3,4,7,3,4,0]","action_history":"[1,1,0,0,1,1]","door_history":"[0,0,1,1,0,0]","location_rts":"[1803,1019,1218,723,1182,526]","trial_type":"two-door-navigation","trial_index":12,"time_elapsed":623927,"internal_node_id":"0.0-2.0-10.0"},{"group":"tri cycles (cube, non-group)","room_assignment":["grey","yellow","pink","brown","blue","red","purple","green"],"door_color_assignment":["black","white"],"door_generator_assignment":[1,0],"goal":1,"start":0,"action_noise":0.1,"location_history":"[0,2,6,5,2,1]","action_history":"[0,0,1,1,0]","door_history":"[1,1,0,0,1]","location_rts":"[2077,769,1100,687,1231]","trial_type":"two-door-navigation","trial_index":13,"time_elapsed":638478,"internal_node_id":"0.0-2.0-11.0"},{"group":"tri cycles (cube, non-group)","room_assignment":["grey","yellow","pink","brown","blue","red","purple","green"],"door_color_assignment":["black","white"],"door_generator_assignment":[1,0],"goal":6,"start":1,"action_noise":0.1,"location_history":"[1,0,2,6]","action_history":"[0,0,1]","door_history":"[1,1,0]","location_rts":"[1776,605,952]","trial_type":"two-door-navigation","trial_index":14,"time_elapsed":648408,"internal_node_id":"0.0-2.0-12.0"},{"group":"tri cycles (cube, non-group)","room_assignment":["grey","yellow","pink","brown","blue","red","purple","green"],"door_color_assignment":["black","white"],"door_generator_assignment":[1,0],"goal":4,"start":6,"action_noise":0.1,"location_history":"[6,5,1,5,2,1,0,3,4]","action_history":"[0,0,1,1,0,0,1,1]","door_history":"[1,1,0,0,1,1,0,0]","location_rts":"[2111,607,1053,461,807,406,985,474]","trial_type":"two-door-navigation","trial_index":15,"time_elapsed":667042,"internal_node_id":"0.0-2.0-13.0"},{"group":"tri cycles (cube, non-group)","room_assignment":["grey","yellow","pink","brown","blue","red","purple","green"],"door_color_assignment":["black","white"],"door_generator_assignment":[1,0],"goal":5,"start":4,"action_noise":0.1,"location_history":"[4,7,6,5]","action_history":"[0,0,1]","door_history":"[1,1,0]","location_rts":"[2126,474,953]","trial_type":"two-door-navigation","trial_index":16,"time_elapsed":677212,"internal_node_id":"0.0-2.0-14.0"},{"group":"tri cycles (cube, non-group)","room_assignment":["grey","yellow","pink","brown","blue","red","purple","green"],"door_color_assignment":["black","white"],"door_generator_assignment":[1,0],"goal":4,"start":5,"action_noise":0.1,"location_history":"[5,1,0,3,7,3,7,3,4]","action_history":"[0,0,1,1,0,0,1,1]","door_history":"[1,1,0,0,1,1,0,0]","location_rts":"[2326,661,1053,435,1432,432,964,425]","trial_type":"two-door-navigation","trial_index":17,"time_elapsed":696681,"internal_node_id":"0.0-2.0-15.0"},{"group":"tri cycles (cube, non-group)","room_assignment":["grey","yellow","pink","brown","blue","red","purple","green"],"door_color_assignment":["black","white"],"door_generator_assignment":[1,0],"goal":0,"start":4,"action_noise":0.1,"location_history":"[4,7,6,5,2,1,0]","action_history":"[0,0,1,1,0,0]","door_history":"[1,1,0,0,1,1]","location_rts":"[1560,527,515,402,657,357]","trial_type":"two-door-navigation","trial_index":18,"time_elapsed":710359,"internal_node_id":"0.0-2.0-16.0"},{"group":"tri cycles (cube, non-group)","room_assignment":["grey","yellow","pink","brown","blue","red","purple","green"],"door_color_assignment":["black","white"],"door_generator_assignment":[1,0],"goal":7,"start":0,"action_noise":0.1,"location_history":"[0,3,7]","action_history":"[0,0]","door_history":"[1,1]","location_rts":"[1144,351]","trial_type":"two-door-navigation","trial_index":19,"time_elapsed":717447,"internal_node_id":"0.0-2.0-17.0"},{"group":"tri cycles (cube, non-group)","room_assignment":["grey","yellow","pink","brown","blue","red","purple","green"],"door_color_assignment":["black","white"],"door_generator_assignment":[1,0],"goal":2,"start":7,"action_noise":0.1,"location_history":"[7,6,5,2]","action_history":"[0,0,1]","door_history":"[1,1,0]","location_rts":"[844,387,406]","trial_type":"two-door-navigation","trial_index":20,"time_elapsed":725655,"internal_node_id":"0.0-2.0-18.0"},{"group":"tri cycles (cube, non-group)","room_assignment":["grey","yellow","pink","brown","blue","red","purple","green"],"door_color_assignment":["black","white"],"door_generator_assignment":[1,0],"goal":1,"start":2,"action_noise":0.1,"location_history":"[2,1]","action_history":"[0]","door_history":"[1]","location_rts":"[1080]","trial_type":"two-door-navigation","trial_index":21,"time_elapsed":731265,"internal_node_id":"0.0-2.0-19.0"},{"group":"tri cycles (cube, non-group)","room_assignment":["grey","yellow","pink","brown","blue","red","purple","green"],"door_color_assignment":["black","white"],"door_generator_assignment":[1,0],"goal":3,"start":1,"action_noise":0.1,"location_history":"[1,0,2,6,5,1,0,3]","action_history":"[0,0,1,1,0,0,1]","door_history":"[1,1,0,0,1,1,0]","location_rts":"[687,652,488,454,434,398,585]","trial_type":"two-door-navigation","trial_index":22,"time_elapsed":745666,"internal_node_id":"0.0-2.0-20.0"},{"group":"tri cycles (cube, non-group)","room_assignment":["grey","yellow","pink","brown","blue","red","purple","green"],"door_color_assignment":["black","white"],"door_generator_assignment":[1,0],"goal":6,"start":3,"action_noise":0.1,"location_history":"[3,7,6]","action_history":"[0,0]","door_history":"[1,1]","location_rts":"[1208,469]","trial_type":"two-door-navigation","trial_index":23,"time_elapsed":752906,"internal_node_id":"0.0-2.0-21.0"},{"group":"tri cycles (cube, non-group)","room_assignment":["grey","yellow","pink","brown","blue","red","purple","green"],"door_color_assignment":["black","white"],"door_generator_assignment":[1,0],"goal":5,"start":6,"action_noise":0.1,"location_history":"[6,4,7,3,7,6,5]","action_history":"[0,0,1,1,0,0]","door_history":"[1,1,0,0,1,1]","location_rts":"[855,458,523,539,437,317]","trial_type":"two-door-navigation","trial_index":24,"time_elapsed":765686,"internal_node_id":"0.0-2.0-22.0"},{"group":"tri cycles (cube, non-group)","room_assignment":["grey","yellow","pink","brown","blue","red","purple","green"],"door_color_assignment":["black","white"],"door_generator_assignment":[1,0],"goal":3,"start":5,"action_noise":0.1,"location_history":"[5,1,0,3]","action_history":"[0,0,1]","door_history":"[1,1,0]","location_rts":"[1271,335,499]","trial_type":"two-door-navigation","trial_index":25,"time_elapsed":774412,"internal_node_id":"0.0-2.0-23.0"},{"group":"tri cycles (cube, non-group)","room_assignment":["grey","yellow","pink","brown","blue","red","purple","green"],"door_color_assignment":["black","white"],"door_generator_assignment":[1,0],"goal":0,"start":3,"action_noise":0.1,"location_history":"[3,7,6,5,2,1,0]","action_history":"[0,0,1,1,0,0]","door_history":"[1,1,0,0,1,1]","location_rts":"[930,416,427,356,592,362]","trial_type":"two-door-navigation","trial_index":26,"time_elapsed":787137,"internal_node_id":"0.0-2.0-24.0"},{"group":"tri cycles (cube, non-group)","room_assignment":["grey","yellow","pink","brown","blue","red","purple","green"],"door_color_assignment":["black","white"],"door_generator_assignment":[1,0],"goal":7,"start":0,"action_noise":0.1,"location_history":"[0,2,1,5,2,1,0,3,4,0,2,1,5,2,1,5,2,6,4,7]","action_history":"[0,0,1,1,0,0,1,1,0,0,1,1,1,0,0,1,1,0,0]","door_history":"[1,1,0,0,1,1,0,0,1,1,0,0,0,1,1,0,0,1,1]","location_rts":"[1002,324,432,407,555,400,897,439,927,492,404,427,449,400,466,342,313,1156,286]","trial_type":"two-door-navigation","trial_index":27,"time_elapsed":820260,"internal_node_id":"0.0-2.0-25.0"},{"group":"tri cycles (cube, non-group)","room_assignment":["grey","yellow","pink","brown","blue","red","purple","green"],"door_color_assignment":["black","white"],"door_generator_assignment":[1,0],"goal":2,"start":7,"action_noise":0.1,"location_history":"[7,6,4,0,3,7,6,5,2]","action_history":"[0,0,1,1,0,0,1,1]","door_history":"[1,1,0,0,1,1,0,0]","location_rts":"[1358,293,358,319,330,317,352,253]","trial_type":"two-door-navigation","trial_index":28,"time_elapsed":835600,"internal_node_id":"0.0-2.0-26.0"},{"group":"tri cycles (cube, non-group)","room_assignment":["grey","yellow","pink","brown","blue","red","purple","green"],"door_color_assignment":["black","white"],"door_generator_assignment":[1,0],"goal":1,"start":2,"action_noise":0.1,"location_history":"[2,1]","action_history":"[0]","door_history":"[1]","location_rts":"[771]","trial_type":"two-door-navigation","trial_index":29,"time_elapsed":840903,"internal_node_id":"0.0-2.0-27.0"},{"group":"tri cycles (cube, non-group)","room_assignment":["grey","yellow","pink","brown","blue","red","purple","green"],"door_color_assignment":["black","white"],"door_generator_assignment":[1,0],"goal":5,"start":1,"action_noise":0.1,"location_history":"[1,0,2,6,5]","action_history":"[0,0,1,1]","door_history":"[1,1,0,0]","location_rts":"[1046,297,305,271]","trial_type":"two-door-navigation","trial_index":30,"time_elapsed":850449,"internal_node_id":"0.0-2.0-28.0"},{"group":"tri cycles (cube, non-group)","room_assignment":["grey","yellow","pink","brown","blue","red","purple","green"],"door_color_assignment":["black","white"],"door_generator_assignment":[1,0],"goal":4,"start":5,"action_noise":0.1,"location_history":"[5,1,0,3,4]","action_history":"[0,0,1,1]","door_history":"[1,1,0,0]","location_rts":"[667,354,594,358]","trial_type":"two-door-navigation","trial_index":31,"time_elapsed":860024,"internal_node_id":"0.0-2.0-29.0"},{"group":"tri cycles (cube, non-group)","room_assignment":["grey","yellow","pink","brown","blue","red","purple","green"],"door_color_assignment":["black","white"],"door_generator_assignment":[1,0],"goal":6,"start":4,"action_noise":0.1,"location_history":"[4,7,6]","action_history":"[0,0]","door_history":"[1,1]","location_rts":"[947,410]","trial_type":"two-door-navigation","trial_index":32,"time_elapsed":866934,"internal_node_id":"0.0-2.0-30.0"},{"group":"tri cycles (cube, non-group)","room_assignment":["grey","yellow","pink","brown","blue","red","purple","green"],"door_color_assignment":["black","white"],"door_generator_assignment":[1,0],"goal":4,"start":6,"action_noise":0.1,"location_history":"[6,4]","action_history":"[0]","door_history":"[1]","location_rts":"[612]","trial_type":"two-door-navigation","trial_index":33,"time_elapsed":872077,"internal_node_id":"0.0-2.0-31.0"},{"group":"tri cycles (cube, non-group)","room_assignment":["grey","yellow","pink","brown","blue","red","purple","green"],"door_color_assignment":["black","white"],"door_generator_assignment":[1,0],"goal":2,"start":4,"action_noise":0.1,"location_history":"[4,7,6,5,2]","action_history":"[0,0,1,1]","door_history":"[1,1,0,0]","location_rts":"[526,391,463,312]","trial_type":"two-door-navigation","trial_index":34,"time_elapsed":881375,"internal_node_id":"0.0-2.0-32.0"},{"group":"tri cycles (cube, non-group)","room_assignment":["grey","yellow","pink","brown","blue","red","purple","green"],"door_color_assignment":["black","white"],"door_generator_assignment":[1,0],"goal":0,"start":2,"action_noise":0.1,"location_history":"[2,1,0]","action_history":"[0,0]","door_history":"[1,1]","location_rts":"[757,306]","trial_type":"two-door-navigation","trial_index":35,"time_elapsed":887989,"internal_node_id":"0.0-2.0-33.0"},{"group":"tri cycles (cube, non-group)","room_assignment":["grey","yellow","pink","brown","blue","red","purple","green"],"door_color_assignment":["black","white"],"door_generator_assignment":[1,0],"goal":5,"start":0,"action_noise":0.1,"location_history":"[0,2,1,5]","action_history":"[0,0,1]","door_history":"[1,1,0]","location_rts":"[623,485,392]","trial_type":"two-door-navigation","trial_index":36,"time_elapsed":896068,"internal_node_id":"0.0-2.0-34.0"},{"group":"tri cycles (cube, non-group)","room_assignment":["grey","yellow","pink","brown","blue","red","purple","green"],"door_color_assignment":["black","white"],"door_generator_assignment":[1,0],"goal":1,"start":5,"action_noise":0.1,"location_history":"[5,1]","action_history":"[0]","door_history":"[1]","location_rts":"[745]","trial_type":"two-door-navigation","trial_index":37,"time_elapsed":901343,"internal_node_id":"0.0-2.0-35.0"},{"group":"tri cycles (cube, non-group)","room_assignment":["grey","yellow","pink","brown","blue","red","purple","green"],"door_color_assignment":["black","white"],"door_generator_assignment":[1,0],"goal":7,"start":1,"action_noise":0.1,"location_history":"[1,0,2,6,5,1,0,3,4,0,2,1,0,3,4,7]","action_history":"[0,0,1,1,0,0,1,1,0,0,0,1,1,1,0]","door_history":"[1,1,0,0,1,1,0,0,1,1,1,0,0,0,1]","location_rts":"[536,398,496,310,368,554,1096,379,806,367,533,574,431,439,451]","trial_type":"two-door-navigation","trial_index":38,"time_elapsed":928005,"internal_node_id":"0.0-2.0-36.0"},{"group":"tri cycles (cube, non-group)","room_assignment":["grey","yellow","pink","brown","blue","red","purple","green"],"door_color_assignment":["black","white"],"door_generator_assignment":[1,0],"goal":3,"start":7,"action_noise":0.1,"location_history":"[7,6,4,0,3]","action_history":"[0,0,1,1]","door_history":"[1,1,0,0]","location_rts":"[1325,409,399,338]","trial_type":"two-door-navigation","trial_index":39,"time_elapsed":938072,"internal_node_id":"0.0-2.0-37.0"},{"group":"tri cycles (cube, non-group)","room_assignment":["grey","yellow","pink","brown","blue","red","purple","green"],"door_color_assignment":["black","white"],"door_generator_assignment":[1,0],"goal":6,"start":3,"action_noise":0.1,"location_history":"[3,7,6]","action_history":"[0,0]","door_history":"[1,1]","location_rts":"[764,380]","trial_type":"two-door-navigation","trial_index":40,"time_elapsed":944770,"internal_node_id":"0.0-2.0-38.0"},{"group":"tri cycles (cube, non-group)","room_assignment":["grey","yellow","pink","brown","blue","red","purple","green"],"door_color_assignment":["black","white"],"door_generator_assignment":[1,0],"goal":2,"start":6,"action_noise":0.1,"location_history":"[6,4,7,3,4,7,6,5,2]","action_history":"[0,0,1,1,0,0,1,1]","door_history":"[1,1,0,0,1,1,0,0]","location_rts":"[712,394,464,607,728,414,473,577]","trial_type":"two-door-navigation","trial_index":41,"time_elapsed":960932,"internal_node_id":"0.0-2.0-39.0"},{"group":"tri cycles (cube, non-group)","room_assignment":["grey","yellow","pink","brown","blue","red","purple","green"],"door_color_assignment":["black","white"],"door_generator_assignment":[1,0],"goal":1,"start":2,"action_noise":0.1,"location_history":"[2,1]","action_history":"[0]","door_history":"[1]","location_rts":"[721]","trial_type":"two-door-navigation","trial_index":42,"time_elapsed":966201,"internal_node_id":"0.0-2.0-40.0"},{"group":"tri cycles (cube, non-group)","room_assignment":["grey","yellow","pink","brown","blue","red","purple","green"],"door_color_assignment":["black","white"],"door_generator_assignment":[1,0],"goal":0,"start":1,"action_noise":0.1,"location_history":"[1,0]","action_history":"[0]","door_history":"[1]","location_rts":"[643]","trial_type":"two-door-navigation","trial_index":43,"time_elapsed":971372,"internal_node_id":"0.0-2.0-41.0"},{"group":"tri cycles (cube, non-group)","room_assignment":["grey","yellow","pink","brown","blue","red","purple","green"],"door_color_assignment":["black","white"],"door_generator_assignment":[1,0],"goal":4,"start":0,"action_noise":0.1,"location_history":"[0,3,7,6,5,1,0,2,6,4]","action_history":"[0,0,1,1,0,0,1,1,0]","door_history":"[1,1,0,0,1,1,0,0,1]","location_rts":"[878,416,528,365,418,393,479,302,810]","trial_type":"two-door-navigation","trial_index":44,"time_elapsed":988729,"internal_node_id":"0.0-2.0-42.0"},{"group":"tri cycles (cube, non-group)","room_assignment":["grey","yellow","pink","brown","blue","red","purple","green"],"door_color_assignment":["black","white"],"door_generator_assignment":[1,0],"goal":6,"start":4,"action_noise":0.1,"location_history":"[4,7,6]","action_history":"[0,0]","door_history":"[1,1]","location_rts":"[1217,360]","trial_type":"two-door-navigation","trial_index":45,"time_elapsed":995855,"internal_node_id":"0.0-2.0-43.0"},{"group":"tri cycles (cube, non-group)","room_assignment":["grey","yellow","pink","brown","blue","red","purple","green"],"door_color_assignment":["black","white"],"door_generator_assignment":[1,0],"goal":3,"start":6,"action_noise":0.1,"location_history":"[6,4,7,3]","action_history":"[0,0,1]","door_history":"[1,1,0]","location_rts":"[930,521,427]","trial_type":"two-door-navigation","trial_index":46,"time_elapsed":1004310,"internal_node_id":"0.0-2.0-44.0"},{"group":"tri cycles (cube, non-group)","room_assignment":["grey","yellow","pink","brown","blue","red","purple","green"],"door_color_assignment":["black","white"],"door_generator_assignment":[1,0],"goal":7,"start":3,"action_noise":0.1,"location_history":"[3,7]","action_history":"[0]","door_history":"[1]","location_rts":"[1148]","trial_type":"two-door-navigation","trial_index":47,"time_elapsed":1009986,"internal_node_id":"0.0-2.0-45.0"},{"group":"tri cycles (cube, non-group)","room_assignment":["grey","yellow","pink","brown","blue","red","purple","green"],"door_color_assignment":["black","white"],"door_generator_assignment":[1,0],"goal":5,"start":7,"action_noise":0.1,"location_history":"[7,6,4,0,3,7,6,4,7,3,4,0,2,1,0,2,6,5]","action_history":"[0,0,1,1,0,0,0,0,1,1,1,0,0,0,0,1,1]","door_history":"[1,1,0,0,1,1,1,1,0,0,0,1,1,1,1,0,0]","location_rts":"[873,536,792,344,869,528,464,712,476,604,455,364,368,381,431,438,374]","trial_type":"two-door-navigation","trial_index":48,"time_elapsed":1039990,"internal_node_id":"0.0-2.0-46.0"},{"group":"tri cycles (cube, non-group)","room_assignment":["grey","yellow","pink","brown","blue","red","purple","green"],"door_color_assignment":["black","white"],"door_generator_assignment":[1,0],"goal":1,"start":5,"action_noise":0.1,"location_history":"[5,1]","action_history":"[0]","door_history":"[1]","location_rts":"[1017]","trial_type":"two-door-navigation","trial_index":49,"time_elapsed":1045536,"internal_node_id":"0.0-2.0-47.0"},{"group":"tri cycles (cube, non-group)","room_assignment":["grey","yellow","pink","brown","blue","red","purple","green"],"door_color_assignment":["black","white"],"door_generator_assignment":[1,0],"goal":6,"start":1,"action_noise":0.1,"location_history":"[1,0,2,6]","action_history":"[0,0,1]","door_history":"[1,1,0]","location_rts":"[2034,425,968]","trial_type":"two-door-navigation","trial_index":50,"time_elapsed":1055593,"internal_node_id":"0.0-2.0-48.0"},{"group":"tri cycles (cube, non-group)","room_assignment":["grey","yellow","pink","brown","blue","red","purple","green"],"door_color_assignment":["black","white"],"door_generator_assignment":[1,0],"goal":0,"start":6,"action_noise":0.1,"location_history":"[6,4,7,3,4,7,6,5,2,1,0]","action_history":"[0,0,1,1,0,0,1,1,0,0]","door_history":"[1,1,0,0,1,1,0,0,1,1]","location_rts":"[985,642,656,702,518,416,397,474,1153,507]","trial_type":"two-door-navigation","trial_index":51,"time_elapsed":1075809,"internal_node_id":"0.0-2.0-49.0"},{"view_history":"[{\"page_index\":0,\"viewing_time\":3776}]","rt":3776,"trial_type":"instructions","trial_index":52,"time_elapsed":1080586,"internal_node_id":"0.0-3.0"},{"view_history":"[{\"page_index\":0,\"viewing_time\":4559},{\"page_index\":1,\"viewing_time\":7658}]","rt":12217,"trial_type":"instructions","trial_index":53,"time_elapsed":1093805,"internal_node_id":"0.0-4.0"},{"group":"square cycles (cube, non-group)","fractal_assignment":["../images/grn_red.png","../images/ylw_pnk.png","../images/org_blu.png","../images/ylw_slt.png","../images/gry_blk.png","../images/cyn_red.png","../images/pnk_blu.png","../images/blu_wht.png"],"mutagen_generator_assignment":[1,0],"goal":6,"start":3,"action_noise":0.1,"location_history":"[3,2,6]","action_history":"[1,1]","mutagen_history":"[0,0]","location_rts":"[3428,1593]","trial_type":"fractal-mutation","trial_index":54,"time_elapsed":1104504,"internal_node_id":"0.0-5.0-0.0"},{"group":"square cycles (cube, non-group)","fractal_assignment":["../images/grn_red.png","../images/ylw_pnk.png","../images/org_blu.png","../images/ylw_slt.png","../images/gry_blk.png","../images/cyn_red.png","../images/pnk_blu.png","../images/blu_wht.png"],"mutagen_generator_assignment":[1,0],"goal":1,"start":6,"action_noise":0.1,"location_history":"[6,7,6,5,1]","action_history":"[0,0,0,1]","mutagen_history":"[1,1,1,0]","location_rts":"[3760,623,487,610]","trial_type":"fractal-mutation","trial_index":55,"time_elapsed":1117681,"internal_node_id":"0.0-5.0-1.0"},{"group":"square cycles (cube, non-group)","fractal_assignment":["../images/grn_red.png","../images/ylw_pnk.png","../images/org_blu.png","../images/ylw_slt.png","../images/gry_blk.png","../images/cyn_red.png","../images/pnk_blu.png","../images/blu_wht.png"],"mutagen_generator_assignment":[1,0],"goal":2,"start":1,"action_noise":0.1,"location_history":"[1,2]","action_history":"[1]","mutagen_history":"[0]","location_rts":"[1232]","trial_type":"fractal-mutation","trial_index":56,"time_elapsed":1123463,"internal_node_id":"0.0-5.0-2.0"},{"group":"square cycles (cube, non-group)","fractal_assignment":["../images/grn_red.png","../images/ylw_pnk.png","../images/org_blu.png","../images/ylw_slt.png","../images/gry_blk.png","../images/cyn_red.png","../images/pnk_blu.png","../images/blu_wht.png"],"mutagen_generator_assignment":[1,0],"goal":0,"start":2,"action_noise":0.1,"location_history":"[2,3,0]","action_history":"[0,0]","mutagen_history":"[1,1]","location_rts":"[1645,852]","trial_type":"fractal-mutation","trial_index":57,"time_elapsed":1131615,"internal_node_id":"0.0-5.0-3.0"},{"group":"square cycles (cube, non-group)","fractal_assignment":["../images/grn_red.png","../images/ylw_pnk.png","../images/org_blu.png","../images/ylw_slt.png","../images/gry_blk.png","../images/cyn_red.png","../images/pnk_blu.png","../images/blu_wht.png"],"mutagen_generator_assignment":[1,0],"goal":7,"start":0,"action_noise":0.1,"location_history":"[0,1,2,6,7]","action_history":"[0,0,1,1]","mutagen_history":"[1,1,0,0]","location_rts":"[1626,626,1345,759]","trial_type":"fractal-mutation","trial_index":58,"time_elapsed":1143698,"internal_node_id":"0.0-5.0-4.0"},{"group":"square cycles (cube, non-group)","fractal_assignment":["../images/grn_red.png","../images/ylw_pnk.png","../images/org_blu.png","../images/ylw_slt.png","../images/gry_blk.png","../images/cyn_red.png","../images/pnk_blu.png","../images/blu_wht.png"],"mutagen_generator_assignment":[1,0],"goal":5,"start":7,"action_noise":0.1,"location_history":"[7,6,5]","action_history":"[0,0]","mutagen_history":"[1,1]","location_rts":"[1839,776]","trial_type":"fractal-mutation","trial_index":59,"time_elapsed":1151911,"internal_node_id":"0.0-5.0-5.0"},{"group":"square cycles (cube, non-group)","fractal_assignment":["../images/grn_red.png","../images/ylw_pnk.png","../images/org_blu.png","../images/ylw_slt.png","../images/gry_blk.png","../images/cyn_red.png","../images/pnk_blu.png","../images/blu_wht.png"],"mutagen_generator_assignment":[1,0],"goal":4,"start":5,"action_noise":0.1,"location_history":"[5,4]","action_history":"[1]","mutagen_history":"[0]","location_rts":"[1945]","trial_type":"fractal-mutation","trial_index":60,"time_elapsed":1158442,"internal_node_id":"0.0-5.0-6.0"},{"group":"square cycles (cube, non-group)","fractal_assignment":["../images/grn_red.png","../images/ylw_pnk.png","../images/org_blu.png","../images/ylw_slt.png","../images/gry_blk.png","../images/cyn_red.png","../images/pnk_blu.png","../images/blu_wht.png"],"mutagen_generator_assignment":[1,0],"goal":2,"start":4,"action_noise":0.1,"location_history":"[4,7,6,5,1,0,4,5,1,0,1,2]","action_history":"[0,0,0,1,1,1,1,1,1,0,0]","mutagen_history":"[1,1,1,0,0,0,0,0,0,1,1]","location_rts":"[1743,1033,1079,862,660,1293,845,625,850,749,923]","trial_type":"fractal-mutation","trial_index":61,"time_elapsed":1184057,"internal_node_id":"0.0-5.0-7.0"},{"group":"square cycles (cube, non-group)","fractal_assignment":["../images/grn_red.png","../images/ylw_pnk.png","../images/org_blu.png","../images/ylw_slt.png","../images/gry_blk.png","../images/cyn_red.png","../images/pnk_blu.png","../images/blu_wht.png"],"mutagen_generator_assignment":[1,0],"goal":3,"start":2,"action_noise":0.1,"location_history":"[2,3]","action_history":"[0]","mutagen_history":"[1]","location_rts":"[1486]","trial_type":"fractal-mutation","trial_index":62,"time_elapsed":1190095,"internal_node_id":"0.0-5.0-8.0"},{"group":"square cycles (cube, non-group)","fractal_assignment":["../images/grn_red.png","../images/ylw_pnk.png","../images/org_blu.png","../images/ylw_slt.png","../images/gry_blk.png","../images/cyn_red.png","../images/pnk_blu.png","../images/blu_wht.png"],"mutagen_generator_assignment":[1,0],"goal":7,"start":3,"action_noise":0.1,"location_history":"[3,0,1,2,6,7]","action_history":"[0,0,0,1,1]","mutagen_history":"[1,1,1,0,0]","location_rts":"[1231,632,666,790,689]","trial_type":"fractal-mutation","trial_index":63,"time_elapsed":1202868,"internal_node_id":"0.0-5.0-9.0"},{"group":"square cycles (cube, non-group)","fractal_assignment":["../images/grn_red.png","../images/ylw_pnk.png","../images/org_blu.png","../images/ylw_slt.png","../images/gry_blk.png","../images/cyn_red.png","../images/pnk_blu.png","../images/blu_wht.png"],"mutagen_generator_assignment":[1,0],"goal":0,"start":7,"action_noise":0.1,"location_history":"[7,3,0]","action_history":"[0,0]","mutagen_history":"[1,1]","location_rts":"[1206,653]","trial_type":"fractal-mutation","trial_index":64,"time_elapsed":1210339,"internal_node_id":"0.0-5.0-10.0"},{"group":"square cycles (cube, non-group)","fractal_assignment":["../images/grn_red.png","../images/ylw_pnk.png","../images/org_blu.png","../images/ylw_slt.png","../images/gry_blk.png","../images/cyn_red.png","../images/pnk_blu.png","../images/blu_wht.png"],"mutagen_generator_assignment":[1,0],"goal":1,"start":0,"action_noise":0.1,"location_history":"[0,4,5,4,7,3,2,3,0,1]","action_history":"[1,1,0,0,0,1,1,0,0]","mutagen_history":"[0,0,1,1,1,0,0,1,1]","location_rts":"[2030,961,507,648,551,475,1076,917,683]","trial_type":"fractal-mutation","trial_index":65,"time_elapsed":1231090,"internal_node_id":"0.0-5.0-11.0"},{"group":"square cycles (cube, non-group)","fractal_assignment":["../images/grn_red.png","../images/ylw_pnk.png","../images/org_blu.png","../images/ylw_slt.png","../images/gry_blk.png","../images/cyn_red.png","../images/pnk_blu.png","../images/blu_wht.png"],"mutagen_generator_assignment":[1,0],"goal":6,"start":1,"action_noise":0.1,"location_history":"[1,2,3,2,3,0,1,2,3,2,6]","action_history":"[0,0,1,1,0,0,0,0,1,1]","mutagen_history":"[1,1,0,0,1,1,1,1,0,0]","location_rts":"[1358,1057,1245,573,576,733,852,782,730,456]","trial_type":"fractal-mutation","trial_index":66,"time_elapsed":1253430,"internal_node_id":"0.0-5.0-12.0"},{"group":"square cycles (cube, non-group)","fractal_assignment":["../images/grn_red.png","../images/ylw_pnk.png","../images/org_blu.png","../images/ylw_slt.png","../images/gry_blk.png","../images/cyn_red.png","../images/pnk_blu.png","../images/blu_wht.png"],"mutagen_generator_assignment":[1,0],"goal":4,"start":6,"action_noise":0.1,"location_history":"[6,7,6,7,6,7,3,0,1,2,6,7,3,0,1,2,6,7,3,2,6,7,3,0,1,2,6,5,1,2,3,2,3,0,1,2,6,5,4]","action_history":"[1,1,0,0,1,1,0,0,0,1,1,1,0,0,0,1,1,1,1,1,1,1,0,0,0,1,0,1,0,0,1,1,0,0,0,1,0,0]","mutagen_history":"[0,0,1,1,0,0,1,1,1,0,0,0,1,1,1,0,0,0,0,0,0,0,1,1,1,0,1,0,1,1,0,0,1,1,1,0,1,1]","location_rts":"[1809,818,550,642,487,576,480,493,605,454,420,428,515,405,401,469,416,592,312,384,490,379,325,417,354,416,284,487,384,405,455,413,421,418,454,493,400,453]","trial_type":"fractal-mutation","trial_index":67,"time_elapsed":1315569,"internal_node_id":"0.0-5.0-13.0"},{"group":"square cycles (cube, non-group)","fractal_assignment":["../images/grn_red.png","../images/ylw_pnk.png","../images/org_blu.png","../images/ylw_slt.png","../images/gry_blk.png","../images/cyn_red.png","../images/pnk_blu.png","../images/blu_wht.png"],"mutagen_generator_assignment":[1,0],"goal":5,"start":4,"action_noise":0.1,"location_history":"[4,7,3,0,1,0,1,0,1,2,3,0,1,0,4,5]","action_history":"[0,1,0,0,1,1,1,0,0,0,0,0,0,1,1]","mutagen_history":"[1,0,1,1,0,0,0,1,1,1,1,1,1,0,0]","location_rts":"[1475,902,646,1032,519,620,908,595,987,668,513,516,575,464,621]","trial_type":"fractal-mutation","trial_index":68,"time_elapsed":1345854,"internal_node_id":"0.0-5.0-14.0"},{"group":"square cycles (cube, non-group)","fractal_assignment":["../images/grn_red.png","../images/ylw_pnk.png","../images/org_blu.png","../images/ylw_slt.png","../images/gry_blk.png","../images/cyn_red.png","../images/pnk_blu.png","../images/blu_wht.png"],"mutagen_generator_assignment":[1,0],"goal":4,"start":5,"action_noise":0.1,"location_history":"[5,1,0,4]","action_history":"[1,1,1]","mutagen_history":"[0,0,0]","location_rts":"[1785,1186,761]","trial_type":"fractal-mutation","trial_index":69,"time_elapsed":1356253,"internal_node_id":"0.0-5.0-15.0"},{"group":"square cycles (cube, non-group)","fractal_assignment":["../images/grn_red.png","../images/ylw_pnk.png","../images/org_blu.png","../images/ylw_slt.png","../images/gry_blk.png","../images/cyn_red.png","../images/pnk_blu.png","../images/blu_wht.png"],"mutagen_generator_assignment":[1,0],"goal":0,"start":4,"action_noise":0.1,"location_history":"[4,7,6,5,4,5,1,0]","action_history":"[0,0,0,0,1,0,1]","mutagen_history":"[1,1,1,1,0,1,0]","location_rts":"[1473,647,1190,1144,600,794,639]","trial_type":"fractal-mutation","trial_index":70,"time_elapsed":1373612,"internal_node_id":"0.0-5.0-16.0"},{"group":"square cycles (cube, non-group)","fractal_assignment":["../images/grn_red.png","../images/ylw_pnk.png","../images/org_blu.png","../images/ylw_slt.png","../images/gry_blk.png","../images/cyn_red.png","../images/pnk_blu.png","../images/blu_wht.png"],"mutagen_generator_assignment":[1,0],"goal":7,"start":0,"action_noise":0.1,"location_history":"[0,4,5,4,7]","action_history":"[1,1,0,0]","mutagen_history":"[0,0,1,1]","location_rts":"[1212,905,506,750]","trial_type":"fractal-mutation","trial_index":71,"time_elapsed":1384646,"internal_node_id":"0.0-5.0-17.0"},{"group":"square cycles (cube, non-group)","fractal_assignment":["../images/grn_red.png","../images/ylw_pnk.png","../images/org_blu.png","../images/ylw_slt.png","../images/gry_blk.png","../images/cyn_red.png","../images/pnk_blu.png","../images/blu_wht.png"],"mutagen_generator_assignment":[1,0],"goal":2,"start":7,"action_noise":0.1,"location_history":"[7,6,5,4,5,1,0,1,2]","action_history":"[0,0,0,1,1,1,0,0]","mutagen_history":"[1,1,1,0,0,0,1,1]","location_rts":"[902,762,834,766,722,781,889,695]","trial_type":"fractal-mutation","trial_index":72,"time_elapsed":1402907,"internal_node_id":"0.0-5.0-18.0"},{"group":"square cycles (cube, non-group)","fractal_assignment":["../images/grn_red.png","../images/ylw_pnk.png","../images/org_blu.png","../images/ylw_slt.png","../images/gry_blk.png","../images/cyn_red.png","../images/pnk_blu.png","../images/blu_wht.png"],"mutagen_generator_assignment":[1,0],"goal":1,"start":2,"action_noise":0.1,"location_history":"[2,6,5,4,5,1]","action_history":"[1,0,0,1,1]","mutagen_history":"[0,1,1,0,0]","location_rts":"[1956,730,672,684,478]","trial_type":"fractal-mutation","trial_index":73,"time_elapsed":1416124,"internal_node_id":"0.0-5.0-19.0"},{"group":"square cycles (cube, non-group)","fractal_assignment":["../images/grn_red.png","../images/ylw_pnk.png","../images/org_blu.png","../images/ylw_slt.png","../images/gry_blk.png","../images/cyn_red.png","../images/pnk_blu.png","../images/blu_wht.png"],"mutagen_generator_assignment":[1,0],"goal":3,"start":1,"action_noise":0.1,"location_history":"[1,2,3]","action_history":"[0,0]","mutagen_history":"[1,1]","location_rts":"[1648,2541]","trial_type":"fractal-mutation","trial_index":74,"time_elapsed":1425952,"internal_node_id":"0.0-5.0-20.0"},{"group":"square cycles (cube, non-group)","fractal_assignment":["../images/grn_red.png","../images/ylw_pnk.png","../images/org_blu.png","../images/ylw_slt.png","../images/gry_blk.png","../images/cyn_red.png","../images/pnk_blu.png","../images/blu_wht.png"],"mutagen_generator_assignment":[1,0],"goal":6,"start":3,"action_noise":0.1,"location_history":"[3,0,4,5,4,7,3,2,6]","action_history":"[0,1,1,0,0,1,1,1]","mutagen_history":"[1,0,0,1,1,0,0,0]","location_rts":"[1511,1344,1161,955,658,739,718,679]","trial_type":"fractal-mutation","trial_index":75,"time_elapsed":1445577,"internal_node_id":"0.0-5.0-21.0"},{"group":"square cycles (cube, non-group)","fractal_assignment":["../images/grn_red.png","../images/ylw_pnk.png","../images/org_blu.png","../images/ylw_slt.png","../images/gry_blk.png","../images/cyn_red.png","../images/pnk_blu.png","../images/blu_wht.png"],"mutagen_generator_assignment":[1,0],"goal":5,"start":6,"action_noise":0.1,"location_history":"[6,5]","action_history":"[0]","mutagen_history":"[1]","location_rts":"[1188]","trial_type":"fractal-mutation","trial_index":76,"time_elapsed":1451318,"internal_node_id":"0.0-5.0-22.0"},{"group":"square cycles (cube, non-group)","fractal_assignment":["../images/grn_red.png","../images/ylw_pnk.png","../images/org_blu.png","../images/ylw_slt.png","../images/gry_blk.png","../images/cyn_red.png","../images/pnk_blu.png","../images/blu_wht.png"],"mutagen_generator_assignment":[1,0],"goal":3,"start":5,"action_noise":0.1,"location_history":"[5,4,5,1,2,3]","action_history":"[0,1,1,0,0]","mutagen_history":"[1,0,0,1,1]","location_rts":"[1359,1067,783,613,573]","trial_type":"fractal-mutation","trial_index":77,"time_elapsed":1464490,"internal_node_id":"0.0-5.0-23.0"},{"group":"square cycles (cube, non-group)","fractal_assignment":["../images/grn_red.png","../images/ylw_pnk.png","../images/org_blu.png","../images/ylw_slt.png","../images/gry_blk.png","../images/cyn_red.png","../images/pnk_blu.png","../images/blu_wht.png"],"mutagen_generator_assignment":[1,0],"goal":0,"start":3,"action_noise":0.1,"location_history":"[3,0]","action_history":"[0]","mutagen_history":"[1]","location_rts":"[1533]","trial_type":"fractal-mutation","trial_index":78,"time_elapsed":1470626,"internal_node_id":"0.0-5.0-24.0"},{"group":"square cycles (cube, non-group)","fractal_assignment":["../images/grn_red.png","../images/ylw_pnk.png","../images/org_blu.png","../images/ylw_slt.png","../images/gry_blk.png","../images/cyn_red.png","../images/pnk_blu.png","../images/blu_wht.png"],"mutagen_generator_assignment":[1,0],"goal":7,"start":0,"action_noise":0.1,"location_history":"[0,1,0,4,5,4,7]","action_history":"[0,1,1,1,0,0]","mutagen_history":"[1,0,0,0,1,1]","location_rts":"[1567,1387,886,910,618,619]","trial_type":"fractal-mutation","trial_index":79,"time_elapsed":1486443,"internal_node_id":"0.0-5.0-25.0"},{"group":"square cycles (cube, non-group)","fractal_assignment":["../images/grn_red.png","../images/ylw_pnk.png","../images/org_blu.png","../images/ylw_slt.png","../images/gry_blk.png","../images/cyn_red.png","../images/pnk_blu.png","../images/blu_wht.png"],"mutagen_generator_assignment":[1,0],"goal":2,"start":7,"action_noise":0.1,"location_history":"[7,6,5,1,0,4,5,4,7,6,7,3,2]","action_history":"[0,0,1,0,1,1,0,0,0,0,1,1]","mutagen_history":"[1,1,0,1,0,0,1,1,1,1,0,0]","location_rts":"[2241,1025,632,706,1304,668,653,581,496,494,466,543]","trial_type":"fractal-mutation","trial_index":80,"time_elapsed":1512314,"internal_node_id":"0.0-5.0-26.0"},{"group":"square cycles (cube, non-group)","fractal_assignment":["../images/grn_red.png","../images/ylw_pnk.png","../images/org_blu.png","../images/ylw_slt.png","../images/gry_blk.png","../images/cyn_red.png","../images/pnk_blu.png","../images/blu_wht.png"],"mutagen_generator_assignment":[1,0],"goal":1,"start":2,"action_noise":0.1,"location_history":"[2,3,0,4,5,4,7,3,0,4,5,4,7,6,5,1]","action_history":"[0,0,1,1,0,0,1,1,1,1,0,0,0,0,1]","mutagen_history":"[1,1,0,0,1,1,0,0,0,0,1,1,1,1,0]","location_rts":"[902,855,1360,751,788,796,669,504,819,696,478,461,490,485,620]","trial_type":"fractal-mutation","trial_index":81,"time_elapsed":1542166,"internal_node_id":"0.0-5.0-27.0"},{"group":"square cycles (cube, non-group)","fractal_assignment":["../images/grn_red.png","../images/ylw_pnk.png","../images/org_blu.png","../images/ylw_slt.png","../images/gry_blk.png","../images/cyn_red.png","../images/pnk_blu.png","../images/blu_wht.png"],"mutagen_generator_assignment":[1,0],"goal":5,"start":1,"action_noise":0.1,"location_history":"[1,2,3,2,6,7,6,5]","action_history":"[0,0,1,1,1,0,0]","mutagen_history":"[1,1,0,0,0,1,1]","location_rts":"[1022,1572,1136,693,1084,508,486]","trial_type":"fractal-mutation","trial_index":82,"time_elapsed":1559549,"internal_node_id":"0.0-5.0-28.0"},{"group":"square cycles (cube, non-group)","fractal_assignment":["../images/grn_red.png","../images/ylw_pnk.png","../images/org_blu.png","../images/ylw_slt.png","../images/gry_blk.png","../images/cyn_red.png","../images/pnk_blu.png","../images/blu_wht.png"],"mutagen_generator_assignment":[1,0],"goal":4,"start":5,"action_noise":0.1,"location_history":"[5,4]","action_history":"[0]","mutagen_history":"[1]","location_rts":"[1364]","trial_type":"fractal-mutation","trial_index":83,"time_elapsed":1565467,"internal_node_id":"0.0-5.0-29.0"},{"group":"square cycles (cube, non-group)","fractal_assignment":["../images/grn_red.png","../images/ylw_pnk.png","../images/org_blu.png","../images/ylw_slt.png","../images/gry_blk.png","../images/cyn_red.png","../images/pnk_blu.png","../images/blu_wht.png"],"mutagen_generator_assignment":[1,0],"goal":6,"start":4,"action_noise":0.1,"location_history":"[4,7,6]","action_history":"[0,0]","mutagen_history":"[1,1]","location_rts":"[1309,765]","trial_type":"fractal-mutation","trial_index":84,"time_elapsed":1573148,"internal_node_id":"0.0-5.0-30.0"},{"group":"square cycles (cube, non-group)","fractal_assignment":["../images/grn_red.png","../images/ylw_pnk.png","../images/org_blu.png","../images/ylw_slt.png","../images/gry_blk.png","../images/cyn_red.png","../images/pnk_blu.png","../images/blu_wht.png"],"mutagen_generator_assignment":[1,0],"goal":4,"start":6,"action_noise":0.1,"location_history":"[6,7,3,0,1,0,1,0,1,2,3,2,6,7,3,0,1,0,4]","action_history":"[1,1,0,0,1,1,1,0,0,0,0,1,1,1,0,0,1,1]","mutagen_history":"[0,0,1,1,0,0,0,1,1,1,1,0,0,0,1,1,0,0]","location_rts":"[1370,846,859,579,446,441,466,923,592,527,509,983,714,765,782,791,1059,597]","trial_type":"fractal-mutation","trial_index":85,"time_elapsed":1608757,"internal_node_id":"0.0-5.0-31.0"},{"group":"square cycles (cube, non-group)","fractal_assignment":["../images/grn_red.png","../images/ylw_pnk.png","../images/org_blu.png","../images/ylw_slt.png","../images/gry_blk.png","../images/cyn_red.png","../images/pnk_blu.png","../images/blu_wht.png"],"mutagen_generator_assignment":[1,0],"goal":2,"start":4,"action_noise":0.1,"location_history":"[4,5,1,0,4,5,1,0,4,7,6,5,1,0,1,2]","action_history":"[1,1,0,1,1,1,1,0,0,0,0,1,1,0,0]","mutagen_history":"[0,0,1,0,0,0,0,1,1,1,1,0,0,1,1]","location_rts":"[2112,814,772,1217,644,691,743,1095,552,504,572,567,673,839,682]","trial_type":"fractal-mutation","trial_index":86,"time_elapsed":1640376,"internal_node_id":"0.0-5.0-32.0"},{"group":"square cycles (cube, non-group)","fractal_assignment":["../images/grn_red.png","../images/ylw_pnk.png","../images/org_blu.png","../images/ylw_slt.png","../images/gry_blk.png","../images/cyn_red.png","../images/pnk_blu.png","../images/blu_wht.png"],"mutagen_generator_assignment":[1,0],"goal":0,"start":2,"action_noise":0.1,"location_history":"[2,6,5,4,7,3,2,3,0]","action_history":"[1,0,0,0,1,1,0,1]","mutagen_history":"[0,1,1,1,0,0,1,0]","location_rts":"[3109,1181,1378,763,767,860,787,972]","trial_type":"fractal-mutation","trial_index":87,"time_elapsed":1662043,"internal_node_id":"0.0-5.0-33.0"},{"group":"square cycles (cube, non-group)","fractal_assignment":["../images/grn_red.png","../images/ylw_pnk.png","../images/org_blu.png","../images/ylw_slt.png","../images/gry_blk.png","../images/cyn_red.png","../images/pnk_blu.png","../images/blu_wht.png"],"mutagen_generator_assignment":[1,0],"goal":5,"start":0,"action_noise":0.1,"location_history":"[0,1,2,6,5]","action_history":"[0,0,1,1]","mutagen_history":"[1,1,0,0]","location_rts":"[1490,951,797,531]","trial_type":"fractal-mutation","trial_index":88,"time_elapsed":1673491,"internal_node_id":"0.0-5.0-34.0"},{"group":"square cycles (cube, non-group)","fractal_assignment":["../images/grn_red.png","../images/ylw_pnk.png","../images/org_blu.png","../images/ylw_slt.png","../images/gry_blk.png","../images/cyn_red.png","../images/pnk_blu.png","../images/blu_wht.png"],"mutagen_generator_assignment":[1,0],"goal":1,"start":5,"action_noise":0.1,"location_history":"[5,4,7,6,7,3,0,4,5,1]","action_history":"[0,0,1,1,0,0,1,1,1]","mutagen_history":"[1,1,0,0,1,1,0,0,0]","location_rts":"[1324,521,445,540,525,422,939,498,800]","trial_type":"fractal-mutation","trial_index":89,"time_elapsed":1692412,"internal_node_id":"0.0-5.0-35.0"},{"group":"square cycles (cube, non-group)","fractal_assignment":["../images/grn_red.png","../images/ylw_pnk.png","../images/org_blu.png","../images/ylw_slt.png","../images/gry_blk.png","../images/cyn_red.png","../images/pnk_blu.png","../images/blu_wht.png"],"mutagen_generator_assignment":[1,0],"goal":7,"start":1,"action_noise":0.1,"location_history":"[1,2,3,0,4,5,1,0,1,2,3,0,4,7]","action_history":"[0,0,0,1,1,1,1,0,0,0,0,1,1]","mutagen_history":"[1,1,1,0,0,0,0,1,1,1,1,0,0]","location_rts":"[1273,526,842,960,623,479,796,443,564,869,831,545,443]","trial_type":"fractal-mutation","trial_index":90,"time_elapsed":1718764,"internal_node_id":"0.0-5.0-36.0"},{"group":"square cycles (cube, non-group)","fractal_assignment":["../images/grn_red.png","../images/ylw_pnk.png","../images/org_blu.png","../images/ylw_slt.png","../images/gry_blk.png","../images/cyn_red.png","../images/pnk_blu.png","../images/blu_wht.png"],"mutagen_generator_assignment":[1,0],"goal":3,"start":7,"action_noise":0.1,"location_history":"[7,3]","action_history":"[0]","mutagen_history":"[1]","location_rts":"[1522]","trial_type":"fractal-mutation","trial_index":91,"time_elapsed":1724832,"internal_node_id":"0.0-5.0-37.0"},{"group":"square cycles (cube, non-group)","fractal_assignment":["../images/grn_red.png","../images/ylw_pnk.png","../images/org_blu.png","../images/ylw_slt.png","../images/gry_blk.png","../images/cyn_red.png","../images/pnk_blu.png","../images/blu_wht.png"],"mutagen_generator_assignment":[1,0],"goal":6,"start":3,"action_noise":0.1,"location_history":"[3,0,4,7,6]","action_history":"[1,1,0,0]","mutagen_history":"[0,0,1,1]","location_rts":"[1454,1491,681,512]","trial_type":"fractal-mutation","trial_index":92,"time_elapsed":1736633,"internal_node_id":"0.0-5.0-38.0"},{"group":"square cycles (cube, non-group)","fractal_assignment":["../images/grn_red.png","../images/ylw_pnk.png","../images/org_blu.png","../images/ylw_slt.png","../images/gry_blk.png","../images/cyn_red.png","../images/pnk_blu.png","../images/blu_wht.png"],"mutagen_generator_assignment":[1,0],"goal":2,"start":6,"action_noise":0.1,"location_history":"[6,5,4,5,1,0,4,7,3,2]","action_history":"[0,0,1,1,1,1,0,0,1]","mutagen_history":"[1,1,0,0,0,0,1,1,0]","location_rts":"[1483,823,474,483,777,1081,432,371,488]","trial_type":"fractal-mutation","trial_index":93,"time_elapsed":1755988,"internal_node_id":"0.0-5.0-39.0"},{"group":"square cycles (cube, non-group)","fractal_assignment":["../images/grn_red.png","../images/ylw_pnk.png","../images/org_blu.png","../images/ylw_slt.png","../images/gry_blk.png","../images/cyn_red.png","../images/pnk_blu.png","../images/blu_wht.png"],"mutagen_generator_assignment":[1,0],"goal":1,"start":2,"action_noise":0.1,"location_history":"[2,3,0,1]","action_history":"[0,0,1]","mutagen_history":"[1,1,0]","location_rts":"[1610,1557,1951]","trial_type":"fractal-mutation","trial_index":94,"time_elapsed":1767848,"internal_node_id":"0.0-5.0-40.0"},{"group":"square cycles (cube, non-group)","fractal_assignment":["../images/grn_red.png","../images/ylw_pnk.png","../images/org_blu.png","../images/ylw_slt.png","../images/gry_blk.png","../images/cyn_red.png","../images/pnk_blu.png","../images/blu_wht.png"],"mutagen_generator_assignment":[1,0],"goal":0,"start":1,"action_noise":0.1,"location_history":"[1,0]","action_history":"[1]","mutagen_history":"[0]","location_rts":"[1742]","trial_type":"fractal-mutation","trial_index":95,"time_elapsed":1774136,"internal_node_id":"0.0-5.0-41.0"},{"group":"square cycles (cube, non-group)","fractal_assignment":["../images/grn_red.png","../images/ylw_pnk.png","../images/org_blu.png","../images/ylw_slt.png","../images/gry_blk.png","../images/cyn_red.png","../images/pnk_blu.png","../images/blu_wht.png"],"mutagen_generator_assignment":[1,0],"goal":4,"start":0,"action_noise":0.1,"location_history":"[0,1,2,6,7,6,5,4]","action_history":"[0,0,1,1,0,0,1]","mutagen_history":"[1,1,0,0,1,1,0]","location_rts":"[1288,612,746,606,834,471,636]","trial_type":"fractal-mutation","trial_index":96,"time_elapsed":1790188,"internal_node_id":"0.0-5.0-42.0"},{"group":"square cycles (cube, non-group)","fractal_assignment":["../images/grn_red.png","../images/ylw_pnk.png","../images/org_blu.png","../images/ylw_slt.png","../images/gry_blk.png","../images/cyn_red.png","../images/pnk_blu.png","../images/blu_wht.png"],"mutagen_generator_assignment":[1,0],"goal":6,"start":4,"action_noise":0.1,"location_history":"[4,7,3,0,4,7,6]","action_history":"[0,0,1,1,0,0]","mutagen_history":"[1,1,0,0,1,1]","location_rts":"[1405,789,792,740,817,553]","trial_type":"fractal-mutation","trial_index":97,"time_elapsed":1805130,"internal_node_id":"0.0-5.0-43.0"},{"group":"square cycles (cube, non-group)","fractal_assignment":["../images/grn_red.png","../images/ylw_pnk.png","../images/org_blu.png","../images/ylw_slt.png","../images/gry_blk.png","../images/cyn_red.png","../images/pnk_blu.png","../images/blu_wht.png"],"mutagen_generator_assignment":[1,0],"goal":3,"start":6,"action_noise":0.1,"location_history":"[6,7,6,7,3]","action_history":"[0,0,1,1]","mutagen_history":"[1,1,0,0]","location_rts":"[1587,722,785,604]","trial_type":"fractal-mutation","trial_index":98,"time_elapsed":1816499,"internal_node_id":"0.0-5.0-44.0"},{"group":"square cycles (cube, non-group)","fractal_assignment":["../images/grn_red.png","../images/ylw_pnk.png","../images/org_blu.png","../images/ylw_slt.png","../images/gry_blk.png","../images/cyn_red.png","../images/pnk_blu.png","../images/blu_wht.png"],"mutagen_generator_assignment":[1,0],"goal":7,"start":3,"action_noise":0.1,"location_history":"[3,2,6,5,4,7]","action_history":"[1,1,0,0,1]","mutagen_history":"[0,0,1,1,0]","location_rts":"[1863,679,620,473,463]","trial_type":"fractal-mutation","trial_index":99,"time_elapsed":1829388,"internal_node_id":"0.0-5.0-45.0"},{"group":"square cycles (cube, non-group)","fractal_assignment":["../images/grn_red.png","../images/ylw_pnk.png","../images/org_blu.png","../images/ylw_slt.png","../images/gry_blk.png","../images/cyn_red.png","../images/pnk_blu.png","../images/blu_wht.png"],"mutagen_generator_assignment":[1,0],"goal":5,"start":7,"action_noise":0.1,"location_history":"[7,6,5]","action_history":"[0,0]","mutagen_history":"[1,1]","location_rts":"[1638,675]","trial_type":"fractal-mutation","trial_index":100,"time_elapsed":1837302,"internal_node_id":"0.0-5.0-46.0"},{"group":"square cycles (cube, non-group)","fractal_assignment":["../images/grn_red.png","../images/ylw_pnk.png","../images/org_blu.png","../images/ylw_slt.png","../images/gry_blk.png","../images/cyn_red.png","../images/pnk_blu.png","../images/blu_wht.png"],"mutagen_generator_assignment":[1,0],"goal":1,"start":5,"action_noise":0.1,"location_history":"[5,4,7,3,2,3,0,4,5,4,7,6,7,3,2,3,0,1]","action_history":"[0,0,1,1,0,0,1,1,0,0,1,1,1,1,0,0,0]","mutagen_history":"[1,1,0,0,1,1,0,0,1,1,0,0,0,0,1,1,1]","location_rts":"[1412,591,515,669,1275,568,638,578,487,437,423,478,419,447,714,764,730]","trial_type":"fractal-mutation","trial_index":101,"time_elapsed":1869680,"internal_node_id":"0.0-5.0-47.0"},{"group":"square cycles (cube, non-group)","fractal_assignment":["../images/grn_red.png","../images/ylw_pnk.png","../images/org_blu.png","../images/ylw_slt.png","../images/gry_blk.png","../images/cyn_red.png","../images/pnk_blu.png","../images/blu_wht.png"],"mutagen_generator_assignment":[1,0],"goal":6,"start":1,"action_noise":0.1,"location_history":"[1,2,3,2,6]","action_history":"[0,0,1,1]","mutagen_history":"[1,1,0,0]","location_rts":"[1143,644,699,619]","trial_type":"fractal-mutation","trial_index":102,"time_elapsed":1880517,"internal_node_id":"0.0-5.0-48.0"},{"group":"square cycles (cube, non-group)","fractal_assignment":["../images/grn_red.png","../images/ylw_pnk.png","../images/org_blu.png","../images/ylw_slt.png","../images/gry_blk.png","../images/cyn_red.png","../images/pnk_blu.png","../images/blu_wht.png"],"mutagen_generator_assignment":[1,0],"goal":0,"start":6,"action_noise":0.1,"location_history":"[6,5,4,5,1,0]","action_history":"[0,0,1,1,1]","mutagen_history":"[1,1,0,0,0]","location_rts":"[1338,551,530,624,1332]","trial_type":"fractal-mutation","trial_index":103,"time_elapsed":1893699,"internal_node_id":"0.0-5.0-49.0"},{"view_history":"[{\"page_index\":0,\"viewing_time\":15963}]","rt":15964,"trial_type":"instructions","trial_index":104,"time_elapsed":1910664,"internal_node_id":"0.0-6.0"},{"rt":9837,"responses":"{\"Q0\":\"no comments\"}","trial_type":"survey-text","trial_index":105,"time_elapsed":1921508,"internal_node_id":"0.0-7.0"}]