[{"view_history":"[{\"page_index\":0,\"viewing_time\":29518},{\"page_index\":1,\"viewing_time\":15264}]","rt":44783,"trial_type":"instructions","trial_index":0,"time_elapsed":44783,"internal_node_id":"0.0-0.0"},{"view_history":"[{\"page_index\":0,\"viewing_time\":1611},{\"page_index\":1,\"viewing_time\":6814}]","rt":8425,"trial_type":"instructions","trial_index":1,"time_elapsed":54210,"internal_node_id":"0.0-1.0"},{"group":"square cycles (cube, non-group)","room_assignment":["blue","pink","green","red","grey","yellow","brown","purple"],"door_color_assignment":["black","white"],"door_generator_assignment":[0,1],"goal":6,"start":3,"action_noise":0.1,"location_history":"[3,2,3,0,4,7,6]","action_history":"[1,0,0,0,0,0]","door_history":"[1,0,0,0,0,0]","location_rts":"[1279,687,427,561,639,444]","trial_type":"two-door-navigation","trial_index":2,"time_elapsed":67890,"internal_node_id":"0.0-2.0-0.0"},{"group":"square cycles (cube, non-group)","room_assignment":["blue","pink","green","red","grey","yellow","brown","purple"],"door_color_assignment":["black","white"],"door_generator_assignment":[0,1],"goal":1,"start":6,"action_noise":0.1,"location_history":"[6,5,4,7,6,7,3,2,6,7,3,0,1]","action_history":"[1,0,0,0,1,1,1,1,1,1,0,0]","door_history":"[1,0,0,0,1,1,1,1,1,1,0,0]","location_rts":"[1539,538,439,593,482,317,414,368,344,400,987,359]","trial_type":"two-door-navigation","trial_index":3,"time_elapsed":90426,"internal_node_id":"0.0-2.0-1.0"},{"group":"square cycles (cube, non-group)","room_assignment":["blue","pink","green","red","grey","yellow","brown","purple"],"door_color_assignment":["black","white"],"door_generator_assignment":[0,1],"goal":2,"start":1,"action_noise":0.1,"location_history":"[1,0,1,2]","action_history":"[1,0,0]","door_history":"[1,0,0]","location_rts":"[2565,403,456]","trial_type":"two-door-navigation","trial_index":4,"time_elapsed":100416,"internal_node_id":"0.0-2.0-2.0"},{"group":"square cycles (cube, non-group)","room_assignment":["blue","pink","green","red","grey","yellow","brown","purple"],"door_color_assignment":["black","white"],"door_generator_assignment":[0,1],"goal":0,"start":2,"action_noise":0.1,"location_history":"[2,6,5,4,7,6,5,4,7,6,5,4,5,4,7,6,5,4,7,6,5,4,7,3,0]","action_history":"[0,0,0,0,0,0,0,0,0,0,0,1,1,0,0,0,0,0,0,0,0,0,1,0]","door_history":"[0,0,0,0,0,0,0,0,0,0,0,1,1,0,0,0,0,0,0,0,0,0,1,0]","location_rts":"[1252,610,524,427,743,444,478,508,445,685,548,921,499,1761,675,473,453,395,371,352,385,481,1009,144]","trial_type":"two-door-navigation","trial_index":5,"time_elapsed":143007,"internal_node_id":"0.0-2.0-3.0"},{"group":"square cycles (cube, non-group)","room_assignment":["blue","pink","green","red","grey","yellow","brown","purple"],"door_color_assignment":["black","white"],"door_generator_assignment":[0,1],"goal":7,"start":0,"action_noise":0.1,"location_history":"[0,1,2,3,0,1,2,3,0,1,2,3,2,6,5,4,7]","action_history":"[0,0,0,0,0,0,0,0,0,0,0,1,1,0,0,0]","door_history":"[0,0,0,0,0,0,0,0,0,0,0,1,1,0,0,0]","location_rts":"[1126,875,486,484,514,578,538,460,489,538,578,1018,494,735,411,495]","trial_type":"two-door-navigation","trial_index":6,"time_elapsed":172665,"internal_node_id":"0.0-2.0-4.0"},{"group":"square cycles (cube, non-group)","room_assignment":["blue","pink","green","red","grey","yellow","brown","purple"],"door_color_assignment":["black","white"],"door_generator_assignment":[0,1],"goal":5,"start":7,"action_noise":0.1,"location_history":"[7,6,5]","action_history":"[0,0]","door_history":"[0,0]","location_rts":"[910,497]","trial_type":"two-door-navigation","trial_index":7,"time_elapsed":179616,"internal_node_id":"0.0-2.0-5.0"},{"group":"square cycles (cube, non-group)","room_assignment":["blue","pink","green","red","grey","yellow","brown","purple"],"door_color_assignment":["black","white"],"door_generator_assignment":[0,1],"goal":4,"start":5,"action_noise":0.1,"location_history":"[5,1,2,3,0,1,2,3,0,1,0,4]","action_history":"[1,0,0,0,0,0,0,0,0,1,1]","door_history":"[1,0,0,0,0,0,0,0,0,1,1]","location_rts":"[1535,764,609,486,485,459,460,448,449,368,757]","trial_type":"two-door-navigation","trial_index":8,"time_elapsed":201165,"internal_node_id":"0.0-2.0-6.0"},{"group":"square cycles (cube, non-group)","room_assignment":["blue","pink","green","red","grey","yellow","brown","purple"],"door_color_assignment":["black","white"],"door_generator_assignment":[0,1],"goal":2,"start":4,"action_noise":0.1,"location_history":"[4,7,6,5,4,7,6,5,4,5,4,7,3,0,4,7,6,7,3,0,1,2]","action_history":"[1,0,0,0,0,0,0,0,1,0,0,1,0,0,0,0,1,1,0,0,0]","door_history":"[1,0,0,0,0,0,0,0,1,0,0,1,0,0,0,0,1,1,0,0,0]","location_rts":"[1499,558,422,477,406,447,407,719,1367,1114,425,1144,435,494,583,1487,1340,1313,1152,475,838]","trial_type":"two-door-navigation","trial_index":9,"time_elapsed":243215,"internal_node_id":"0.0-2.0-7.0"},{"group":"square cycles (cube, non-group)","room_assignment":["blue","pink","green","red","grey","yellow","brown","purple"],"door_color_assignment":["black","white"],"door_generator_assignment":[0,1],"goal":3,"start":2,"action_noise":0.1,"location_history":"[2,3]","action_history":"[0]","door_history":"[0]","location_rts":"[1273]","trial_type":"two-door-navigation","trial_index":10,"time_elapsed":249009,"internal_node_id":"0.0-2.0-8.0"},{"group":"square cycles (cube, non-group)","room_assignment":["blue","pink","green","red","grey","yellow","brown","purple"],"door_color_assignment":["black","white"],"door_generator_assignment":[0,1],"goal":7,"start":3,"action_noise":0.1,"location_history":"[3,2,3,2,6,5,1,2,3,0,1,2,6,5,1,0,4,7]","action_history":"[1,0,1,1,0,0,0,0,0,0,0,0,0,1,1,1,0]","door_history":"[1,0,1,1,0,0,0,0,0,0,0,0,0,1,1,1,0]","location_rts":"[2135,493,705,523,900,456,512,819,570,426,699,545,564,756,1530,781,848]","trial_type":"two-door-navigation","trial_index":11,"time_elapsed":283131,"internal_node_id":"0.0-2.0-9.0"},{"group":"square cycles (cube, non-group)","room_assignment":["blue","pink","green","red","grey","yellow","brown","purple"],"door_color_assignment":["black","white"],"door_generator_assignment":[0,1],"goal":0,"start":7,"action_noise":0.1,"location_history":"[7,3,0]","action_history":"[1,0]","door_history":"[1,0]","location_rts":"[1943,958]","trial_type":"two-door-navigation","trial_index":12,"time_elapsed":291575,"internal_node_id":"0.0-2.0-10.0"},{"group":"square cycles (cube, non-group)","room_assignment":["blue","pink","green","red","grey","yellow","brown","purple"],"door_color_assignment":["black","white"],"door_generator_assignment":[0,1],"goal":1,"start":0,"action_noise":0.1,"location_history":"[0,4,5,1]","action_history":"[1,1,1]","door_history":"[1,1,1]","location_rts":"[1369,906,497]","trial_type":"two-door-navigation","trial_index":13,"time_elapsed":300914,"internal_node_id":"0.0-2.0-11.0"},{"group":"square cycles (cube, non-group)","room_assignment":["blue","pink","green","red","grey","yellow","brown","purple"],"door_color_assignment":["black","white"],"door_generator_assignment":[0,1],"goal":6,"start":1,"action_noise":0.1,"location_history":"[1,0,1,2,3,0,1,2,3,0,1,2,6]","action_history":"[1,0,0,0,0,0,0,0,0,0,0,1]","door_history":"[1,0,0,0,0,0,0,0,0,0,0,1]","location_rts":"[1519,1145,827,493,739,455,618,461,476,513,584,713]","trial_type":"two-door-navigation","trial_index":14,"time_elapsed":325216,"internal_node_id":"0.0-2.0-12.0"},{"group":"square cycles (cube, non-group)","room_assignment":["blue","pink","green","red","grey","yellow","brown","purple"],"door_color_assignment":["black","white"],"door_generator_assignment":[0,1],"goal":4,"start":6,"action_noise":0.1,"location_history":"[6,7,3,2,3,0,1,2,3,0,4]","action_history":"[1,1,1,0,0,0,0,0,0,1]","door_history":"[1,1,1,0,0,0,0,0,0,1]","location_rts":"[1137,1357,725,803,451,609,631,466,515,681]","trial_type":"two-door-navigation","trial_index":15,"time_elapsed":346311,"internal_node_id":"0.0-2.0-13.0"},{"group":"square cycles (cube, non-group)","room_assignment":["blue","pink","green","red","grey","yellow","brown","purple"],"door_color_assignment":["black","white"],"door_generator_assignment":[0,1],"goal":5,"start":4,"action_noise":0.1,"location_history":"[4,5]","action_history":"[1]","door_history":"[1]","location_rts":"[1024]","trial_type":"two-door-navigation","trial_index":16,"time_elapsed":351856,"internal_node_id":"0.0-2.0-14.0"},{"group":"square cycles (cube, non-group)","room_assignment":["blue","pink","green","red","grey","yellow","brown","purple"],"door_color_assignment":["black","white"],"door_generator_assignment":[0,1],"goal":4,"start":5,"action_noise":0.1,"location_history":"[5,1,2,6,5,4]","action_history":"[1,0,1,0,0]","door_history":"[1,0,1,0,0]","location_rts":"[1631,855,250,353,426]","trial_type":"two-door-navigation","trial_index":17,"time_elapsed":363987,"internal_node_id":"0.0-2.0-15.0"},{"group":"square cycles (cube, non-group)","room_assignment":["blue","pink","green","red","grey","yellow","brown","purple"],"door_color_assignment":["black","white"],"door_generator_assignment":[0,1],"goal":0,"start":4,"action_noise":0.1,"location_history":"[4,5,4,7,6,5,4,7,3,0]","action_history":"[1,0,0,0,0,0,0,1,1]","door_history":"[1,0,0,0,0,0,0,1,1]","location_rts":"[852,295,367,497,382,429,570,664,507]","trial_type":"two-door-navigation","trial_index":18,"time_elapsed":381247,"internal_node_id":"0.0-2.0-16.0"},{"group":"square cycles (cube, non-group)","room_assignment":["blue","pink","green","red","grey","yellow","brown","purple"],"door_color_assignment":["black","white"],"door_generator_assignment":[0,1],"goal":7,"start":0,"action_noise":0.1,"location_history":"[0,1,2,6,5,1,2,6,7]","action_history":"[0,0,1,0,0,0,1,1]","door_history":"[0,0,1,0,0,0,1,1]","location_rts":"[1056,429,242,391,408,421,739,443]","trial_type":"two-door-navigation","trial_index":19,"time_elapsed":397051,"internal_node_id":"0.0-2.0-17.0"},{"group":"square cycles (cube, non-group)","room_assignment":["blue","pink","green","red","grey","yellow","brown","purple"],"door_color_assignment":["black","white"],"door_generator_assignment":[0,1],"goal":2,"start":7,"action_noise":0.1,"location_history":"[7,3,0,1,2]","action_history":"[1,0,0,0]","door_history":"[1,0,0,0]","location_rts":"[744,166,322,422]","trial_type":"two-door-navigation","trial_index":20,"time_elapsed":406297,"internal_node_id":"0.0-2.0-18.0"},{"group":"square cycles (cube, non-group)","room_assignment":["blue","pink","green","red","grey","yellow","brown","purple"],"door_color_assignment":["black","white"],"door_generator_assignment":[0,1],"goal":1,"start":2,"action_noise":0.1,"location_history":"[2,6,5,4,5,4,7,6,5,4,7,3,0,4,7,6,7,3,2,6,7,6,7,6,5,4,5,1]","action_history":"[1,0,0,0,0,0,0,0,0,0,0,0,0,0,0,0,1,1,1,1,1,1,0,0,0,1,1]","door_history":"[1,0,0,0,0,0,0,0,0,0,0,0,0,0,0,0,1,1,1,1,1,1,0,0,0,1,1]","location_rts":"[1284,716,460,609,492,594,656,491,471,610,457,416,467,815,499,549,506,448,625,535,500,531,912,469,528,1076,149]","trial_type":"two-door-navigation","trial_index":21,"time_elapsed":453230,"internal_node_id":"0.0-2.0-19.0"},{"group":"square cycles (cube, non-group)","room_assignment":["blue","pink","green","red","grey","yellow","brown","purple"],"door_color_assignment":["black","white"],"door_generator_assignment":[0,1],"goal":3,"start":1,"action_noise":0.1,"location_history":"[1,0,1,2,3]","action_history":"[1,0,0,0]","door_history":"[1,0,0,0]","location_rts":"[929,679,531,492]","trial_type":"two-door-navigation","trial_index":22,"time_elapsed":463444,"internal_node_id":"0.0-2.0-20.0"},{"group":"square cycles (cube, non-group)","room_assignment":["blue","pink","green","red","grey","yellow","brown","purple"],"door_color_assignment":["black","white"],"door_generator_assignment":[0,1],"goal":6,"start":3,"action_noise":0.1,"location_history":"[3,0,1,2,6]","action_history":"[0,0,0,1]","door_history":"[0,0,0,1]","location_rts":"[1396,499,600,714]","trial_type":"two-door-navigation","trial_index":23,"time_elapsed":474235,"internal_node_id":"0.0-2.0-21.0"},{"group":"square cycles (cube, non-group)","room_assignment":["blue","pink","green","red","grey","yellow","brown","purple"],"door_color_assignment":["black","white"],"door_generator_assignment":[0,1],"goal":5,"start":6,"action_noise":0.1,"location_history":"[6,7,3,0,4,7,6,5]","action_history":"[1,0,0,0,0,0,0]","door_history":"[1,0,0,0,0,0,0]","location_rts":"[919,615,403,439,576,416,444]","trial_type":"two-door-navigation","trial_index":24,"time_elapsed":488696,"internal_node_id":"0.0-2.0-22.0"},{"group":"square cycles (cube, non-group)","room_assignment":["blue","pink","green","red","grey","yellow","brown","purple"],"door_color_assignment":["black","white"],"door_generator_assignment":[0,1],"goal":3,"start":5,"action_noise":0.1,"location_history":"[5,4,5,1,2,3]","action_history":"[0,1,1,0,0]","door_history":"[0,1,1,0,0]","location_rts":"[839,684,565,1057,591]","trial_type":"two-door-navigation","trial_index":25,"time_elapsed":501046,"internal_node_id":"0.0-2.0-23.0"},{"group":"square cycles (cube, non-group)","room_assignment":["blue","pink","green","red","grey","yellow","brown","purple"],"door_color_assignment":["black","white"],"door_generator_assignment":[0,1],"goal":0,"start":3,"action_noise":0.1,"location_history":"[3,0]","action_history":"[0]","door_history":"[0]","location_rts":"[1205]","trial_type":"two-door-navigation","trial_index":26,"time_elapsed":506776,"internal_node_id":"0.0-2.0-24.0"},{"group":"square cycles (cube, non-group)","room_assignment":["blue","pink","green","red","grey","yellow","brown","purple"],"door_color_assignment":["black","white"],"door_generator_assignment":[0,1],"goal":7,"start":0,"action_noise":0.1,"location_history":"[0,4,5,1,2,3,2,6,5,4,7]","action_history":"[1,1,1,0,0,0,0,0,0,0]","door_history":"[1,1,1,0,0,0,0,0,0,0]","location_rts":"[1313,1016,584,1060,466,455,456,624,483,523]","trial_type":"two-door-navigation","trial_index":27,"time_elapsed":527475,"internal_node_id":"0.0-2.0-25.0"},{"group":"square cycles (cube, non-group)","room_assignment":["blue","pink","green","red","grey","yellow","brown","purple"],"door_color_assignment":["black","white"],"door_generator_assignment":[0,1],"goal":2,"start":7,"action_noise":0.1,"location_history":"[7,6,5,4,7,3,2]","action_history":"[0,0,0,0,1,1]","door_history":"[0,0,0,0,1,1]","location_rts":"[866,452,488,462,966,599]","trial_type":"two-door-navigation","trial_index":28,"time_elapsed":540937,"internal_node_id":"0.0-2.0-26.0"},{"group":"square cycles (cube, non-group)","room_assignment":["blue","pink","green","red","grey","yellow","brown","purple"],"door_color_assignment":["black","white"],"door_generator_assignment":[0,1],"goal":1,"start":2,"action_noise":0.1,"location_history":"[2,3,2,6,7,6,5,4,5,4,5,1]","action_history":"[1,1,1,1,0,1,0,1,1,1,1]","door_history":"[1,1,1,1,0,1,0,1,1,1,1]","location_rts":"[670,486,463,615,811,493,420,661,483,465,453]","trial_type":"two-door-navigation","trial_index":29,"time_elapsed":561687,"internal_node_id":"0.0-2.0-27.0"},{"group":"square cycles (cube, non-group)","room_assignment":["blue","pink","green","red","grey","yellow","brown","purple"],"door_color_assignment":["black","white"],"door_generator_assignment":[0,1],"goal":5,"start":1,"action_noise":0.1,"location_history":"[1,0,4,5]","action_history":"[1,1,0]","door_history":"[1,1,0]","location_rts":"[868,320,959]","trial_type":"two-door-navigation","trial_index":30,"time_elapsed":570403,"internal_node_id":"0.0-2.0-28.0"},{"group":"square cycles (cube, non-group)","room_assignment":["blue","pink","green","red","grey","yellow","brown","purple"],"door_color_assignment":["black","white"],"door_generator_assignment":[0,1],"goal":4,"start":5,"action_noise":0.1,"location_history":"[5,4]","action_history":"[0]","door_history":"[0]","location_rts":"[813]","trial_type":"two-door-navigation","trial_index":31,"time_elapsed":575738,"internal_node_id":"0.0-2.0-29.0"},{"group":"square cycles (cube, non-group)","room_assignment":["blue","pink","green","red","grey","yellow","brown","purple"],"door_color_assignment":["black","white"],"door_generator_assignment":[0,1],"goal":6,"start":4,"action_noise":0.1,"location_history":"[4,7,3,2,6]","action_history":"[0,0,0,1]","door_history":"[0,0,0,1]","location_rts":"[1299,546,475,907]","trial_type":"two-door-navigation","trial_index":32,"time_elapsed":586552,"internal_node_id":"0.0-2.0-30.0"},{"group":"square cycles (cube, non-group)","room_assignment":["blue","pink","green","red","grey","yellow","brown","purple"],"door_color_assignment":["black","white"],"door_generator_assignment":[0,1],"goal":4,"start":6,"action_noise":0.1,"location_history":"[6,7,3,2,6,7,3,0,4]","action_history":"[1,1,1,1,1,0,0,1]","door_history":"[1,1,1,1,1,0,0,1]","location_rts":"[745,461,425,360,382,239,273,143]","trial_type":"two-door-navigation","trial_index":33,"time_elapsed":601257,"internal_node_id":"0.0-2.0-31.0"},{"group":"square cycles (cube, non-group)","room_assignment":["blue","pink","green","red","grey","yellow","brown","purple"],"door_color_assignment":["black","white"],"door_generator_assignment":[0,1],"goal":2,"start":4,"action_noise":0.1,"location_history":"[4,5,4,5,1,0,1,0,1,0,4,7,6,5,1,0,4,7,3,0,4,5,1,2]","action_history":"[0,0,0,1,1,0,0,0,1,1,0,0,0,1,1,1,0,1,0,0,1,1,0]","door_history":"[0,0,0,1,1,0,0,0,1,1,0,0,0,1,1,1,0,1,0,0,1,1,0]","location_rts":"[294,149,143,438,102,62,49,65,69,36,399,253,354,633,351,419,461,129,198,137,230,328,431]","trial_type":"two-door-navigation","trial_index":34,"time_elapsed":633949,"internal_node_id":"0.0-2.0-32.0"},{"group":"square cycles (cube, non-group)","room_assignment":["blue","pink","green","red","grey","yellow","brown","purple"],"door_color_assignment":["black","white"],"door_generator_assignment":[0,1],"goal":0,"start":2,"action_noise":0.1,"location_history":"[2,6,5,1,2,6,5,4,7,6,5,4,7,6,5,4,5,4,7,6,5,4,7,3,0]","action_history":"[0,0,0,0,1,0,0,0,0,0,0,0,0,0,0,1,0,0,0,0,0,0,1,0]","door_history":"[0,0,0,0,1,0,0,0,0,0,0,0,0,0,0,1,0,0,0,0,0,0,1,0]","location_rts":"[637,149,407,289,157,257,345,390,450,414,412,356,366,384,424,125,186,412,1152,463,717,460,723,929]","trial_type":"two-door-navigation","trial_index":35,"time_elapsed":672571,"internal_node_id":"0.0-2.0-33.0"},{"group":"square cycles (cube, non-group)","room_assignment":["blue","pink","green","red","grey","yellow","brown","purple"],"door_color_assignment":["black","white"],"door_generator_assignment":[0,1],"goal":5,"start":0,"action_noise":0.1,"location_history":"[0,1,0,4,5]","action_history":"[0,1,1,1]","door_history":"[0,1,1,1]","location_rts":"[847,263,507,396]","trial_type":"two-door-navigation","trial_index":36,"time_elapsed":682176,"internal_node_id":"0.0-2.0-34.0"},{"group":"square cycles (cube, non-group)","room_assignment":["blue","pink","green","red","grey","yellow","brown","purple"],"door_color_assignment":["black","white"],"door_generator_assignment":[0,1],"goal":1,"start":5,"action_noise":0.1,"location_history":"[5,1]","action_history":"[1]","door_history":"[1]","location_rts":"[408]","trial_type":"two-door-navigation","trial_index":37,"time_elapsed":687106,"internal_node_id":"0.0-2.0-35.0"},{"group":"square cycles (cube, non-group)","room_assignment":["blue","pink","green","red","grey","yellow","brown","purple"],"door_color_assignment":["black","white"],"door_generator_assignment":[0,1],"goal":7,"start":1,"action_noise":0.1,"location_history":"[1,0,4,7]","action_history":"[1,1,0]","door_history":"[1,1,0]","location_rts":"[788,165,123]","trial_type":"two-door-navigation","trial_index":38,"time_elapsed":694745,"internal_node_id":"0.0-2.0-36.0"},{"group":"square cycles (cube, non-group)","room_assignment":["blue","pink","green","red","grey","yellow","brown","purple"],"door_color_assignment":["black","white"],"door_generator_assignment":[0,1],"goal":3,"start":7,"action_noise":0.1,"location_history":"[7,3]","action_history":"[1]","door_history":"[1]","location_rts":"[383]","trial_type":"two-door-navigation","trial_index":39,"time_elapsed":699655,"internal_node_id":"0.0-2.0-37.0"},{"group":"square cycles (cube, non-group)","room_assignment":["blue","pink","green","red","grey","yellow","brown","purple"],"door_color_assignment":["black","white"],"door_generator_assignment":[0,1],"goal":6,"start":3,"action_noise":0.1,"location_history":"[3,2,3,2,3,2,6]","action_history":"[1,0,0,0,1,0]","door_history":"[1,0,0,0,1,0]","location_rts":"[663,113,381,469,257,139]","trial_type":"two-door-navigation","trial_index":40,"time_elapsed":711312,"internal_node_id":"0.0-2.0-38.0"},{"group":"square cycles (cube, non-group)","room_assignment":["blue","pink","green","red","grey","yellow","brown","purple"],"door_color_assignment":["black","white"],"door_generator_assignment":[0,1],"goal":2,"start":6,"action_noise":0.1,"location_history":"[6,5,4,7,3,2]","action_history":"[0,0,1,1,1]","door_history":"[0,0,1,1,1]","location_rts":"[698,428,634,507,439]","trial_type":"two-door-navigation","trial_index":41,"time_elapsed":722629,"internal_node_id":"0.0-2.0-39.0"},{"group":"square cycles (cube, non-group)","room_assignment":["blue","pink","green","red","grey","yellow","brown","purple"],"door_color_assignment":["black","white"],"door_generator_assignment":[0,1],"goal":1,"start":2,"action_noise":0.1,"location_history":"[2,3,0,1]","action_history":"[0,0,1]","door_history":"[0,0,1]","location_rts":"[949,157,469]","trial_type":"two-door-navigation","trial_index":42,"time_elapsed":730768,"internal_node_id":"0.0-2.0-40.0"},{"group":"square cycles (cube, non-group)","room_assignment":["blue","pink","green","red","grey","yellow","brown","purple"],"door_color_assignment":["black","white"],"door_generator_assignment":[0,1],"goal":0,"start":1,"action_noise":0.1,"location_history":"[1,0]","action_history":"[1]","door_history":"[1]","location_rts":"[455]","trial_type":"two-door-navigation","trial_index":43,"time_elapsed":735750,"internal_node_id":"0.0-2.0-41.0"},{"group":"square cycles (cube, non-group)","room_assignment":["blue","pink","green","red","grey","yellow","brown","purple"],"door_color_assignment":["black","white"],"door_generator_assignment":[0,1],"goal":4,"start":0,"action_noise":0.1,"location_history":"[0,1,0,4]","action_history":"[0,1,1]","door_history":"[0,1,1]","location_rts":"[533,747,408]","trial_type":"two-door-navigation","trial_index":44,"time_elapsed":744001,"internal_node_id":"0.0-2.0-42.0"},{"group":"square cycles (cube, non-group)","room_assignment":["blue","pink","green","red","grey","yellow","brown","purple"],"door_color_assignment":["black","white"],"door_generator_assignment":[0,1],"goal":6,"start":4,"action_noise":0.1,"location_history":"[4,5,4,7,3,0,4,5,4,7,6]","action_history":"[1,0,0,0,0,0,0,0,0,0]","door_history":"[1,0,0,0,0,0,0,0,0,0]","location_rts":"[754,56,93,77,357,381,742,1007,1526,440]","trial_type":"two-door-navigation","trial_index":45,"time_elapsed":763148,"internal_node_id":"0.0-2.0-43.0"},{"group":"square cycles (cube, non-group)","room_assignment":["blue","pink","green","red","grey","yellow","brown","purple"],"door_color_assignment":["black","white"],"door_generator_assignment":[0,1],"goal":3,"start":6,"action_noise":0.1,"location_history":"[6,7,6,5,4,7,6,5,1,0,4,7,6,5,4,7,3]","action_history":"[1,0,0,0,0,0,0,1,1,1,0,0,0,0,0,1]","door_history":"[1,0,0,0,0,0,0,1,1,1,0,0,0,0,0,1]","location_rts":"[1280,405,637,441,526,446,491,755,514,492,773,171,478,534,470,639]","trial_type":"two-door-navigation","trial_index":46,"time_elapsed":792042,"internal_node_id":"0.0-2.0-44.0"},{"group":"square cycles (cube, non-group)","room_assignment":["blue","pink","green","red","grey","yellow","brown","purple"],"door_color_assignment":["black","white"],"door_generator_assignment":[0,1],"goal":7,"start":3,"action_noise":0.1,"location_history":"[3,2,3,0,1,2,3,0,1,2,6,5,4,5,1,0,4,7]","action_history":"[1,0,0,1,0,0,0,0,0,1,0,0,1,1,1,1,0]","door_history":"[1,0,0,1,0,0,0,0,0,1,0,0,1,1,1,1,0]","location_rts":"[1033,908,967,1161,405,427,444,371,655,154,554,541,227,650,607,608,629]","trial_type":"two-door-navigation","trial_index":47,"time_elapsed":823241,"internal_node_id":"0.0-2.0-45.0"},{"group":"square cycles (cube, non-group)","room_assignment":["blue","pink","green","red","grey","yellow","brown","purple"],"door_color_assignment":["black","white"],"door_generator_assignment":[0,1],"goal":5,"start":7,"action_noise":0.1,"location_history":"[7,3,0,1,2,6,7,6,5]","action_history":"[0,0,0,0,1,0,0,0]","door_history":"[0,0,0,0,1,0,0,0]","location_rts":"[2104,458,543,875,764,1715,463,429]","trial_type":"two-door-navigation","trial_index":48,"time_elapsed":842267,"internal_node_id":"0.0-2.0-46.0"},{"group":"square cycles (cube, non-group)","room_assignment":["blue","pink","green","red","grey","yellow","brown","purple"],"door_color_assignment":["black","white"],"door_generator_assignment":[0,1],"goal":1,"start":5,"action_noise":0.1,"location_history":"[5,1]","action_history":"[1]","door_history":"[1]","location_rts":"[1203]","trial_type":"two-door-navigation","trial_index":49,"time_elapsed":847993,"internal_node_id":"0.0-2.0-47.0"},{"group":"square cycles (cube, non-group)","room_assignment":["blue","pink","green","red","grey","yellow","brown","purple"],"door_color_assignment":["black","white"],"door_generator_assignment":[0,1],"goal":6,"start":1,"action_noise":0.1,"location_history":"[1,0,4,5,4,7,3,0,4,5,4,7,6]","action_history":"[1,0,0,0,0,1,0,1,1,1,0,0]","door_history":"[1,0,0,0,0,1,0,1,1,1,0,0]","location_rts":"[862,1139,583,445,457,1244,1200,737,490,482,799,438]","trial_type":"two-door-navigation","trial_index":50,"time_elapsed":872627,"internal_node_id":"0.0-2.0-48.0"},{"group":"square cycles (cube, non-group)","room_assignment":["blue","pink","green","red","grey","yellow","brown","purple"],"door_color_assignment":["black","white"],"door_generator_assignment":[0,1],"goal":0,"start":6,"action_noise":0.1,"location_history":"[6,5,1,0]","action_history":"[0,1,0]","door_history":"[0,1,0]","location_rts":"[1741,1252,1010]","trial_type":"two-door-navigation","trial_index":51,"time_elapsed":883198,"internal_node_id":"0.0-2.0-49.0"},{"view_history":"[{\"page_index\":0,\"viewing_time\":1674}]","rt":1675,"trial_type":"instructions","trial_index":52,"time_elapsed":885873,"internal_node_id":"0.0-3.0"},{"view_history":"[{\"page_index\":0,\"viewing_time\":2108},{\"page_index\":1,\"viewing_time\":8980}]","rt":11089,"trial_type":"instructions","trial_index":53,"time_elapsed":897963,"internal_node_id":"0.0-4.0"},{"group":"tri cycles (cube, non-group)","fractal_assignment":["../images/blu_wht.png","../images/gry_blk.png","../images/org_blu.png","../images/pnk_blu.png","../images/grn_red.png","../images/ylw_pnk.png","../images/ylw_slt.png","../images/cyn_red.png"],"mutagen_generator_assignment":[1,0],"goal":6,"start":3,"action_noise":0.1,"location_history":"[3,7,6]","action_history":"[0,1]","mutagen_history":"[1,0]","location_rts":"[3517,408]","trial_type":"fractal-mutation","trial_index":54,"time_elapsed":907478,"internal_node_id":"0.0-5.0-0.0"},{"group":"tri cycles (cube, non-group)","fractal_assignment":["../images/blu_wht.png","../images/gry_blk.png","../images/org_blu.png","../images/pnk_blu.png","../images/grn_red.png","../images/ylw_pnk.png","../images/ylw_slt.png","../images/cyn_red.png"],"mutagen_generator_assignment":[1,0],"goal":1,"start":6,"action_noise":0.1,"location_history":"[6,4,0,3,7,6,4,7,3,4,7,6,4,0,3,4,0,2,1]","action_history":"[0,1,1,0,0,0,0,1,1,0,0,0,1,1,1,1,0,0]","mutagen_history":"[1,0,0,1,1,1,1,0,0,1,1,1,0,0,0,0,1,1]","location_rts":"[995,460,271,366,350,445,445,406,372,650,480,504,452,263,895,524,934,1405]","trial_type":"fractal-mutation","trial_index":55,"time_elapsed":939838,"internal_node_id":"0.0-5.0-1.0"},{"group":"tri cycles (cube, non-group)","fractal_assignment":["../images/blu_wht.png","../images/gry_blk.png","../images/org_blu.png","../images/pnk_blu.png","../images/grn_red.png","../images/ylw_pnk.png","../images/ylw_slt.png","../images/cyn_red.png"],"mutagen_generator_assignment":[1,0],"goal":2,"start":1,"action_noise":0.1,"location_history":"[1,0,3,4,7,3,4,0,2]","action_history":"[0,1,1,0,1,1,1,1]","mutagen_history":"[1,0,0,1,0,0,0,0]","location_rts":"[1130,386,499,525,675,550,919,885]","trial_type":"fractal-mutation","trial_index":56,"time_elapsed":957150,"internal_node_id":"0.0-5.0-2.0"},{"group":"tri cycles (cube, non-group)","fractal_assignment":["../images/blu_wht.png","../images/gry_blk.png","../images/org_blu.png","../images/pnk_blu.png","../images/grn_red.png","../images/ylw_pnk.png","../images/ylw_slt.png","../images/cyn_red.png"],"mutagen_generator_assignment":[1,0],"goal":0,"start":2,"action_noise":0.1,"location_history":"[2,6,4,7,6,4,7,3,4,7,3,4,7,3,4,0]","action_history":"[0,0,0,0,0,1,1,1,1,1,1,1,1,1,1]","mutagen_history":"[1,1,1,1,1,0,0,0,0,0,0,0,0,0,0]","location_rts":"[842,595,481,581,786,655,627,643,419,514,604,964,494,623,508]","trial_type":"fractal-mutation","trial_index":57,"time_elapsed":985475,"internal_node_id":"0.0-5.0-3.0"},{"group":"tri cycles (cube, non-group)","fractal_assignment":["../images/blu_wht.png","../images/gry_blk.png","../images/org_blu.png","../images/pnk_blu.png","../images/grn_red.png","../images/ylw_pnk.png","../images/ylw_slt.png","../images/cyn_red.png"],"mutagen_generator_assignment":[1,0],"goal":7,"start":0,"action_noise":0.1,"location_history":"[0,2,1,5,2,1,0,2,1,5,1,0,3,7]","action_history":"[0,0,0,1,0,0,0,0,0,0,0,1,0]","mutagen_history":"[1,1,1,0,1,1,1,1,1,1,1,0,1]","location_rts":"[717,403,481,450,507,585,492,462,550,497,707,929,806]","trial_type":"fractal-mutation","trial_index":58,"time_elapsed":1010045,"internal_node_id":"0.0-5.0-4.0"},{"group":"tri cycles (cube, non-group)","fractal_assignment":["../images/blu_wht.png","../images/gry_blk.png","../images/org_blu.png","../images/pnk_blu.png","../images/grn_red.png","../images/ylw_pnk.png","../images/ylw_slt.png","../images/cyn_red.png"],"mutagen_generator_assignment":[1,0],"goal":5,"start":7,"action_noise":0.1,"location_history":"[7,3,4,7,3,4,0,3,4,7,6,4,7,6,5]","action_history":"[1,0,0,1,1,1,1,1,0,0,0,0,0,0]","mutagen_history":"[0,1,1,0,0,0,0,0,1,1,1,1,1,1]","location_rts":"[922,1125,271,362,796,724,500,510,836,452,626,700,603,523]","trial_type":"fractal-mutation","trial_index":59,"time_elapsed":1036963,"internal_node_id":"0.0-5.0-5.0"},{"group":"tri cycles (cube, non-group)","fractal_assignment":["../images/blu_wht.png","../images/gry_blk.png","../images/org_blu.png","../images/pnk_blu.png","../images/grn_red.png","../images/ylw_pnk.png","../images/ylw_slt.png","../images/cyn_red.png"],"mutagen_generator_assignment":[1,0],"goal":4,"start":5,"action_noise":0.1,"location_history":"[5,2,1,5,1,0,2,1,0,2,6,4]","action_history":"[1,0,1,0,0,0,0,0,0,0,0]","mutagen_history":"[0,1,0,1,1,1,1,1,1,1,1]","location_rts":"[995,525,637,638,572,468,514,598,490,580,545]","trial_type":"fractal-mutation","trial_index":60,"time_elapsed":1058411,"internal_node_id":"0.0-5.0-6.0"},{"group":"tri cycles (cube, non-group)","fractal_assignment":["../images/blu_wht.png","../images/gry_blk.png","../images/org_blu.png","../images/pnk_blu.png","../images/grn_red.png","../images/ylw_pnk.png","../images/ylw_slt.png","../images/cyn_red.png"],"mutagen_generator_assignment":[1,0],"goal":2,"start":4,"action_noise":0.1,"location_history":"[4,7,3,4,0,3,4,0,2]","action_history":"[0,1,1,1,1,1,1,0]","mutagen_history":"[1,0,0,0,0,0,0,1]","location_rts":"[867,451,543,450,443,478,454,477]","trial_type":"fractal-mutation","trial_index":61,"time_elapsed":1074321,"internal_node_id":"0.0-5.0-7.0"},{"group":"tri cycles (cube, non-group)","fractal_assignment":["../images/blu_wht.png","../images/gry_blk.png","../images/org_blu.png","../images/pnk_blu.png","../images/grn_red.png","../images/ylw_pnk.png","../images/ylw_slt.png","../images/cyn_red.png"],"mutagen_generator_assignment":[1,0],"goal":3,"start":2,"action_noise":0.1,"location_history":"[2,6,5,1,0,3]","action_history":"[1,0,0,0,1]","mutagen_history":"[0,1,1,1,0]","location_rts":"[870,481,444,476,813]","trial_type":"fractal-mutation","trial_index":62,"time_elapsed":1086076,"internal_node_id":"0.0-5.0-8.0"},{"group":"tri cycles (cube, non-group)","fractal_assignment":["../images/blu_wht.png","../images/gry_blk.png","../images/org_blu.png","../images/pnk_blu.png","../images/grn_red.png","../images/ylw_pnk.png","../images/ylw_slt.png","../images/cyn_red.png"],"mutagen_generator_assignment":[1,0],"goal":7,"start":3,"action_noise":0.1,"location_history":"[3,7]","action_history":"[0]","mutagen_history":"[1]","location_rts":"[826]","trial_type":"fractal-mutation","trial_index":63,"time_elapsed":1091443,"internal_node_id":"0.0-5.0-9.0"},{"group":"tri cycles (cube, non-group)","fractal_assignment":["../images/blu_wht.png","../images/gry_blk.png","../images/org_blu.png","../images/pnk_blu.png","../images/grn_red.png","../images/ylw_pnk.png","../images/ylw_slt.png","../images/cyn_red.png"],"mutagen_generator_assignment":[1,0],"goal":0,"start":7,"action_noise":0.1,"location_history":"[7,3,7,6,4,7,6,5,2,6,5,2,6,5,1,0]","action_history":"[1,0,0,0,0,0,0,1,1,1,1,1,1,0,0]","mutagen_history":"[0,1,1,1,1,1,1,0,0,0,0,0,0,1,1]","location_rts":"[957,1178,533,477,436,539,576,350,405,508,454,515,418,460,719]","trial_type":"fractal-mutation","trial_index":64,"time_elapsed":1118970,"internal_node_id":"0.0-5.0-10.0"},{"group":"tri cycles (cube, non-group)","fractal_assignment":["../images/blu_wht.png","../images/gry_blk.png","../images/org_blu.png","../images/pnk_blu.png","../images/grn_red.png","../images/ylw_pnk.png","../images/ylw_slt.png","../images/cyn_red.png"],"mutagen_generator_assignment":[1,0],"goal":1,"start":0,"action_noise":0.1,"location_history":"[0,2,6,4,7,3,4,7,6,5,1]","action_history":"[0,1,0,0,1,0,0,0,1,0]","mutagen_history":"[1,0,1,1,0,1,1,1,0,1]","location_rts":"[1012,551,197,360,524,253,185,129,363,202]","trial_type":"fractal-mutation","trial_index":65,"time_elapsed":1136595,"internal_node_id":"0.0-5.0-11.0"},{"group":"tri cycles (cube, non-group)","fractal_assignment":["../images/blu_wht.png","../images/gry_blk.png","../images/org_blu.png","../images/pnk_blu.png","../images/grn_red.png","../images/ylw_pnk.png","../images/ylw_slt.png","../images/cyn_red.png"],"mutagen_generator_assignment":[1,0],"goal":6,"start":1,"action_noise":0.1,"location_history":"[1,5,2,1,5,1,0,2,1,5,1,5,2,6]","action_history":"[0,1,0,0,0,0,0,0,1,0,1,1,1]","mutagen_history":"[1,0,1,1,1,1,1,1,0,1,0,0,0]","location_rts":"[1859,416,676,533,499,430,484,553,638,300,638,459,606]","trial_type":"fractal-mutation","trial_index":66,"time_elapsed":1161636,"internal_node_id":"0.0-5.0-12.0"},{"group":"tri cycles (cube, non-group)","fractal_assignment":["../images/blu_wht.png","../images/gry_blk.png","../images/org_blu.png","../images/pnk_blu.png","../images/grn_red.png","../images/ylw_pnk.png","../images/ylw_slt.png","../images/cyn_red.png"],"mutagen_generator_assignment":[1,0],"goal":4,"start":6,"action_noise":0.1,"location_history":"[6,4]","action_history":"[0]","mutagen_history":"[1]","location_rts":"[795]","trial_type":"fractal-mutation","trial_index":67,"time_elapsed":1166968,"internal_node_id":"0.0-5.0-13.0"},{"group":"tri cycles (cube, non-group)","fractal_assignment":["../images/blu_wht.png","../images/gry_blk.png","../images/org_blu.png","../images/pnk_blu.png","../images/grn_red.png","../images/ylw_pnk.png","../images/ylw_slt.png","../images/cyn_red.png"],"mutagen_generator_assignment":[1,0],"goal":5,"start":4,"action_noise":0.1,"location_history":"[4,0,2,1,5]","action_history":"[1,0,0,1]","mutagen_history":"[0,1,1,0]","location_rts":"[734,565,556,875]","trial_type":"fractal-mutation","trial_index":68,"time_elapsed":1177355,"internal_node_id":"0.0-5.0-14.0"},{"group":"tri cycles (cube, non-group)","fractal_assignment":["../images/blu_wht.png","../images/gry_blk.png","../images/org_blu.png","../images/pnk_blu.png","../images/grn_red.png","../images/ylw_pnk.png","../images/ylw_slt.png","../images/cyn_red.png"],"mutagen_generator_assignment":[1,0],"goal":4,"start":5,"action_noise":0.1,"location_history":"[5,1,5,2,6,5,2,6,5,1,0,2,6,5,1,5,2,6,5,2,6,4]","action_history":"[1,1,0,1,1,1,1,1,0,0,0,1,1,0,1,1,1,1,1,1,0]","mutagen_history":"[0,0,1,0,0,0,0,0,1,1,1,0,0,1,0,0,0,0,0,0,1]","location_rts":"[971,492,199,301,753,484,468,588,787,473,509,580,568,721,637,420,554,588,465,477,861]","trial_type":"fractal-mutation","trial_index":69,"time_elapsed":1214408,"internal_node_id":"0.0-5.0-15.0"},{"group":"tri cycles (cube, non-group)","fractal_assignment":["../images/blu_wht.png","../images/gry_blk.png","../images/org_blu.png","../images/pnk_blu.png","../images/grn_red.png","../images/ylw_pnk.png","../images/ylw_slt.png","../images/cyn_red.png"],"mutagen_generator_assignment":[1,0],"goal":0,"start":4,"action_noise":0.1,"location_history":"[4,0]","action_history":"[1]","mutagen_history":"[0]","location_rts":"[822]","trial_type":"fractal-mutation","trial_index":70,"time_elapsed":1219764,"internal_node_id":"0.0-5.0-16.0"},{"group":"tri cycles (cube, non-group)","fractal_assignment":["../images/blu_wht.png","../images/gry_blk.png","../images/org_blu.png","../images/pnk_blu.png","../images/grn_red.png","../images/ylw_pnk.png","../images/ylw_slt.png","../images/cyn_red.png"],"mutagen_generator_assignment":[1,0],"goal":7,"start":0,"action_noise":0.1,"location_history":"[0,2,1,0,2,1,0,2,1,0,3,7]","action_history":"[0,1,0,0,0,0,0,0,0,1,0]","mutagen_history":"[1,0,1,1,1,1,1,1,1,0,1]","location_rts":"[851,595,492,531,522,514,484,458,737,456,697]","trial_type":"fractal-mutation","trial_index":71,"time_elapsed":1241015,"internal_node_id":"0.0-5.0-17.0"},{"group":"tri cycles (cube, non-group)","fractal_assignment":["../images/blu_wht.png","../images/gry_blk.png","../images/org_blu.png","../images/pnk_blu.png","../images/grn_red.png","../images/ylw_pnk.png","../images/ylw_slt.png","../images/cyn_red.png"],"mutagen_generator_assignment":[1,0],"goal":2,"start":7,"action_noise":0.1,"location_history":"[7,6,5,1,5,1,5,2]","action_history":"[0,1,0,0,0,1,1]","mutagen_history":"[1,0,1,1,1,0,0]","location_rts":"[799,545,667,631,609,426,421]","trial_type":"fractal-mutation","trial_index":72,"time_elapsed":1255848,"internal_node_id":"0.0-5.0-18.0"},{"group":"tri cycles (cube, non-group)","fractal_assignment":["../images/blu_wht.png","../images/gry_blk.png","../images/org_blu.png","../images/pnk_blu.png","../images/grn_red.png","../images/ylw_pnk.png","../images/ylw_slt.png","../images/cyn_red.png"],"mutagen_generator_assignment":[1,0],"goal":1,"start":2,"action_noise":0.1,"location_history":"[2,1]","action_history":"[0]","mutagen_history":"[1]","location_rts":"[990]","trial_type":"fractal-mutation","trial_index":73,"time_elapsed":1261378,"internal_node_id":"0.0-5.0-19.0"},{"group":"tri cycles (cube, non-group)","fractal_assignment":["../images/blu_wht.png","../images/gry_blk.png","../images/org_blu.png","../images/pnk_blu.png","../images/grn_red.png","../images/ylw_pnk.png","../images/ylw_slt.png","../images/cyn_red.png"],"mutagen_generator_assignment":[1,0],"goal":3,"start":1,"action_noise":0.1,"location_history":"[1,5,2,6,4,7,6,5,2,6,5,2,1,5,1,0,3]","action_history":"[1,1,1,0,0,0,1,1,1,1,1,0,1,0,0,1]","mutagen_history":"[0,0,0,1,1,1,0,0,0,0,0,1,0,1,1,0]","location_rts":"[1140,608,614,575,455,683,222,275,366,486,411,916,443,492,309,351]","trial_type":"fractal-mutation","trial_index":74,"time_elapsed":1289746,"internal_node_id":"0.0-5.0-20.0"},{"group":"tri cycles (cube, non-group)","fractal_assignment":["../images/blu_wht.png","../images/gry_blk.png","../images/org_blu.png","../images/pnk_blu.png","../images/grn_red.png","../images/ylw_pnk.png","../images/ylw_slt.png","../images/cyn_red.png"],"mutagen_generator_assignment":[1,0],"goal":6,"start":3,"action_noise":0.1,"location_history":"[3,4,7,6]","action_history":"[1,0,0]","mutagen_history":"[0,1,1]","location_rts":"[459,388,156]","trial_type":"fractal-mutation","trial_index":75,"time_elapsed":1297354,"internal_node_id":"0.0-5.0-21.0"},{"group":"tri cycles (cube, non-group)","fractal_assignment":["../images/blu_wht.png","../images/gry_blk.png","../images/org_blu.png","../images/pnk_blu.png","../images/grn_red.png","../images/ylw_pnk.png","../images/ylw_slt.png","../images/cyn_red.png"],"mutagen_generator_assignment":[1,0],"goal":5,"start":6,"action_noise":0.1,"location_history":"[6,4,0,3,4,7,6,5]","action_history":"[0,1,1,0,0,0,1]","mutagen_history":"[1,0,0,1,1,1,0]","location_rts":"[619,273,460,894,66,88,110]","trial_type":"fractal-mutation","trial_index":76,"time_elapsed":1310601,"internal_node_id":"0.0-5.0-22.0"},{"group":"tri cycles (cube, non-group)","fractal_assignment":["../images/blu_wht.png","../images/gry_blk.png","../images/org_blu.png","../images/pnk_blu.png","../images/grn_red.png","../images/ylw_pnk.png","../images/ylw_slt.png","../images/cyn_red.png"],"mutagen_generator_assignment":[1,0],"goal":3,"start":5,"action_noise":0.1,"location_history":"[5,2,6,4,0,2,6,4,0,3]","action_history":"[1,1,1,1,1,1,0,1,1]","mutagen_history":"[0,0,0,0,0,0,1,0,0]","location_rts":"[1093,814,864,542,508,452,540,449,1083]","trial_type":"fractal-mutation","trial_index":77,"time_elapsed":1329711,"internal_node_id":"0.0-5.0-23.0"},{"group":"tri cycles (cube, non-group)","fractal_assignment":["../images/blu_wht.png","../images/gry_blk.png","../images/org_blu.png","../images/pnk_blu.png","../images/grn_red.png","../images/ylw_pnk.png","../images/ylw_slt.png","../images/cyn_red.png"],"mutagen_generator_assignment":[1,0],"goal":0,"start":3,"action_noise":0.1,"location_history":"[3,4,7,6,4,0]","action_history":"[1,0,0,0,1]","mutagen_history":"[0,1,1,1,0]","location_rts":"[1382,446,538,623,467]","trial_type":"fractal-mutation","trial_index":78,"time_elapsed":1341849,"internal_node_id":"0.0-5.0-24.0"},{"group":"tri cycles (cube, non-group)","fractal_assignment":["../images/blu_wht.png","../images/gry_blk.png","../images/org_blu.png","../images/pnk_blu.png","../images/grn_red.png","../images/ylw_pnk.png","../images/ylw_slt.png","../images/cyn_red.png"],"mutagen_generator_assignment":[1,0],"goal":7,"start":0,"action_noise":0.1,"location_history":"[0,2,6,5,1,0,2,1,5,2,1,0,2,1,5,2,6,4,0,2,6,5,2,6,4,0,2,1,0,3,7]","action_history":"[0,1,1,0,0,0,0,1,1,0,0,0,0,1,1,1,0,1,0,1,1,1,1,0,1,0,0,0,1,0]","mutagen_history":"[1,0,0,1,1,1,1,0,0,1,1,1,1,0,0,0,1,0,1,0,0,0,0,1,0,1,1,1,0,1]","location_rts":"[741,664,574,343,213,511,553,665,373,255,700,500,664,622,275,652,1009,750,819,594,164,558,843,171,499,627,576,521,924,197]","trial_type":"fractal-mutation","trial_index":79,"time_elapsed":1392932,"internal_node_id":"0.0-5.0-25.0"},{"group":"tri cycles (cube, non-group)","fractal_assignment":["../images/blu_wht.png","../images/gry_blk.png","../images/org_blu.png","../images/pnk_blu.png","../images/grn_red.png","../images/ylw_pnk.png","../images/ylw_slt.png","../images/cyn_red.png"],"mutagen_generator_assignment":[1,0],"goal":2,"start":7,"action_noise":0.1,"location_history":"[7,6,4,7,3,7,3,4,0,3,4,7,6,5,2]","action_history":"[1,0,0,1,0,1,1,1,1,1,0,0,1,1]","mutagen_history":"[0,1,1,0,1,0,0,0,0,0,1,1,0,0]","location_rts":"[1049,667,499,643,796,369,166,619,543,519,549,678,529,761]","trial_type":"fractal-mutation","trial_index":80,"time_elapsed":1419265,"internal_node_id":"0.0-5.0-26.0"},{"group":"tri cycles (cube, non-group)","fractal_assignment":["../images/blu_wht.png","../images/gry_blk.png","../images/org_blu.png","../images/pnk_blu.png","../images/grn_red.png","../images/ylw_pnk.png","../images/ylw_slt.png","../images/cyn_red.png"],"mutagen_generator_assignment":[1,0],"goal":1,"start":2,"action_noise":0.1,"location_history":"[2,6,4,7,6,5,1]","action_history":"[1,0,0,0,1,0]","mutagen_history":"[0,1,1,1,0,1]","location_rts":"[1380,550,637,498,265,236]","trial_type":"fractal-mutation","trial_index":81,"time_elapsed":1432540,"internal_node_id":"0.0-5.0-27.0"},{"group":"tri cycles (cube, non-group)","fractal_assignment":["../images/blu_wht.png","../images/gry_blk.png","../images/org_blu.png","../images/pnk_blu.png","../images/grn_red.png","../images/ylw_pnk.png","../images/ylw_slt.png","../images/cyn_red.png"],"mutagen_generator_assignment":[1,0],"goal":5,"start":1,"action_noise":0.1,"location_history":"[1,5]","action_history":"[1]","mutagen_history":"[0]","location_rts":"[1066]","trial_type":"fractal-mutation","trial_index":82,"time_elapsed":1438135,"internal_node_id":"0.0-5.0-28.0"},{"group":"tri cycles (cube, non-group)","fractal_assignment":["../images/blu_wht.png","../images/gry_blk.png","../images/org_blu.png","../images/pnk_blu.png","../images/grn_red.png","../images/ylw_pnk.png","../images/ylw_slt.png","../images/cyn_red.png"],"mutagen_generator_assignment":[1,0],"goal":4,"start":5,"action_noise":0.1,"location_history":"[5,2,1,5,2,6,5,1,0,2,1,0,2,6,4]","action_history":"[1,0,1,1,1,1,0,0,0,0,0,0,1,0]","mutagen_history":"[0,1,0,0,0,0,1,1,1,1,1,1,0,1]","location_rts":"[710,549,582,100,436,409,572,554,462,503,469,518,654,773]","trial_type":"fractal-mutation","trial_index":83,"time_elapsed":1463383,"internal_node_id":"0.0-5.0-29.0"},{"group":"tri cycles (cube, non-group)","fractal_assignment":["../images/blu_wht.png","../images/gry_blk.png","../images/org_blu.png","../images/pnk_blu.png","../images/grn_red.png","../images/ylw_pnk.png","../images/ylw_slt.png","../images/cyn_red.png"],"mutagen_generator_assignment":[1,0],"goal":6,"start":4,"action_noise":0.1,"location_history":"[4,0,3,7,3,4,7,6]","action_history":"[1,1,0,1,0,0,0]","mutagen_history":"[0,0,1,0,1,1,1]","location_rts":"[886,779,661,113,196,101,502]","trial_type":"fractal-mutation","trial_index":84,"time_elapsed":1477362,"internal_node_id":"0.0-5.0-30.0"},{"group":"tri cycles (cube, non-group)","fractal_assignment":["../images/blu_wht.png","../images/gry_blk.png","../images/org_blu.png","../images/pnk_blu.png","../images/grn_red.png","../images/ylw_pnk.png","../images/ylw_slt.png","../images/cyn_red.png"],"mutagen_generator_assignment":[1,0],"goal":4,"start":6,"action_noise":0.1,"location_history":"[6,5,2,1,0,2,6,4]","action_history":"[1,0,0,0,0,1,0]","mutagen_history":"[0,1,1,1,1,0,1]","location_rts":"[1379,469,503,531,426,241,551]","trial_type":"fractal-mutation","trial_index":85,"time_elapsed":1492204,"internal_node_id":"0.0-5.0-31.0"},{"group":"tri cycles (cube, non-group)","fractal_assignment":["../images/blu_wht.png","../images/gry_blk.png","../images/org_blu.png","../images/pnk_blu.png","../images/grn_red.png","../images/ylw_pnk.png","../images/ylw_slt.png","../images/cyn_red.png"],"mutagen_generator_assignment":[1,0],"goal":2,"start":4,"action_noise":0.1,"location_history":"[4,0,3,4,7,6,4,0,3,4,7,3,7,6,4,0,3,4,0,2]","action_history":"[1,1,1,0,0,0,1,1,1,0,1,0,0,1,1,1,1,1,0]","mutagen_history":"[0,0,0,1,1,1,0,0,0,1,0,1,1,0,0,0,0,0,1]","location_rts":"[1471,494,684,430,464,515,162,301,154,180,129,502,51,96,181,524,1308,814,503]","trial_type":"fractal-mutation","trial_index":86,"time_elapsed":1524266,"internal_node_id":"0.0-5.0-32.0"},{"group":"tri cycles (cube, non-group)","fractal_assignment":["../images/blu_wht.png","../images/gry_blk.png","../images/org_blu.png","../images/pnk_blu.png","../images/grn_red.png","../images/ylw_pnk.png","../images/ylw_slt.png","../images/cyn_red.png"],"mutagen_generator_assignment":[1,0],"goal":0,"start":2,"action_noise":0.1,"location_history":"[2,6,5,1,0]","action_history":"[1,1,0,0]","mutagen_history":"[0,0,1,1]","location_rts":"[978,861,236,660]","trial_type":"fractal-mutation","trial_index":87,"time_elapsed":1534634,"internal_node_id":"0.0-5.0-33.0"},{"group":"tri cycles (cube, non-group)","fractal_assignment":["../images/blu_wht.png","../images/gry_blk.png","../images/org_blu.png","../images/pnk_blu.png","../images/grn_red.png","../images/ylw_pnk.png","../images/ylw_slt.png","../images/cyn_red.png"],"mutagen_generator_assignment":[1,0],"goal":5,"start":0,"action_noise":0.1,"location_history":"[0,3,7,3,4,0,2,6,4,7,6,4,7,6,4,0,2,1,0,2,6,4,7,3,7,6,4,0,3,4,0,2,6,5]","action_history":"[1,0,1,1,1,0,1,0,0,0,0,0,0,0,1,0,0,0,0,1,0,0,1,0,0,0,1,1,1,1,1,1,1]","mutagen_history":"[0,1,0,0,0,1,0,1,1,1,1,1,1,1,0,1,1,1,1,0,1,1,0,1,1,1,0,0,0,0,0,0,0]","location_rts":"[969,494,457,707,941,421,668,638,164,476,651,512,515,581,501,1538,928,754,1029,570,839,799,491,1156,233,100,867,507,676,551,454,1028,837]","trial_type":"fractal-mutation","trial_index":88,"time_elapsed":1594271,"internal_node_id":"0.0-5.0-34.0"},{"group":"tri cycles (cube, non-group)","fractal_assignment":["../images/blu_wht.png","../images/gry_blk.png","../images/org_blu.png","../images/pnk_blu.png","../images/grn_red.png","../images/ylw_pnk.png","../images/ylw_slt.png","../images/cyn_red.png"],"mutagen_generator_assignment":[1,0],"goal":1,"start":5,"action_noise":0.1,"location_history":"[5,1]","action_history":"[0]","mutagen_history":"[1]","location_rts":"[1171]","trial_type":"fractal-mutation","trial_index":89,"time_elapsed":1599988,"internal_node_id":"0.0-5.0-35.0"},{"group":"tri cycles (cube, non-group)","fractal_assignment":["../images/blu_wht.png","../images/gry_blk.png","../images/org_blu.png","../images/pnk_blu.png","../images/grn_red.png","../images/ylw_pnk.png","../images/ylw_slt.png","../images/cyn_red.png"],"mutagen_generator_assignment":[1,0],"goal":7,"start":1,"action_noise":0.1,"location_history":"[1,5,2,1,5,1,0,2,6,5,1,5,2,1,5,2,6,5,1,5,1,5,2,6,4,7]","action_history":"[1,1,0,0,0,0,0,1,1,0,1,1,1,1,1,1,1,0,1,0,1,0,0,0,0]","mutagen_history":"[0,0,1,1,1,1,1,0,0,1,0,0,0,0,0,0,0,1,0,1,0,1,1,1,1]","location_rts":"[1664,2053,630,971,535,757,712,598,611,692,659,549,629,717,612,766,1062,685,778,627,844,725,585,1779,706]","trial_type":"fractal-mutation","trial_index":90,"time_elapsed":1650240,"internal_node_id":"0.0-5.0-36.0"},{"group":"tri cycles (cube, non-group)","fractal_assignment":["../images/blu_wht.png","../images/gry_blk.png","../images/org_blu.png","../images/pnk_blu.png","../images/grn_red.png","../images/ylw_pnk.png","../images/ylw_slt.png","../images/cyn_red.png"],"mutagen_generator_assignment":[1,0],"goal":3,"start":7,"action_noise":0.1,"location_history":"[7,3]","action_history":"[1]","mutagen_history":"[0]","location_rts":"[1531]","trial_type":"fractal-mutation","trial_index":91,"time_elapsed":1656304,"internal_node_id":"0.0-5.0-37.0"},{"group":"tri cycles (cube, non-group)","fractal_assignment":["../images/blu_wht.png","../images/gry_blk.png","../images/org_blu.png","../images/pnk_blu.png","../images/grn_red.png","../images/ylw_pnk.png","../images/ylw_slt.png","../images/cyn_red.png"],"mutagen_generator_assignment":[1,0],"goal":6,"start":3,"action_noise":0.1,"location_history":"[3,7,3,7,3,7,6]","action_history":"[0,0,0,0,0,0]","mutagen_history":"[1,1,1,1,1,1]","location_rts":"[1563,221,629,475,468,356]","trial_type":"fractal-mutation","trial_index":92,"time_elapsed":1669737,"internal_node_id":"0.0-5.0-38.0"},{"group":"tri cycles (cube, non-group)","fractal_assignment":["../images/blu_wht.png","../images/gry_blk.png","../images/org_blu.png","../images/pnk_blu.png","../images/grn_red.png","../images/ylw_pnk.png","../images/ylw_slt.png","../images/cyn_red.png"],"mutagen_generator_assignment":[1,0],"goal":2,"start":6,"action_noise":0.1,"location_history":"[6,5,1,0,2]","action_history":"[1,1,0,0]","mutagen_history":"[0,0,1,1]","location_rts":"[964,758,845,523]","trial_type":"fractal-mutation","trial_index":93,"time_elapsed":1680456,"internal_node_id":"0.0-5.0-39.0"},{"group":"tri cycles (cube, non-group)","fractal_assignment":["../images/blu_wht.png","../images/gry_blk.png","../images/org_blu.png","../images/pnk_blu.png","../images/grn_red.png","../images/ylw_pnk.png","../images/ylw_slt.png","../images/cyn_red.png"],"mutagen_generator_assignment":[1,0],"goal":1,"start":2,"action_noise":0.1,"location_history":"[2,1]","action_history":"[0]","mutagen_history":"[1]","location_rts":"[1931]","trial_type":"fractal-mutation","trial_index":94,"time_elapsed":1686927,"internal_node_id":"0.0-5.0-40.0"},{"group":"tri cycles (cube, non-group)","fractal_assignment":["../images/blu_wht.png","../images/gry_blk.png","../images/org_blu.png","../images/pnk_blu.png","../images/grn_red.png","../images/ylw_pnk.png","../images/ylw_slt.png","../images/cyn_red.png"],"mutagen_generator_assignment":[1,0],"goal":0,"start":1,"action_noise":0.1,"location_history":"[1,5,1,0]","action_history":"[1,0,0]","mutagen_history":"[0,1,1]","location_rts":"[1221,476,459]","trial_type":"fractal-mutation","trial_index":95,"time_elapsed":1695691,"internal_node_id":"0.0-5.0-41.0"},{"group":"tri cycles (cube, non-group)","fractal_assignment":["../images/blu_wht.png","../images/gry_blk.png","../images/org_blu.png","../images/pnk_blu.png","../images/grn_red.png","../images/ylw_pnk.png","../images/ylw_slt.png","../images/cyn_red.png"],"mutagen_generator_assignment":[1,0],"goal":4,"start":0,"action_noise":0.1,"location_history":"[0,3,7,6,4]","action_history":"[1,0,0,0]","mutagen_history":"[0,1,1,1]","location_rts":"[1127,646,371,451]","trial_type":"fractal-mutation","trial_index":96,"time_elapsed":1705932,"internal_node_id":"0.0-5.0-42.0"},{"group":"tri cycles (cube, non-group)","fractal_assignment":["../images/blu_wht.png","../images/gry_blk.png","../images/org_blu.png","../images/pnk_blu.png","../images/grn_red.png","../images/ylw_pnk.png","../images/ylw_slt.png","../images/cyn_red.png"],"mutagen_generator_assignment":[1,0],"goal":6,"start":4,"action_noise":0.1,"location_history":"[4,7,6]","action_history":"[0,0]","mutagen_history":"[1,1]","location_rts":"[879,553]","trial_type":"fractal-mutation","trial_index":97,"time_elapsed":1712947,"internal_node_id":"0.0-5.0-43.0"},{"group":"tri cycles (cube, non-group)","fractal_assignment":["../images/blu_wht.png","../images/gry_blk.png","../images/org_blu.png","../images/pnk_blu.png","../images/grn_red.png","../images/ylw_pnk.png","../images/ylw_slt.png","../images/cyn_red.png"],"mutagen_generator_assignment":[1,0],"goal":3,"start":6,"action_noise":0.1,"location_history":"[6,5,1,5,2,6,4,0,3]","action_history":"[1,1,1,1,1,1,1,1]","mutagen_history":"[0,0,0,0,0,0,0,0]","location_rts":"[816,484,715,494,572,787,677,517]","trial_type":"fractal-mutation","trial_index":98,"time_elapsed":1729733,"internal_node_id":"0.0-5.0-44.0"},{"group":"tri cycles (cube, non-group)","fractal_assignment":["../images/blu_wht.png","../images/gry_blk.png","../images/org_blu.png","../images/pnk_blu.png","../images/grn_red.png","../images/ylw_pnk.png","../images/ylw_slt.png","../images/cyn_red.png"],"mutagen_generator_assignment":[1,0],"goal":7,"start":3,"action_noise":0.1,"location_history":"[3,7]","action_history":"[0]","mutagen_history":"[1]","location_rts":"[1022]","trial_type":"fractal-mutation","trial_index":99,"time_elapsed":1735297,"internal_node_id":"0.0-5.0-45.0"},{"group":"tri cycles (cube, non-group)","fractal_assignment":["../images/blu_wht.png","../images/gry_blk.png","../images/org_blu.png","../images/pnk_blu.png","../images/grn_red.png","../images/ylw_pnk.png","../images/ylw_slt.png","../images/cyn_red.png"],"mutagen_generator_assignment":[1,0],"goal":5,"start":7,"action_noise":0.1,"location_history":"[7,6,4,7,6,4,0,3,7,3,4,7,3,7,6,5]","action_history":"[0,0,0,0,0,1,1,0,0,0,0,1,0,0,0]","mutagen_history":"[1,1,1,1,1,0,0,1,1,1,1,0,1,1,1]","location_rts":"[993,505,693,699,780,762,611,718,620,501,510,665,440,125,481]","trial_type":"fractal-mutation","trial_index":100,"time_elapsed":1763426,"internal_node_id":"0.0-5.0-46.0"},{"group":"tri cycles (cube, non-group)","fractal_assignment":["../images/blu_wht.png","../images/gry_blk.png","../images/org_blu.png","../images/pnk_blu.png","../images/grn_red.png","../images/ylw_pnk.png","../images/ylw_slt.png","../images/cyn_red.png"],"mutagen_generator_assignment":[1,0],"goal":1,"start":5,"action_noise":0.1,"location_history":"[5,1]","action_history":"[0]","mutagen_history":"[1]","location_rts":"[953]","trial_type":"fractal-mutation","trial_index":101,"time_elapsed":1768921,"internal_node_id":"0.0-5.0-47.0"},{"group":"tri cycles (cube, non-group)","fractal_assignment":["../images/blu_wht.png","../images/gry_blk.png","../images/org_blu.png","../images/pnk_blu.png","../images/grn_red.png","../images/ylw_pnk.png","../images/ylw_slt.png","../images/cyn_red.png"],"mutagen_generator_assignment":[1,0],"goal":6,"start":1,"action_noise":0.1,"location_history":"[1,0,2,1,0,3,7,6]","action_history":"[0,0,0,0,1,0,0]","mutagen_history":"[1,1,1,1,0,1,1]","location_rts":"[1562,520,566,640,769,837,484]","trial_type":"fractal-mutation","trial_index":102,"time_elapsed":1785055,"internal_node_id":"0.0-5.0-48.0"},{"group":"tri cycles (cube, non-group)","fractal_assignment":["../images/blu_wht.png","../images/gry_blk.png","../images/org_blu.png","../images/pnk_blu.png","../images/grn_red.png","../images/ylw_pnk.png","../images/ylw_slt.png","../images/cyn_red.png"],"mutagen_generator_assignment":[1,0],"goal":0,"start":6,"action_noise":0.1,"location_history":"[6,5,2,6,5,2,6,4,7,6,4,7,6,4,0]","action_history":"[1,1,1,1,1,1,0,0,0,0,0,0,0,1]","mutagen_history":"[0,0,0,0,0,0,1,1,1,1,1,1,1,0]","location_rts":"[932,438,454,641,429,484,540,477,595,576,491,597,652,603]","trial_type":"fractal-mutation","trial_index":103,"time_elapsed":1810926,"internal_node_id":"0.0-5.0-49.0"},{"view_history":"[{\"page_index\":0,\"viewing_time\":3723}]","rt":3723,"trial_type":"instructions","trial_index":104,"time_elapsed":1815650,"internal_node_id":"0.0-6.0"},{"rt":1524,"responses":"{\"Q0\":\"\"}","trial_type":"survey-text","trial_index":105,"time_elapsed":1818182,"internal_node_id":"0.0-7.0"}]