[{"view_history":"[{\"page_index\":0,\"viewing_time\":87259},{\"page_index\":1,\"viewing_time\":5814}]","rt":93075,"trial_type":"instructions","trial_index":0,"time_elapsed":93077,"internal_node_id":"0.0-0.0"},{"view_history":"[{\"page_index\":0,\"viewing_time\":1011},{\"page_index\":1,\"viewing_time\":1064}]","rt":2076,"trial_type":"instructions","trial_index":1,"time_elapsed":96155,"internal_node_id":"0.0-1.0"},{"group":"tri cycles (cube, non-group)","room_assignment":["red","blue","brown","pink","yellow","green","grey","purple"],"door_color_assignment":["black","white"],"door_generator_assignment":[1,0],"goal":6,"start":3,"action_noise":0.1,"location_history":"[3,7,3,4,0,3,4,7,3,4,0,2,1,0,2,1,0,2,1,5,1,0,2,1,0,2,1,0,3,4,0,3,4,0,3,4,0,3,4,0,3,4,0,2,6]","action_history":"[1,1,1,1,1,1,1,1,1,1,0,0,0,0,0,0,0,0,0,0,0,0,0,0,0,0,0,1,1,1,1,1,1,1,1,1,1,1,1,1,1,1,1,1]","door_history":"[0,0,0,0,0,0,0,0,0,0,1,1,1,1,1,1,1,1,1,1,1,1,1,1,1,1,1,0,0,0,0,0,0,0,0,0,0,0,0,0,0,0,0,0]","location_rts":"[974,357,23,815,8,64,17,4,169,209,27640,376,273,332,257,281,230,319,200,459,347,253,270,305,263,231,284,355,874,265,54,183,152,258,125,144,312,217,432,390,189,338,113,170]","trial_type":"two-door-navigation","trial_index":2,"time_elapsed":184668,"internal_node_id":"0.0-2.0-0.0"},{"group":"tri cycles (cube, non-group)","room_assignment":["red","blue","brown","pink","yellow","green","grey","purple"],"door_color_assignment":["black","white"],"door_generator_assignment":[1,0],"goal":1,"start":6,"action_noise":0.1,"location_history":"[6,5,2,6,5,2,6,5,2,6,5,2,6,5,2,6,5,2,6,5,2,1]","action_history":"[1,1,1,1,1,1,1,1,1,1,1,1,1,1,1,1,1,1,1,1,1]","door_history":"[0,0,0,0,0,0,0,0,0,0,0,0,0,0,0,0,0,0,0,0,0]","location_rts":"[1025,219,302,132,290,352,170,192,28317,228,290,245,370,424,73,201,81529,313,300,135,89]","trial_type":"two-door-navigation","trial_index":3,"time_elapsed":324917,"internal_node_id":"0.0-2.0-1.0"},{"group":"tri cycles (cube, non-group)","room_assignment":["red","blue","brown","pink","yellow","green","grey","purple"],"door_color_assignment":["black","white"],"door_generator_assignment":[1,0],"goal":2,"start":1,"action_noise":0.1,"location_history":"[1,5,2]","action_history":"[1,1]","door_history":"[0,0]","location_rts":"[359,163]","trial_type":"two-door-navigation","trial_index":4,"time_elapsed":330969,"internal_node_id":"0.0-2.0-2.0"},{"group":"tri cycles (cube, non-group)","room_assignment":["red","blue","brown","pink","yellow","green","grey","purple"],"door_color_assignment":["black","white"],"door_generator_assignment":[1,0],"goal":0,"start":2,"action_noise":0.1,"location_history":"[2,6,4,0]","action_history":"[1,1,1]","door_history":"[0,0,0]","location_rts":"[252,0,241]","trial_type":"two-door-navigation","trial_index":5,"time_elapsed":338013,"internal_node_id":"0.0-2.0-3.0"},{"group":"tri cycles (cube, non-group)","room_assignment":["red","blue","brown","pink","yellow","green","grey","purple"],"door_color_assignment":["black","white"],"door_generator_assignment":[1,0],"goal":7,"start":0,"action_noise":0.1,"location_history":"[0,3,4,0,3,4,0,3,4,0,3,7]","action_history":"[1,1,1,1,1,1,1,1,1,1,1]","door_history":"[0,0,0,0,0,0,0,0,0,0,0]","location_rts":"[130,338,203,29,206,119,54,753,71,436,131]","trial_type":"two-door-navigation","trial_index":6,"time_elapsed":355218,"internal_node_id":"0.0-2.0-4.0"},{"group":"tri cycles (cube, non-group)","room_assignment":["red","blue","brown","pink","yellow","green","grey","purple"],"door_color_assignment":["black","white"],"door_generator_assignment":[1,0],"goal":5,"start":7,"action_noise":0.1,"location_history":"[7,3,4,0,3,4,0,3,4,0,3,4,0,3,4,0,3,4,0,3,4,0,3,4,7,6,5]","action_history":"[1,1,1,1,1,1,1,1,1,1,1,1,1,1,1,1,1,1,1,1,1,1,1,1,1,1]","door_history":"[0,0,0,0,0,0,0,0,0,0,0,0,0,0,0,0,0,0,0,0,0,0,0,0,0,0]","location_rts":"[430,74,2,37,160,238,117,44,109,32,558,129,129,348,48,9,111,138,301,125,390,1,128,74,50,204]","trial_type":"two-door-navigation","trial_index":7,"time_elapsed":389623,"internal_node_id":"0.0-2.0-5.0"},{"group":"tri cycles (cube, non-group)","room_assignment":["red","blue","brown","pink","yellow","green","grey","purple"],"door_color_assignment":["black","white"],"door_generator_assignment":[1,0],"goal":4,"start":5,"action_noise":0.1,"location_history":"[5,2,6,5,2,6,4]","action_history":"[1,1,1,1,1,1]","door_history":"[0,0,0,0,0,0]","location_rts":"[2446,114,51,173,164,154]","trial_type":"two-door-navigation","trial_index":8,"time_elapsed":403349,"internal_node_id":"0.0-2.0-6.0"},{"group":"tri cycles (cube, non-group)","room_assignment":["red","blue","brown","pink","yellow","green","grey","purple"],"door_color_assignment":["black","white"],"door_generator_assignment":[1,0],"goal":2,"start":4,"action_noise":0.1,"location_history":"[4,0,3,4,7,3,4,0,3,4,0,3,4,0,3,4,0,3,4,0,3,4,0,3,4,0,3,4,0,3,4,7,3,7,3,4,0,2]","action_history":"[1,1,1,1,1,1,1,1,1,1,1,1,1,1,1,1,1,1,1,1,1,1,1,1,1,1,1,1,1,1,1,1,1,1,1,1,1]","door_history":"[0,0,0,0,0,0,0,0,0,0,0,0,0,0,0,0,0,0,0,0,0,0,0,0,0,0,0,0,0,0,0,0,0,0,0,0,0]","location_rts":"[405,330,333,219,267,224,74,172,837,269,207,171,243,328,482,316,170,249,280,243,157,853,153,79,394,118,83,301,818,365,287,211,20,237,125,160,290]","trial_type":"two-door-navigation","trial_index":9,"time_elapsed":455081,"internal_node_id":"0.0-2.0-7.0"},{"group":"tri cycles (cube, non-group)","room_assignment":["red","blue","brown","pink","yellow","green","grey","purple"],"door_color_assignment":["black","white"],"door_generator_assignment":[1,0],"goal":3,"start":2,"action_noise":0.1,"location_history":"[2,6,5,2,1,5,2,1,5,2,6,5,2,6,5,2,1,5,2,6,4,0,3]","action_history":"[1,1,1,1,1,1,1,1,1,1,1,1,1,1,1,1,1,1,1,1,1,1]","door_history":"[0,0,0,0,0,0,0,0,0,0,0,0,0,0,0,0,0,0,0,0,0,0]","location_rts":"[467,291,135,90,71,144,125,331,115,303,526,482,299,239,241,36,171,137,213,383,211,264]","trial_type":"two-door-navigation","trial_index":10,"time_elapsed":486250,"internal_node_id":"0.0-2.0-8.0"},{"group":"tri cycles (cube, non-group)","room_assignment":["red","blue","brown","pink","yellow","green","grey","purple"],"door_color_assignment":["black","white"],"door_generator_assignment":[1,0],"goal":7,"start":3,"action_noise":0.1,"location_history":"[3,4,0,3,4,0,3,4,7]","action_history":"[1,1,1,1,1,1,1,1]","door_history":"[0,0,0,0,0,0,0,0]","location_rts":"[404,391,279,23,120,66,32,58]","trial_type":"two-door-navigation","trial_index":11,"time_elapsed":499274,"internal_node_id":"0.0-2.0-9.0"},{"group":"tri cycles (cube, non-group)","room_assignment":["red","blue","brown","pink","yellow","green","grey","purple"],"door_color_assignment":["black","white"],"door_generator_assignment":[1,0],"goal":0,"start":7,"action_noise":0.1,"location_history":"[7,3,4,0]","action_history":"[1,1,1]","door_history":"[0,0,0]","location_rts":"[17287,53,559]","trial_type":"two-door-navigation","trial_index":12,"time_elapsed":528265,"internal_node_id":"0.0-2.0-10.0"},{"group":"tri cycles (cube, non-group)","room_assignment":["red","blue","brown","pink","yellow","green","grey","purple"],"door_color_assignment":["black","white"],"door_generator_assignment":[1,0],"goal":1,"start":0,"action_noise":0.1,"location_history":"[0,3,4,0,3,4,0,3,4,0,3,4,0,3,4,0,3,4,0,3,4,0,3,4,0,3,4,0,3,4,0,3,4,0,3,4,0,3,4,0,3,4,7,6,5,2,6,5,2,6,5,2,6,5,2,6,5,1]","action_history":"[1,1,1,1,1,1,1,1,1,1,1,1,1,1,1,1,1,1,1,1,1,1,1,1,1,1,1,1,1,1,1,1,1,1,1,1,1,1,1,1,1,1,1,1,1,1,1,1,1,1,1,1,1,1,1,1,1]","door_history":"[0,0,0,0,0,0,0,0,0,0,0,0,0,0,0,0,0,0,0,0,0,0,0,0,0,0,0,0,0,0,0,0,0,0,0,0,0,0,0,0,0,0,0,0,0,0,0,0,0,0,0,0,0,0,0,0,0]","location_rts":"[69125,18,91,167,62,540,262,37351,301,194,68,143,49,26,82,134,199,178,220,60,39,6,108,223,171,44,54,110,270,148,193,181,26,208,129,11,11,5,147,98,81,3142,110,21,106,186,80,119,26,170,78,88,47,179,161,114,301]","trial_type":"two-door-navigation","trial_index":13,"time_elapsed":707587,"internal_node_id":"0.0-2.0-11.0"},{"group":"tri cycles (cube, non-group)","room_assignment":["red","blue","brown","pink","yellow","green","grey","purple"],"door_color_assignment":["black","white"],"door_generator_assignment":[1,0],"goal":6,"start":1,"action_noise":0.1,"location_history":"[1,0,3,4,0,3,4,0,3,4,0,3,4,0,3,4,0,3,4,0,3,4,0,3,4,0,2,6]","action_history":"[1,1,1,1,1,1,1,1,1,1,1,1,1,1,1,1,1,1,1,1,1,1,1,1,1,1,1]","door_history":"[0,0,0,0,0,0,0,0,0,0,0,0,0,0,0,0,0,0,0,0,0,0,0,0,0,0,0]","location_rts":"[753,130,27829,6,7,138,1087801,285216,133,114,136,172,157,204,250,77,80,163,84,165,15,68,99,39,44,44,77]","trial_type":"two-door-navigation","trial_index":14,"time_elapsed":2142846,"internal_node_id":"0.0-2.0-12.0"},{"group":"tri cycles (cube, non-group)","room_assignment":["red","blue","brown","pink","yellow","green","grey","purple"],"door_color_assignment":["black","white"],"door_generator_assignment":[1,0],"goal":4,"start":6,"action_noise":0.1,"location_history":"[6,5,2,6,4]","action_history":"[1,1,1,1]","door_history":"[0,0,0,0]","location_rts":"[882,136,156,49]","trial_type":"two-door-navigation","trial_index":15,"time_elapsed":2151672,"internal_node_id":"0.0-2.0-13.0"},{"group":"tri cycles (cube, non-group)","room_assignment":["red","blue","brown","pink","yellow","green","grey","purple"],"door_color_assignment":["black","white"],"door_generator_assignment":[1,0],"goal":5,"start":4,"action_noise":0.1,"location_history":"[4,0,3,4,0,3,4,0,3,4,0,3,4,0,3,4,0,3,4,0,3,4,0,2,6,5]","action_history":"[1,1,1,1,1,1,1,1,1,1,1,1,1,1,1,1,1,1,1,1,1,1,1,1,1]","door_history":"[0,0,0,0,0,0,0,0,0,0,0,0,0,0,0,0,0,0,0,0,0,0,0,0,0]","location_rts":"[452,126,149,178,149,3181,182,103,216,38,272,39,145,260,205,14,37,122,68,33,206,49,30,158,67]","trial_type":"two-door-navigation","trial_index":16,"time_elapsed":2187190,"internal_node_id":"0.0-2.0-14.0"},{"group":"tri cycles (cube, non-group)","room_assignment":["red","blue","brown","pink","yellow","green","grey","purple"],"door_color_assignment":["black","white"],"door_generator_assignment":[1,0],"goal":4,"start":5,"action_noise":0.1,"location_history":"[5,1,5,2,6,5,2,6,5,1,5,2,6,5,2,6,4]","action_history":"[1,1,1,1,1,1,1,1,1,1,1,1,1,1,1,1]","door_history":"[0,0,0,0,0,0,0,0,0,0,0,0,0,0,0,0]","location_rts":"[723,60,360,93,66,116,44,241,216,3,204,24,263,107,291,117]","trial_type":"two-door-navigation","trial_index":17,"time_elapsed":2209926,"internal_node_id":"0.0-2.0-15.0"},{"group":"tri cycles (cube, non-group)","room_assignment":["red","blue","brown","pink","yellow","green","grey","purple"],"door_color_assignment":["black","white"],"door_generator_assignment":[1,0],"goal":0,"start":4,"action_noise":0.1,"location_history":"[4,0]","action_history":"[1]","door_history":"[0]","location_rts":"[288]","trial_type":"two-door-navigation","trial_index":18,"time_elapsed":2214747,"internal_node_id":"0.0-2.0-16.0"},{"group":"tri cycles (cube, non-group)","room_assignment":["red","blue","brown","pink","yellow","green","grey","purple"],"door_color_assignment":["black","white"],"door_generator_assignment":[1,0],"goal":7,"start":0,"action_noise":0.1,"location_history":"[0,3,4,0,3,4,0,3,4,7]","action_history":"[1,1,1,1,1,1,1,1,1]","door_history":"[0,0,0,0,0,0,0,0,0]","location_rts":"[403,158,146,121,165,170,52,251,126]","trial_type":"two-door-navigation","trial_index":19,"time_elapsed":2229010,"internal_node_id":"0.0-2.0-17.0"},{"group":"tri cycles (cube, non-group)","room_assignment":["red","blue","brown","pink","yellow","green","grey","purple"],"door_color_assignment":["black","white"],"door_generator_assignment":[1,0],"goal":2,"start":7,"action_noise":0.1,"location_history":"[7,3,4,0,3,4,0,3,4,0,3,4,0,3,4,0,3,4,0,3,4,7,3,4,0,3,4,0,3,4,0,3,4,0,3,4,0,3,4,0,3,7,6,5,2]","action_history":"[1,1,1,1,1,1,1,1,1,1,1,1,1,1,1,1,1,1,1,1,1,1,1,1,1,1,1,1,1,1,1,1,1,1,1,1,1,1,1,1,1,1,1,1]","door_history":"[0,0,0,0,0,0,0,0,0,0,0,0,0,0,0,0,0,0,0,0,0,0,0,0,0,0,0,0,0,0,0,0,0,0,0,0,0,0,0,0,0,0,0,0]","location_rts":"[316,105,128,138,122,85,34,112,61,42,129,132,144,143,99,166,93,95,58,40,174,28,48,102,183,145,98,115,86,399,156,59,74,366,359,224,224,182,116,57,83,161,138,84]","trial_type":"two-door-navigation","trial_index":20,"time_elapsed":2283247,"internal_node_id":"0.0-2.0-18.0"},{"group":"tri cycles (cube, non-group)","room_assignment":["red","blue","brown","pink","yellow","green","grey","purple"],"door_color_assignment":["black","white"],"door_generator_assignment":[1,0],"goal":1,"start":2,"action_noise":0.1,"location_history":"[2,6,5,2,6,4,0,3,4,0,3,4,0,3,4,7,3,4,0,3,4,0,2,6,5,2,6,5,2,6,5,2,6,5,1]","action_history":"[1,1,1,1,1,1,1,1,1,1,1,1,1,1,1,1,1,1,1,1,1,1,1,1,1,1,1,1,1,1,1,1,1,1]","door_history":"[0,0,0,0,0,0,0,0,0,0,0,0,0,0,0,0,0,0,0,0,0,0,0,0,0,0,0,0,0,0,0,0,0,0]","location_rts":"[67,114,147,48,142,93,147,21,241,136,114,76,49,46,105,222,42,193,57,88,66,145,48,11,559,446,62,158,153,179,174,208,170,144]","trial_type":"two-door-navigation","trial_index":21,"time_elapsed":2326206,"internal_node_id":"0.0-2.0-19.0"},{"group":"tri cycles (cube, non-group)","room_assignment":["red","blue","brown","pink","yellow","green","grey","purple"],"door_color_assignment":["black","white"],"door_generator_assignment":[1,0],"goal":3,"start":1,"action_noise":0.1,"location_history":"[1,5,2,6,5,2,6,5,2,6,5,2,6,5,2,6,5,2,6,5,2,6,5,2,6,5,2,6,5,1,5,1,5,2,6,5,2,1,0,3]","action_history":"[1,1,1,1,1,1,1,1,1,1,1,1,1,1,1,1,1,1,1,1,1,1,1,1,1,1,1,1,1,1,1,1,1,1,1,1,1,1,1]","door_history":"[0,0,0,0,0,0,0,0,0,0,0,0,0,0,0,0,0,0,0,0,0,0,0,0,0,0,0,0,0,0,0,0,0,0,0,0,0,0,0]","location_rts":"[166,149,91,67,173,152,123,50,128,180,33,4,7,250,194,52,9105,257,78,16,17,101,143,106,36,42,25,82,207,53,6,87,12,2,13,69,71,19,14]","trial_type":"two-door-navigation","trial_index":22,"time_elapsed":2381944,"internal_node_id":"0.0-2.0-20.0"},{"group":"tri cycles (cube, non-group)","room_assignment":["red","blue","brown","pink","yellow","green","grey","purple"],"door_color_assignment":["black","white"],"door_generator_assignment":[1,0],"goal":6,"start":3,"action_noise":0.1,"location_history":"[3,4,0,2,6]","action_history":"[1,1,1,1]","door_history":"[0,0,0,0]","location_rts":"[462,96,74,71]","trial_type":"two-door-navigation","trial_index":23,"time_elapsed":2390235,"internal_node_id":"0.0-2.0-21.0"},{"group":"tri cycles (cube, non-group)","room_assignment":["red","blue","brown","pink","yellow","green","grey","purple"],"door_color_assignment":["black","white"],"door_generator_assignment":[1,0],"goal":5,"start":6,"action_noise":0.1,"location_history":"[6,5]","action_history":"[1]","door_history":"[0]","location_rts":"[438766]","trial_type":"two-door-navigation","trial_index":24,"time_elapsed":2833528,"internal_node_id":"0.0-2.0-22.0"},{"group":"tri cycles (cube, non-group)","room_assignment":["red","blue","brown","pink","yellow","green","grey","purple"],"door_color_assignment":["black","white"],"door_generator_assignment":[1,0],"goal":3,"start":5,"action_noise":0.1,"location_history":"[5,2,6,5,2,1,5,2,6,4,0,3]","action_history":"[1,1,1,1,1,1,1,1,1,1,1]","door_history":"[0,0,0,0,0,0,0,0,0,0,0]","location_rts":"[152,14,11,4,36,28,31,17602,38,39,141]","trial_type":"two-door-navigation","trial_index":25,"time_elapsed":2866450,"internal_node_id":"0.0-2.0-23.0"},{"group":"tri cycles (cube, non-group)","room_assignment":["red","blue","brown","pink","yellow","green","grey","purple"],"door_color_assignment":["black","white"],"door_generator_assignment":[1,0],"goal":0,"start":3,"action_noise":0.1,"location_history":"[3,4,7,3,4,0]","action_history":"[1,1,1,1,1]","door_history":"[0,0,0,0,0]","location_rts":"[169,89,8,23,124]","trial_type":"two-door-navigation","trial_index":26,"time_elapsed":2875597,"internal_node_id":"0.0-2.0-24.0"},{"group":"tri cycles (cube, non-group)","room_assignment":["red","blue","brown","pink","yellow","green","grey","purple"],"door_color_assignment":["black","white"],"door_generator_assignment":[1,0],"goal":7,"start":0,"action_noise":0.1,"location_history":"[0,3,4,0,3,4,0,2,6,5,2,6,5,1,0,3,7]","action_history":"[1,1,1,1,1,1,1,1,1,1,1,1,1,1,1,1]","door_history":"[0,0,0,0,0,0,0,0,0,0,0,0,0,0,0,0]","location_rts":"[118,170,173,141,183,129,244,25,87,65,21,21,189,10,87,162]","trial_type":"two-door-navigation","trial_index":27,"time_elapsed":2897274,"internal_node_id":"0.0-2.0-25.0"},{"group":"tri cycles (cube, non-group)","room_assignment":["red","blue","brown","pink","yellow","green","grey","purple"],"door_color_assignment":["black","white"],"door_generator_assignment":[1,0],"goal":2,"start":7,"action_noise":0.1,"location_history":"[7,3,4,0,3,4,0,3,4,0,3,7,3,4,0,3,4,7,3,4,0,3,4,0,3,4,0,3,4,0,3,4,7,3,4,0,3,4,0,3,7,3,4,0,3,4,0,3,4,7,3,4,0,3,4,0,3,4,0,3,4,0,3,4,0,3,4,0,3,4,0,3,4,0,3,4,0,2]","action_history":"[1,1,1,1,1,1,1,1,1,1,1,1,1,1,1,1,1,1,1,1,1,1,1,1,1,1,1,1,1,1,1,1,1,1,1,1,1,1,1,1,1,1,1,1,1,1,1,1,1,1,1,1,1,1,1,1,1,1,1,1,1,1,1,1,1,1,1,1,1,1,1,1,1,1,1,1,0]","door_history":"[0,0,0,0,0,0,0,0,0,0,0,0,0,0,0,0,0,0,0,0,0,0,0,0,0,0,0,0,0,0,0,0,0,0,0,0,0,0,0,0,0,0,0,0,0,0,0,0,0,0,0,0,0,0,0,0,0,0,0,0,0,0,0,0,0,0,0,0,0,0,0,0,0,0,0,0,1]","location_rts":"[68,86,128,165,158,167,141,131,126,169,229,176,138,186,133,10,180,185,178,179,160,191,174,539,245,146,7,28,28,27,6,113,84,38,5,7,127,7,39,138,163,15,149,149,17,152,184,20,170,196,146,175,184,5,151,168,88,174,202,110,100,184,143,5,201,104,155,31,15,317,14,109,75,199,207,122,117]","trial_type":"two-door-navigation","trial_index":28,"time_elapsed":2989381,"internal_node_id":"0.0-2.0-26.0"},{"group":"tri cycles (cube, non-group)","room_assignment":["red","blue","brown","pink","yellow","green","grey","purple"],"door_color_assignment":["black","white"],"door_generator_assignment":[1,0],"goal":1,"start":2,"action_noise":0.1,"location_history":"[2,1]","action_history":"[0]","door_history":"[1]","location_rts":"[774]","trial_type":"two-door-navigation","trial_index":29,"time_elapsed":2994674,"internal_node_id":"0.0-2.0-27.0"},{"group":"tri cycles (cube, non-group)","room_assignment":["red","blue","brown","pink","yellow","green","grey","purple"],"door_color_assignment":["black","white"],"door_generator_assignment":[1,0],"goal":5,"start":1,"action_noise":0.1,"location_history":"[1,0,2,6,4,0,2,1,0,2,1,5]","action_history":"[0,0,0,0,1,0,0,0,0,0,1]","door_history":"[1,1,1,1,0,1,1,1,1,1,0]","location_rts":"[239,156,149,189,59,65,152,179,50,161,228]","trial_type":"two-door-navigation","trial_index":30,"time_elapsed":3011127,"internal_node_id":"0.0-2.0-28.0"},{"group":"tri cycles (cube, non-group)","room_assignment":["red","blue","brown","pink","yellow","green","grey","purple"],"door_color_assignment":["black","white"],"door_generator_assignment":[1,0],"goal":4,"start":5,"action_noise":0.1,"location_history":"[5,2,6,5,1,0,3,4]","action_history":"[1,1,1,0,1,1,1]","door_history":"[0,0,0,1,0,0,0]","location_rts":"[171,228,510,230,494,191,252]","trial_type":"two-door-navigation","trial_index":31,"time_elapsed":3023842,"internal_node_id":"0.0-2.0-29.0"},{"group":"tri cycles (cube, non-group)","room_assignment":["red","blue","brown","pink","yellow","green","grey","purple"],"door_color_assignment":["black","white"],"door_generator_assignment":[1,0],"goal":6,"start":4,"action_noise":0.1,"location_history":"[4,0,2,6]","action_history":"[1,1,1]","door_history":"[0,0,0]","location_rts":"[437,25,22]","trial_type":"two-door-navigation","trial_index":32,"time_elapsed":3030875,"internal_node_id":"0.0-2.0-30.0"},{"group":"tri cycles (cube, non-group)","room_assignment":["red","blue","brown","pink","yellow","green","grey","purple"],"door_color_assignment":["black","white"],"door_generator_assignment":[1,0],"goal":4,"start":6,"action_noise":0.1,"location_history":"[6,5,2,6,5,1,0,3,4]","action_history":"[1,1,1,1,1,1,1,1]","door_history":"[0,0,0,0,0,0,0,0]","location_rts":"[257,137,128,191,54,7,182,131]","trial_type":"two-door-navigation","trial_index":33,"time_elapsed":3043637,"internal_node_id":"0.0-2.0-31.0"},{"group":"tri cycles (cube, non-group)","room_assignment":["red","blue","brown","pink","yellow","green","grey","purple"],"door_color_assignment":["black","white"],"door_generator_assignment":[1,0],"goal":2,"start":4,"action_noise":0.1,"location_history":"[4,0,2]","action_history":"[1,1]","door_history":"[0,0]","location_rts":"[37,122]","trial_type":"two-door-navigation","trial_index":34,"time_elapsed":3049332,"internal_node_id":"0.0-2.0-32.0"},{"group":"tri cycles (cube, non-group)","room_assignment":["red","blue","brown","pink","yellow","green","grey","purple"],"door_color_assignment":["black","white"],"door_generator_assignment":[1,0],"goal":0,"start":2,"action_noise":0.1,"location_history":"[2,6,4,7,3,4,0]","action_history":"[1,1,1,1,1,1]","door_history":"[0,0,0,0,0,0]","location_rts":"[171,75,55,64,67,127]","trial_type":"two-door-navigation","trial_index":35,"time_elapsed":3059541,"internal_node_id":"0.0-2.0-33.0"},{"group":"tri cycles (cube, non-group)","room_assignment":["red","blue","brown","pink","yellow","green","grey","purple"],"door_color_assignment":["black","white"],"door_generator_assignment":[1,0],"goal":5,"start":0,"action_noise":0.1,"location_history":"[0,3,4,0,3,4,0,3,7,3,4,0,2,6,4,0,3,4,0,3,4,0,3,4,0,3,4,0,3,4,0,3,4,0,3,7,3,4,7,3,4,0,3,4,0,2,6,5]","action_history":"[1,1,1,1,1,1,1,1,1,1,1,1,1,1,1,1,1,1,1,1,1,1,1,1,1,1,1,1,1,1,1,1,1,1,1,1,1,1,1,1,1,1,1,1,1,1,1]","door_history":"[0,0,0,0,0,0,0,0,0,0,0,0,0,0,0,0,0,0,0,0,0,0,0,0,0,0,0,0,0,0,0,0,0,0,0,0,0,0,0,0,0,0,0,0,0,0,0]","location_rts":"[274,158,66,235,72,51,206,104,160,209,214,201,160,169,244,70,106,22,128,111,119,24,69,242,65,98,57,158,514,7203,247,49,179,131,153,9,9,37,159,153,33,29,50,68,185,71,162]","trial_type":"two-door-navigation","trial_index":36,"time_elapsed":3124245,"internal_node_id":"0.0-2.0-34.0"},{"group":"tri cycles (cube, non-group)","room_assignment":["red","blue","brown","pink","yellow","green","grey","purple"],"door_color_assignment":["black","white"],"door_generator_assignment":[1,0],"goal":1,"start":5,"action_noise":0.1,"location_history":"[5,2,1]","action_history":"[1,1]","door_history":"[0,0]","location_rts":"[717,219]","trial_type":"two-door-navigation","trial_index":37,"time_elapsed":3130713,"internal_node_id":"0.0-2.0-35.0"},{"group":"tri cycles (cube, non-group)","room_assignment":["red","blue","brown","pink","yellow","green","grey","purple"],"door_color_assignment":["black","white"],"door_generator_assignment":[1,0],"goal":7,"start":1,"action_noise":0.1,"location_history":"[1,5,2,1,5,2,6,5,2,6,5,2,6,5,2,6,5,1,5,2,1,5,2,6,5,2,6,5,2,6,5,1,5,2,6,5,2,6,5,2,6,5,2,6,5,1,5,2,6,5,2,6,5,2,6,5,2,6,5,2,6,5,1,5,2,6,4,0,2,6,4,7]","action_history":"[1,1,1,1,1,1,1,1,1,1,1,1,1,1,1,1,1,1,1,1,1,1,1,1,1,1,1,1,1,1,1,1,1,1,1,1,1,1,1,1,1,1,1,1,1,1,1,1,1,1,1,1,1,1,1,1,1,1,1,1,1,0,1,0,1,0,1,0,1,0,1]","door_history":"[0,0,0,0,0,0,0,0,0,0,0,0,0,0,0,0,0,0,0,0,0,0,0,0,0,0,0,0,0,0,0,0,0,0,0,0,0,0,0,0,0,0,0,0,0,0,0,0,0,0,0,0,0,0,0,0,0,0,0,0,0,1,0,1,0,1,0,1,0,1,0]","location_rts":"[10074,9750,234,123,97,156,195,18,168,149,239,175,233,154,63,50,13,47,0,81,71,32,13,196,179,165,2,63,221,81,78,65,90,132,90,46,467,62,26,56,231,11,95,64,14,30,213,180,90,80,285,57,250,23,70,175,119,106,65,51,26,15,51,334,175,132,255,234,155,60,218]","trial_type":"two-door-navigation","trial_index":38,"time_elapsed":3234735,"internal_node_id":"0.0-2.0-36.0"},{"group":"tri cycles (cube, non-group)","room_assignment":["red","blue","brown","pink","yellow","green","grey","purple"],"door_color_assignment":["black","white"],"door_generator_assignment":[1,0],"goal":3,"start":7,"action_noise":0.1,"location_history":"[7,6,4,0,3]","action_history":"[1,0,1,0]","door_history":"[0,1,0,1]","location_rts":"[398,694,1406,1858]","trial_type":"two-door-navigation","trial_index":39,"time_elapsed":3246665,"internal_node_id":"0.0-2.0-37.0"},{"group":"tri cycles (cube, non-group)","room_assignment":["red","blue","brown","pink","yellow","green","grey","purple"],"door_color_assignment":["black","white"],"door_generator_assignment":[1,0],"goal":6,"start":3,"action_noise":0.1,"location_history":"[3,4,7,3,7,3,4,7,3,7,3,4,0,2,1,5,2,6]","action_history":"[1,0,1,0,1,1,0,1,0,1,0,1,0,0,1,1,1]","door_history":"[0,1,0,1,0,0,1,0,1,0,1,0,1,1,0,0,0]","location_rts":"[498,333,281,147,332,257,257,389,113,865,250,287,202,623,354,645,414]","trial_type":"two-door-navigation","trial_index":40,"time_elapsed":3273775,"internal_node_id":"0.0-2.0-38.0"},{"group":"tri cycles (cube, non-group)","room_assignment":["red","blue","brown","pink","yellow","green","grey","purple"],"door_color_assignment":["black","white"],"door_generator_assignment":[1,0],"goal":2,"start":6,"action_noise":0.1,"location_history":"[6,5,2]","action_history":"[1,1]","door_history":"[0,0]","location_rts":"[779,459]","trial_type":"two-door-navigation","trial_index":41,"time_elapsed":3280550,"internal_node_id":"0.0-2.0-39.0"},{"group":"tri cycles (cube, non-group)","room_assignment":["red","blue","brown","pink","yellow","green","grey","purple"],"door_color_assignment":["black","white"],"door_generator_assignment":[1,0],"goal":1,"start":2,"action_noise":0.1,"location_history":"[2,6,5,2,1]","action_history":"[1,1,1,1]","door_history":"[0,0,0,0]","location_rts":"[560,450,2350,14]","trial_type":"two-door-navigation","trial_index":42,"time_elapsed":3291507,"internal_node_id":"0.0-2.0-40.0"},{"group":"tri cycles (cube, non-group)","room_assignment":["red","blue","brown","pink","yellow","green","grey","purple"],"door_color_assignment":["black","white"],"door_generator_assignment":[1,0],"goal":0,"start":1,"action_noise":0.1,"location_history":"[1,5,2,6,5,2,1,5,2,6,5,2,6,5,2,6,5,2,6,5,2,1,5,2,6,5,2,6,5,2,6,5,2,6,5,2,6,5,2,6,5,2,6,5,2,6,4,7,3,4,0]","action_history":"[1,1,1,1,1,1,1,1,1,1,1,1,1,1,1,1,1,1,1,1,1,1,1,1,1,1,1,1,1,1,1,1,1,1,1,1,1,1,1,1,1,1,1,1,1,0,0,1,1,1]","door_history":"[0,0,0,0,0,0,0,0,0,0,0,0,0,0,0,0,0,0,0,0,0,0,0,0,0,0,0,0,0,0,0,0,0,0,0,0,0,0,0,0,0,0,0,0,0,1,1,0,0,0]","location_rts":"[323,1056,731,88,383,515,449,1058,256,4460,13100,5149,12043,226,151,88,88,136,216,130,191,147,86,101,140,67,6,20,68,42,12,116,60,78,86,73,72,1,49,127,75,206,187,365,257,23,255,247,320,614]","trial_type":"two-door-navigation","trial_index":43,"time_elapsed":3390651,"internal_node_id":"0.0-2.0-41.0"},{"group":"tri cycles (cube, non-group)","room_assignment":["red","blue","brown","pink","yellow","green","grey","purple"],"door_color_assignment":["black","white"],"door_generator_assignment":[1,0],"goal":4,"start":0,"action_noise":0.1,"location_history":"[0,3,4]","action_history":"[1,1]","door_history":"[0,0]","location_rts":"[673,240]","trial_type":"two-door-navigation","trial_index":44,"time_elapsed":3397129,"internal_node_id":"0.0-2.0-42.0"},{"group":"tri cycles (cube, non-group)","room_assignment":["red","blue","brown","pink","yellow","green","grey","purple"],"door_color_assignment":["black","white"],"door_generator_assignment":[1,0],"goal":6,"start":4,"action_noise":0.1,"location_history":"[4,7,3,4,0,3,7,3,4,0,3,4,7,3,4,0,3,4,7,3,4,0,3,4,0,3,7,3,4,0,3,4,0,3,4,0,3,4,7,3,4,0,3,4,0,3,4,0,3,7,3,4,0,3,7,3,4,0,3,4,0,3,4,0,2,6]","action_history":"[1,1,1,1,1,1,1,1,1,1,1,1,1,1,1,1,1,1,1,1,1,1,1,1,1,1,1,1,1,1,1,1,1,1,1,1,1,1,1,1,1,1,1,1,1,1,1,1,1,1,1,1,1,1,1,1,1,1,1,1,1,1,1,1,1]","door_history":"[0,0,0,0,0,0,0,0,0,0,0,0,0,0,0,0,0,0,0,0,0,0,0,0,0,0,0,0,0,0,0,0,0,0,0,0,0,0,0,0,0,0,0,0,0,0,0,0,0,0,0,0,0,0,0,0,0,0,0,0,0,0,0,0,0]","location_rts":"[290,199,96,91,80,68,21,106,446,94,45,6,26,100,102,123,405,252,259,376,28,68591,207,91,7,117,50,1629,251,311,57,97,139,98,129,110,177,231,135,40,185,159,191,50,207,137,149,31,22,35,88,1,77,5,78,55,91,5,159,55,165,193,59,12,413]","trial_type":"two-door-navigation","trial_index":45,"time_elapsed":3545330,"internal_node_id":"0.0-2.0-43.0"},{"group":"tri cycles (cube, non-group)","room_assignment":["red","blue","brown","pink","yellow","green","grey","purple"],"door_color_assignment":["black","white"],"door_generator_assignment":[1,0],"goal":3,"start":6,"action_noise":0.1,"location_history":"[6,5,2,6,5,2,6,5,2,6,5,2,6,4,7,3]","action_history":"[1,1,1,1,1,1,1,1,1,1,1,1,1,1,1]","door_history":"[0,0,0,0,0,0,0,0,0,0,0,0,0,0,0]","location_rts":"[272,17,144,208,22,152,6,162,187,32,75,333,71,119,186]","trial_type":"two-door-navigation","trial_index":46,"time_elapsed":3566178,"internal_node_id":"0.0-2.0-44.0"},{"group":"tri cycles (cube, non-group)","room_assignment":["red","blue","brown","pink","yellow","green","grey","purple"],"door_color_assignment":["black","white"],"door_generator_assignment":[1,0],"goal":7,"start":3,"action_noise":0.1,"location_history":"[3,4,0,3,4,7]","action_history":"[1,1,1,1,1]","door_history":"[0,0,0,0,0]","location_rts":"[115,46,39315,56,102]","trial_type":"two-door-navigation","trial_index":47,"time_elapsed":3614393,"internal_node_id":"0.0-2.0-45.0"},{"group":"tri cycles (cube, non-group)","room_assignment":["red","blue","brown","pink","yellow","green","grey","purple"],"door_color_assignment":["black","white"],"door_generator_assignment":[1,0],"goal":5,"start":7,"action_noise":0.1,"location_history":"[7,6,5]","action_history":"[1,1]","door_history":"[0,0]","location_rts":"[197,6]","trial_type":"two-door-navigation","trial_index":48,"time_elapsed":3620173,"internal_node_id":"0.0-2.0-46.0"},{"group":"tri cycles (cube, non-group)","room_assignment":["red","blue","brown","pink","yellow","green","grey","purple"],"door_color_assignment":["black","white"],"door_generator_assignment":[1,0],"goal":1,"start":5,"action_noise":0.1,"location_history":"[5,2,6,5,2,6,5,2,6,5,2,1]","action_history":"[1,1,1,1,1,1,1,1,1,1,1]","door_history":"[0,0,0,0,0,0,0,0,0,0,0]","location_rts":"[44,35,73,136,9,143,4,16,153,148,31]","trial_type":"two-door-navigation","trial_index":49,"time_elapsed":3635657,"internal_node_id":"0.0-2.0-47.0"},{"group":"tri cycles (cube, non-group)","room_assignment":["red","blue","brown","pink","yellow","green","grey","purple"],"door_color_assignment":["black","white"],"door_generator_assignment":[1,0],"goal":6,"start":1,"action_noise":0.1,"location_history":"[1,5,2,6]","action_history":"[1,1,1]","door_history":"[0,0,0]","location_rts":"[102,104,187]","trial_type":"two-door-navigation","trial_index":50,"time_elapsed":3642611,"internal_node_id":"0.0-2.0-48.0"},{"group":"tri cycles (cube, non-group)","room_assignment":["red","blue","brown","pink","yellow","green","grey","purple"],"door_color_assignment":["black","white"],"door_generator_assignment":[1,0],"goal":0,"start":6,"action_noise":0.1,"location_history":"[6,5,2,1,5,2,6,5,2,6,5,2,6,5,2,6,4,0]","action_history":"[1,1,1,1,1,1,1,1,1,1,1,1,1,1,1,1,1]","door_history":"[0,0,0,0,0,0,0,0,0,0,0,0,0,0,0,0,0]","location_rts":"[125,206,59,27,208,184,209,37,53,227,42,30,17,4,7,180,23]","trial_type":"two-door-navigation","trial_index":51,"time_elapsed":3665103,"internal_node_id":"0.0-2.0-49.0"},{"view_history":"[{\"page_index\":0,\"viewing_time\":2103}]","rt":2103,"trial_type":"instructions","trial_index":52,"time_elapsed":3668205,"internal_node_id":"0.0-3.0"},{"view_history":"[{\"page_index\":0,\"viewing_time\":1230},{\"page_index\":1,\"viewing_time\":1440}]","rt":2671,"trial_type":"instructions","trial_index":53,"time_elapsed":3671877,"internal_node_id":"0.0-4.0"},{"group":"square cycles (cube, non-group)","fractal_assignment":["../images/ylw_pnk.png","../images/ylw_slt.png","../images/gry_blk.png","../images/cyn_red.png","../images/pnk_blu.png","../images/org_blu.png","../images/blu_wht.png","../images/grn_red.png"],"mutagen_generator_assignment":[0,1],"goal":6,"start":3,"action_noise":0.1,"location_history":"[3,0,1,0,1,0,4,7,6]","action_history":"[0,0,1,0,1,1,0,0]","mutagen_history":"[0,0,1,0,1,1,0,0]","location_rts":"[7019,43,131,46,95,126,68,124]","trial_type":"fractal-mutation","trial_index":54,"time_elapsed":3692090,"internal_node_id":"0.0-5.0-0.0"},{"group":"square cycles (cube, non-group)","fractal_assignment":["../images/ylw_pnk.png","../images/ylw_slt.png","../images/gry_blk.png","../images/cyn_red.png","../images/pnk_blu.png","../images/org_blu.png","../images/blu_wht.png","../images/grn_red.png"],"mutagen_generator_assignment":[0,1],"goal":1,"start":6,"action_noise":0.1,"location_history":"[6,5,1]","action_history":"[0,1]","mutagen_history":"[0,1]","location_rts":"[1568,142]","trial_type":"fractal-mutation","trial_index":55,"time_elapsed":3699828,"internal_node_id":"0.0-5.0-1.0"},{"group":"square cycles (cube, non-group)","fractal_assignment":["../images/ylw_pnk.png","../images/ylw_slt.png","../images/gry_blk.png","../images/cyn_red.png","../images/pnk_blu.png","../images/org_blu.png","../images/blu_wht.png","../images/grn_red.png"],"mutagen_generator_assignment":[0,1],"goal":2,"start":1,"action_noise":0.1,"location_history":"[1,2]","action_history":"[0]","mutagen_history":"[0]","location_rts":"[61]","trial_type":"fractal-mutation","trial_index":56,"time_elapsed":3704633,"internal_node_id":"0.0-5.0-2.0"},{"group":"square cycles (cube, non-group)","fractal_assignment":["../images/ylw_pnk.png","../images/ylw_slt.png","../images/gry_blk.png","../images/cyn_red.png","../images/pnk_blu.png","../images/org_blu.png","../images/blu_wht.png","../images/grn_red.png"],"mutagen_generator_assignment":[0,1],"goal":0,"start":2,"action_noise":0.1,"location_history":"[2,6,5,1,2,6,5,4,5,1,2,6,7,3,0]","action_history":"[1,1,1,1,1,0,0,1,1,0,1,1,1,0]","mutagen_history":"[1,1,1,1,1,0,0,1,1,0,1,1,1,0]","location_rts":"[61,11,92,96,43,90,23,56,56,87,101,61,52,183]","trial_type":"fractal-mutation","trial_index":57,"time_elapsed":3729384,"internal_node_id":"0.0-5.0-3.0"},{"group":"square cycles (cube, non-group)","fractal_assignment":["../images/ylw_pnk.png","../images/ylw_slt.png","../images/gry_blk.png","../images/cyn_red.png","../images/pnk_blu.png","../images/org_blu.png","../images/blu_wht.png","../images/grn_red.png"],"mutagen_generator_assignment":[0,1],"goal":7,"start":0,"action_noise":0.1,"location_history":"[0,1,0,1,2,3,0,1,2,3,0,1,2,3,2,6,5,1,2,3,2,3,2,3,2,6,5,4,5,4,5,4,5,4,7]","action_history":"[0,1,0,0,0,0,1,0,0,0,0,0,0,1,1,0,1,0,0,1,0,1,0,1,1,0,0,1,0,1,0,1,0,1]","mutagen_history":"[0,1,0,0,0,0,1,0,0,0,0,0,0,1,1,0,1,0,0,1,0,1,0,1,1,0,0,1,0,1,0,1,0,1]","location_rts":"[109489,32,155,187,162,109,129,208,143,173,229,137,146,124,83,62,47,21,163,88,106,48,9,29,113,14,151,51,56,16,84,118,166,20]","trial_type":"fractal-mutation","trial_index":58,"time_elapsed":3883549,"internal_node_id":"0.0-5.0-4.0"},{"group":"square cycles (cube, non-group)","fractal_assignment":["../images/ylw_pnk.png","../images/ylw_slt.png","../images/gry_blk.png","../images/cyn_red.png","../images/pnk_blu.png","../images/org_blu.png","../images/blu_wht.png","../images/grn_red.png"],"mutagen_generator_assignment":[0,1],"goal":5,"start":7,"action_noise":0.1,"location_history":"[7,3,0,4,7,6,7,3,0,4,5]","action_history":"[1,0,0,0,0,1,1,0,1,1]","mutagen_history":"[1,0,0,0,0,1,1,0,1,1]","location_rts":"[69,150,183,9,139,56,72,55,22,106]","trial_type":"fractal-mutation","trial_index":59,"time_elapsed":3898983,"internal_node_id":"0.0-5.0-5.0"},{"group":"square cycles (cube, non-group)","fractal_assignment":["../images/ylw_pnk.png","../images/ylw_slt.png","../images/gry_blk.png","../images/cyn_red.png","../images/pnk_blu.png","../images/org_blu.png","../images/blu_wht.png","../images/grn_red.png"],"mutagen_generator_assignment":[0,1],"goal":4,"start":5,"action_noise":0.1,"location_history":"[5,4]","action_history":"[0]","mutagen_history":"[0]","location_rts":"[174]","trial_type":"fractal-mutation","trial_index":60,"time_elapsed":3903760,"internal_node_id":"0.0-5.0-6.0"},{"group":"square cycles (cube, non-group)","fractal_assignment":["../images/ylw_pnk.png","../images/ylw_slt.png","../images/gry_blk.png","../images/cyn_red.png","../images/pnk_blu.png","../images/org_blu.png","../images/blu_wht.png","../images/grn_red.png"],"mutagen_generator_assignment":[0,1],"goal":2,"start":4,"action_noise":0.1,"location_history":"[4,5,1,0,4,7,6,7,6,5,1,2]","action_history":"[0,1,1,1,0,0,1,0,0,1,0]","mutagen_history":"[0,1,1,1,0,0,1,0,0,1,0]","location_rts":"[150,21,118,23,34,116,34,112,432,354,135]","trial_type":"fractal-mutation","trial_index":61,"time_elapsed":3921198,"internal_node_id":"0.0-5.0-7.0"},{"group":"square cycles (cube, non-group)","fractal_assignment":["../images/ylw_pnk.png","../images/ylw_slt.png","../images/gry_blk.png","../images/cyn_red.png","../images/pnk_blu.png","../images/org_blu.png","../images/blu_wht.png","../images/grn_red.png"],"mutagen_generator_assignment":[0,1],"goal":3,"start":2,"action_noise":0.1,"location_history":"[2,6,7,6,5,4,5,1,0,4,5,4,5,1,0,4,5,1,0,4,5,1,0,4,5,1,0,4,7,3]","action_history":"[1,1,0,0,0,1,1,1,1,1,0,1,1,1,1,1,1,1,1,1,1,1,1,1,1,1,1,1,1]","mutagen_history":"[1,1,0,0,0,1,1,1,1,1,0,1,1,1,1,1,1,1,1,1,1,1,1,1,1,1,1,1,1]","location_rts":"[62,13,95,49,118,158,48,93,120,11,132,19,101,40,177,166,190,97,72,157,22,133,109,37,108,172,160,63,65]","trial_type":"fractal-mutation","trial_index":62,"time_elapsed":3959803,"internal_node_id":"0.0-5.0-8.0"},{"group":"square cycles (cube, non-group)","fractal_assignment":["../images/ylw_pnk.png","../images/ylw_slt.png","../images/gry_blk.png","../images/cyn_red.png","../images/pnk_blu.png","../images/org_blu.png","../images/blu_wht.png","../images/grn_red.png"],"mutagen_generator_assignment":[0,1],"goal":7,"start":3,"action_noise":0.1,"location_history":"[3,2,6,7]","action_history":"[1,1,1]","mutagen_history":"[1,1,1]","location_rts":"[93,157,174]","trial_type":"fractal-mutation","trial_index":63,"time_elapsed":3967128,"internal_node_id":"0.0-5.0-9.0"},{"group":"square cycles (cube, non-group)","fractal_assignment":["../images/ylw_pnk.png","../images/ylw_slt.png","../images/gry_blk.png","../images/cyn_red.png","../images/pnk_blu.png","../images/org_blu.png","../images/blu_wht.png","../images/grn_red.png"],"mutagen_generator_assignment":[0,1],"goal":0,"start":7,"action_noise":0.1,"location_history":"[7,3,2,3,2,6,7,3,2,3,2,6,7,3,0]","action_history":"[1,1,1,1,1,1,1,1,1,1,1,1,1,0]","mutagen_history":"[1,1,1,1,1,1,1,1,1,1,1,1,1,0]","location_rts":"[103,146,41,96,77,87,23,59,213,120,138,49,130,23]","trial_type":"fractal-mutation","trial_index":64,"time_elapsed":3987677,"internal_node_id":"0.0-5.0-10.0"},{"group":"square cycles (cube, non-group)","fractal_assignment":["../images/ylw_pnk.png","../images/ylw_slt.png","../images/gry_blk.png","../images/cyn_red.png","../images/pnk_blu.png","../images/org_blu.png","../images/blu_wht.png","../images/grn_red.png"],"mutagen_generator_assignment":[0,1],"goal":1,"start":0,"action_noise":0.1,"location_history":"[0,4,5,1]","action_history":"[1,1,1]","mutagen_history":"[1,1,1]","location_rts":"[118,130,29]","trial_type":"fractal-mutation","trial_index":65,"time_elapsed":3994837,"internal_node_id":"0.0-5.0-11.0"},{"group":"square cycles (cube, non-group)","fractal_assignment":["../images/ylw_pnk.png","../images/ylw_slt.png","../images/gry_blk.png","../images/cyn_red.png","../images/pnk_blu.png","../images/org_blu.png","../images/blu_wht.png","../images/grn_red.png"],"mutagen_generator_assignment":[0,1],"goal":6,"start":1,"action_noise":0.1,"location_history":"[1,0,4,5,1,0,4,7,3,2,6]","action_history":"[1,1,1,1,1,1,1,1,1,1]","mutagen_history":"[1,1,1,1,1,1,1,1,1,1]","location_rts":"[52,28,65,179,139,191,162,12,193,61]","trial_type":"fractal-mutation","trial_index":66,"time_elapsed":4010675,"internal_node_id":"0.0-5.0-12.0"},{"group":"square cycles (cube, non-group)","fractal_assignment":["../images/ylw_pnk.png","../images/ylw_slt.png","../images/gry_blk.png","../images/cyn_red.png","../images/pnk_blu.png","../images/org_blu.png","../images/blu_wht.png","../images/grn_red.png"],"mutagen_generator_assignment":[0,1],"goal":4,"start":6,"action_noise":0.1,"location_history":"[6,5,1,0,4]","action_history":"[1,1,1,1]","mutagen_history":"[1,1,1,1]","location_rts":"[218,89,0,168]","trial_type":"fractal-mutation","trial_index":67,"time_elapsed":4019168,"internal_node_id":"0.0-5.0-13.0"},{"group":"square cycles (cube, non-group)","fractal_assignment":["../images/ylw_pnk.png","../images/ylw_slt.png","../images/gry_blk.png","../images/cyn_red.png","../images/pnk_blu.png","../images/org_blu.png","../images/blu_wht.png","../images/grn_red.png"],"mutagen_generator_assignment":[0,1],"goal":5,"start":4,"action_noise":0.1,"location_history":"[4,5]","action_history":"[1]","mutagen_history":"[1]","location_rts":"[130]","trial_type":"fractal-mutation","trial_index":68,"time_elapsed":4023884,"internal_node_id":"0.0-5.0-14.0"},{"group":"square cycles (cube, non-group)","fractal_assignment":["../images/ylw_pnk.png","../images/ylw_slt.png","../images/gry_blk.png","../images/cyn_red.png","../images/pnk_blu.png","../images/org_blu.png","../images/blu_wht.png","../images/grn_red.png"],"mutagen_generator_assignment":[0,1],"goal":4,"start":5,"action_noise":0.1,"location_history":"[5,1,0,4]","action_history":"[1,1,1]","mutagen_history":"[1,1,1]","location_rts":"[122,31,34]","trial_type":"fractal-mutation","trial_index":69,"time_elapsed":4030969,"internal_node_id":"0.0-5.0-15.0"},{"group":"square cycles (cube, non-group)","fractal_assignment":["../images/ylw_pnk.png","../images/ylw_slt.png","../images/gry_blk.png","../images/cyn_red.png","../images/pnk_blu.png","../images/org_blu.png","../images/blu_wht.png","../images/grn_red.png"],"mutagen_generator_assignment":[0,1],"goal":0,"start":4,"action_noise":0.1,"location_history":"[4,5,1,0]","action_history":"[1,1,1]","mutagen_history":"[1,1,1]","location_rts":"[148,174,28]","trial_type":"fractal-mutation","trial_index":70,"time_elapsed":4038174,"internal_node_id":"0.0-5.0-16.0"},{"group":"square cycles (cube, non-group)","fractal_assignment":["../images/ylw_pnk.png","../images/ylw_slt.png","../images/gry_blk.png","../images/cyn_red.png","../images/pnk_blu.png","../images/org_blu.png","../images/blu_wht.png","../images/grn_red.png"],"mutagen_generator_assignment":[0,1],"goal":7,"start":0,"action_noise":0.1,"location_history":"[0,4,5,1,0,4,5,4,5,1,0,4,7]","action_history":"[1,1,1,1,1,1,1,1,1,1,1,0]","mutagen_history":"[1,1,1,1,1,1,1,1,1,1,1,0]","location_rts":"[158,198,10,18,156,183,498,47,184,140,124,54]","trial_type":"fractal-mutation","trial_index":71,"time_elapsed":4056915,"internal_node_id":"0.0-5.0-17.0"},{"group":"square cycles (cube, non-group)","fractal_assignment":["../images/ylw_pnk.png","../images/ylw_slt.png","../images/gry_blk.png","../images/cyn_red.png","../images/pnk_blu.png","../images/org_blu.png","../images/blu_wht.png","../images/grn_red.png"],"mutagen_generator_assignment":[0,1],"goal":2,"start":7,"action_noise":0.1,"location_history":"[7,3,0,4,7,3,0,1,0,4,5,4,7,3,2]","action_history":"[1,0,1,0,1,0,0,1,1,1,0,0,1,0]","mutagen_history":"[1,0,1,0,1,0,0,1,1,1,0,0,1,0]","location_rts":"[140,17,68,9,70,41,178,159,49,11,149,140,94,98]","trial_type":"fractal-mutation","trial_index":72,"time_elapsed":4077048,"internal_node_id":"0.0-5.0-18.0"},{"group":"square cycles (cube, non-group)","fractal_assignment":["../images/ylw_pnk.png","../images/ylw_slt.png","../images/gry_blk.png","../images/cyn_red.png","../images/pnk_blu.png","../images/org_blu.png","../images/blu_wht.png","../images/grn_red.png"],"mutagen_generator_assignment":[0,1],"goal":1,"start":2,"action_noise":0.1,"location_history":"[2,3,0,1]","action_history":"[1,0,0]","mutagen_history":"[1,0,0]","location_rts":"[147,64,15]","trial_type":"fractal-mutation","trial_index":73,"time_elapsed":4084002,"internal_node_id":"0.0-5.0-19.0"},{"group":"square cycles (cube, non-group)","fractal_assignment":["../images/ylw_pnk.png","../images/ylw_slt.png","../images/gry_blk.png","../images/cyn_red.png","../images/pnk_blu.png","../images/org_blu.png","../images/blu_wht.png","../images/grn_red.png"],"mutagen_generator_assignment":[0,1],"goal":3,"start":1,"action_noise":0.1,"location_history":"[1,2,6,7,6,7,6,5,1,2,6,7,3]","action_history":"[1,0,1,0,1,1,0,1,0,1,0,1]","mutagen_history":"[1,0,1,0,1,1,0,1,0,1,0,1]","location_rts":"[84,90,125,116,11,72,89,113,109,111,45,112]","trial_type":"fractal-mutation","trial_index":74,"time_elapsed":4101993,"internal_node_id":"0.0-5.0-20.0"},{"group":"square cycles (cube, non-group)","fractal_assignment":["../images/ylw_pnk.png","../images/ylw_slt.png","../images/gry_blk.png","../images/cyn_red.png","../images/pnk_blu.png","../images/org_blu.png","../images/blu_wht.png","../images/grn_red.png"],"mutagen_generator_assignment":[0,1],"goal":6,"start":3,"action_noise":0.1,"location_history":"[3,2,6]","action_history":"[1,1]","mutagen_history":"[1,1]","location_rts":"[77,60]","trial_type":"fractal-mutation","trial_index":75,"time_elapsed":4107851,"internal_node_id":"0.0-5.0-21.0"},{"group":"square cycles (cube, non-group)","fractal_assignment":["../images/ylw_pnk.png","../images/ylw_slt.png","../images/gry_blk.png","../images/cyn_red.png","../images/pnk_blu.png","../images/org_blu.png","../images/blu_wht.png","../images/grn_red.png"],"mutagen_generator_assignment":[0,1],"goal":5,"start":6,"action_noise":0.1,"location_history":"[6,7,3,2,6,7,3,0,1,0,4,7,3,2,6,5]","action_history":"[1,1,1,1,1,1,1,0,1,1,0,1,1,1,0]","mutagen_history":"[1,1,1,1,1,1,1,0,1,1,0,1,1,1,0]","location_rts":"[64,96,76,46,60,119,599,151,2382,42,18,240,125,176,320]","trial_type":"fractal-mutation","trial_index":76,"time_elapsed":4132741,"internal_node_id":"0.0-5.0-22.0"},{"group":"square cycles (cube, non-group)","fractal_assignment":["../images/ylw_pnk.png","../images/ylw_slt.png","../images/gry_blk.png","../images/cyn_red.png","../images/pnk_blu.png","../images/org_blu.png","../images/blu_wht.png","../images/grn_red.png"],"mutagen_generator_assignment":[0,1],"goal":3,"start":5,"action_noise":0.1,"location_history":"[5,1,0,4,5,1,0,4,5,4,5,1,0,4,5,1,0,4,5,1,0,4,7,3]","action_history":"[1,1,1,1,1,1,1,1,0,1,1,1,1,1,1,1,1,1,1,1,1,0,0]","mutagen_history":"[1,1,1,1,1,1,1,1,0,1,1,1,1,1,1,1,1,1,1,1,1,0,0]","location_rts":"[190,161,45,445,97,8,241,122,90,259,149,80,245,128,51,89,132,151,109,83,143,33,138]","trial_type":"fractal-mutation","trial_index":77,"time_elapsed":4165376,"internal_node_id":"0.0-5.0-23.0"},{"group":"square cycles (cube, non-group)","fractal_assignment":["../images/ylw_pnk.png","../images/ylw_slt.png","../images/gry_blk.png","../images/cyn_red.png","../images/pnk_blu.png","../images/org_blu.png","../images/blu_wht.png","../images/grn_red.png"],"mutagen_generator_assignment":[0,1],"goal":0,"start":3,"action_noise":0.1,"location_history":"[3,2,6,7,3,0]","action_history":"[1,1,1,0,0]","mutagen_history":"[1,1,1,0,0]","location_rts":"[202,196,154,24,94]","trial_type":"fractal-mutation","trial_index":78,"time_elapsed":4175184,"internal_node_id":"0.0-5.0-24.0"},{"group":"square cycles (cube, non-group)","fractal_assignment":["../images/ylw_pnk.png","../images/ylw_slt.png","../images/gry_blk.png","../images/cyn_red.png","../images/pnk_blu.png","../images/org_blu.png","../images/blu_wht.png","../images/grn_red.png"],"mutagen_generator_assignment":[0,1],"goal":7,"start":0,"action_noise":0.1,"location_history":"[0,4,5,1,0,4,5,1,0,1,0,4,7]","action_history":"[1,1,1,1,1,1,1,1,1,1,1,1]","mutagen_history":"[1,1,1,1,1,1,1,1,1,1,1,1]","location_rts":"[124,220,112,146,212,94,57,13,157,80,39,14]","trial_type":"fractal-mutation","trial_index":79,"time_elapsed":4193392,"internal_node_id":"0.0-5.0-25.0"},{"group":"square cycles (cube, non-group)","fractal_assignment":["../images/ylw_pnk.png","../images/ylw_slt.png","../images/gry_blk.png","../images/cyn_red.png","../images/pnk_blu.png","../images/org_blu.png","../images/blu_wht.png","../images/grn_red.png"],"mutagen_generator_assignment":[0,1],"goal":2,"start":7,"action_noise":0.1,"location_history":"[7,6,5,1,2]","action_history":"[1,0,1,1]","mutagen_history":"[1,0,1,1]","location_rts":"[83,61,140,188]","trial_type":"fractal-mutation","trial_index":80,"time_elapsed":4202130,"internal_node_id":"0.0-5.0-26.0"},{"group":"square cycles (cube, non-group)","fractal_assignment":["../images/ylw_pnk.png","../images/ylw_slt.png","../images/gry_blk.png","../images/cyn_red.png","../images/pnk_blu.png","../images/org_blu.png","../images/blu_wht.png","../images/grn_red.png"],"mutagen_generator_assignment":[0,1],"goal":1,"start":2,"action_noise":0.1,"location_history":"[2,6,5,1]","action_history":"[1,1,1]","mutagen_history":"[1,1,1]","location_rts":"[194,72,133]","trial_type":"fractal-mutation","trial_index":81,"time_elapsed":4209252,"internal_node_id":"0.0-5.0-27.0"},{"group":"square cycles (cube, non-group)","fractal_assignment":["../images/ylw_pnk.png","../images/ylw_slt.png","../images/gry_blk.png","../images/cyn_red.png","../images/pnk_blu.png","../images/org_blu.png","../images/blu_wht.png","../images/grn_red.png"],"mutagen_generator_assignment":[0,1],"goal":5,"start":1,"action_noise":0.1,"location_history":"[1,2,6,7,3,0,4,7,6,7,3,2,6,7,3,0,4,7,6,5]","action_history":"[0,1,1,1,1,1,0,0,0,1,1,1,1,1,1,1,1,0,0]","mutagen_history":"[0,1,1,1,1,1,0,0,0,1,1,1,1,1,1,1,1,0,0]","location_rts":"[114,112,62,55,14,140,118,183,140,124,43,491,74,110,273,210,81,96,101]","trial_type":"fractal-mutation","trial_index":82,"time_elapsed":4236685,"internal_node_id":"0.0-5.0-28.0"},{"group":"square cycles (cube, non-group)","fractal_assignment":["../images/ylw_pnk.png","../images/ylw_slt.png","../images/gry_blk.png","../images/cyn_red.png","../images/pnk_blu.png","../images/org_blu.png","../images/blu_wht.png","../images/grn_red.png"],"mutagen_generator_assignment":[0,1],"goal":4,"start":5,"action_noise":0.1,"location_history":"[5,1,0,4]","action_history":"[1,1,1]","mutagen_history":"[1,1,1]","location_rts":"[85,16,10]","trial_type":"fractal-mutation","trial_index":83,"time_elapsed":4243781,"internal_node_id":"0.0-5.0-29.0"},{"group":"square cycles (cube, non-group)","fractal_assignment":["../images/ylw_pnk.png","../images/ylw_slt.png","../images/gry_blk.png","../images/cyn_red.png","../images/pnk_blu.png","../images/org_blu.png","../images/blu_wht.png","../images/grn_red.png"],"mutagen_generator_assignment":[0,1],"goal":6,"start":4,"action_noise":0.1,"location_history":"[4,5,1,0,4,5,1,0,1,0,4,5,4,7,6]","action_history":"[1,1,1,1,1,1,1,0,1,1,1,0,0,1]","mutagen_history":"[1,1,1,1,1,1,1,0,1,1,1,0,0,1]","location_rts":"[108,95,103,202,127,33,81,339,199,25,214,42,134,262]","trial_type":"fractal-mutation","trial_index":84,"time_elapsed":4264955,"internal_node_id":"0.0-5.0-30.0"},{"group":"square cycles (cube, non-group)","fractal_assignment":["../images/ylw_pnk.png","../images/ylw_slt.png","../images/gry_blk.png","../images/cyn_red.png","../images/pnk_blu.png","../images/org_blu.png","../images/blu_wht.png","../images/grn_red.png"],"mutagen_generator_assignment":[0,1],"goal":4,"start":6,"action_noise":0.1,"location_history":"[6,7,3,2,3,2,6,5,1,0,4]","action_history":"[1,1,1,1,1,1,1,1,1,1]","mutagen_history":"[1,1,1,1,1,1,1,1,1,1]","location_rts":"[98,252,223,95,135,148,16,118,36,0]","trial_type":"fractal-mutation","trial_index":85,"time_elapsed":4280791,"internal_node_id":"0.0-5.0-31.0"},{"group":"square cycles (cube, non-group)","fractal_assignment":["../images/ylw_pnk.png","../images/ylw_slt.png","../images/gry_blk.png","../images/cyn_red.png","../images/pnk_blu.png","../images/org_blu.png","../images/blu_wht.png","../images/grn_red.png"],"mutagen_generator_assignment":[0,1],"goal":2,"start":4,"action_noise":0.1,"location_history":"[4,5,4,5,1,0,1,2]","action_history":"[1,1,1,1,1,0,0]","mutagen_history":"[1,1,1,1,1,0,0]","location_rts":"[57,18,275,99,107,138,39]","trial_type":"fractal-mutation","trial_index":86,"time_elapsed":4292888,"internal_node_id":"0.0-5.0-32.0"},{"group":"square cycles (cube, non-group)","fractal_assignment":["../images/ylw_pnk.png","../images/ylw_slt.png","../images/gry_blk.png","../images/cyn_red.png","../images/pnk_blu.png","../images/org_blu.png","../images/blu_wht.png","../images/grn_red.png"],"mutagen_generator_assignment":[0,1],"goal":0,"start":2,"action_noise":0.1,"location_history":"[2,3,2,3,0]","action_history":"[0,0,0,0]","mutagen_history":"[0,0,0,0]","location_rts":"[118,133,137,86]","trial_type":"fractal-mutation","trial_index":87,"time_elapsed":4301551,"internal_node_id":"0.0-5.0-33.0"},{"group":"square cycles (cube, non-group)","fractal_assignment":["../images/ylw_pnk.png","../images/ylw_slt.png","../images/gry_blk.png","../images/cyn_red.png","../images/pnk_blu.png","../images/org_blu.png","../images/blu_wht.png","../images/grn_red.png"],"mutagen_generator_assignment":[0,1],"goal":5,"start":0,"action_noise":0.1,"location_history":"[0,4,7,6,5]","action_history":"[1,0,0,0]","mutagen_history":"[1,0,0,0]","location_rts":"[221,107,93,114]","trial_type":"fractal-mutation","trial_index":88,"time_elapsed":4310009,"internal_node_id":"0.0-5.0-34.0"},{"group":"square cycles (cube, non-group)","fractal_assignment":["../images/ylw_pnk.png","../images/ylw_slt.png","../images/gry_blk.png","../images/cyn_red.png","../images/pnk_blu.png","../images/org_blu.png","../images/blu_wht.png","../images/grn_red.png"],"mutagen_generator_assignment":[0,1],"goal":1,"start":5,"action_noise":0.1,"location_history":"[5,4,7,6,5,1]","action_history":"[0,0,0,0,1]","mutagen_history":"[0,0,0,0,1]","location_rts":"[81,300,90,79,103]","trial_type":"fractal-mutation","trial_index":89,"time_elapsed":4319737,"internal_node_id":"0.0-5.0-35.0"},{"group":"square cycles (cube, non-group)","fractal_assignment":["../images/ylw_pnk.png","../images/ylw_slt.png","../images/gry_blk.png","../images/cyn_red.png","../images/pnk_blu.png","../images/org_blu.png","../images/blu_wht.png","../images/grn_red.png"],"mutagen_generator_assignment":[0,1],"goal":7,"start":1,"action_noise":0.1,"location_history":"[1,2,6,7]","action_history":"[0,0,1]","mutagen_history":"[0,0,1]","location_rts":"[92,70,78]","trial_type":"fractal-mutation","trial_index":90,"time_elapsed":4326848,"internal_node_id":"0.0-5.0-36.0"},{"group":"square cycles (cube, non-group)","fractal_assignment":["../images/ylw_pnk.png","../images/ylw_slt.png","../images/gry_blk.png","../images/cyn_red.png","../images/pnk_blu.png","../images/org_blu.png","../images/blu_wht.png","../images/grn_red.png"],"mutagen_generator_assignment":[0,1],"goal":3,"start":7,"action_noise":0.1,"location_history":"[7,6,5,4,7,6,5,1,2,6,7,6,5,4,7,6,5,4,5,4,7,6,7,3]","action_history":"[0,0,0,0,0,0,1,0,1,0,0,0,0,0,0,0,0,0,0,0,0,1,1]","mutagen_history":"[0,0,0,0,0,0,1,0,1,0,0,0,0,0,0,0,0,0,0,0,0,1,1]","location_rts":"[62,29,129,150,150,114,183,193,69,110,33,81,132,39,65,46,71,117,121,13,83,5769,199]","trial_type":"fractal-mutation","trial_index":91,"time_elapsed":4364071,"internal_node_id":"0.0-5.0-37.0"},{"group":"square cycles (cube, non-group)","fractal_assignment":["../images/ylw_pnk.png","../images/ylw_slt.png","../images/gry_blk.png","../images/cyn_red.png","../images/pnk_blu.png","../images/org_blu.png","../images/blu_wht.png","../images/grn_red.png"],"mutagen_generator_assignment":[0,1],"goal":6,"start":3,"action_noise":0.1,"location_history":"[3,2,6]","action_history":"[1,1]","mutagen_history":"[1,1]","location_rts":"[151,166]","trial_type":"fractal-mutation","trial_index":92,"time_elapsed":4370057,"internal_node_id":"0.0-5.0-38.0"},{"group":"square cycles (cube, non-group)","fractal_assignment":["../images/ylw_pnk.png","../images/ylw_slt.png","../images/gry_blk.png","../images/cyn_red.png","../images/pnk_blu.png","../images/org_blu.png","../images/blu_wht.png","../images/grn_red.png"],"mutagen_generator_assignment":[0,1],"goal":2,"start":6,"action_noise":0.1,"location_history":"[6,5,1,2]","action_history":"[0,1,0]","mutagen_history":"[0,1,0]","location_rts":"[137,45,176]","trial_type":"fractal-mutation","trial_index":93,"time_elapsed":4377143,"internal_node_id":"0.0-5.0-39.0"},{"group":"square cycles (cube, non-group)","fractal_assignment":["../images/ylw_pnk.png","../images/ylw_slt.png","../images/gry_blk.png","../images/cyn_red.png","../images/pnk_blu.png","../images/org_blu.png","../images/blu_wht.png","../images/grn_red.png"],"mutagen_generator_assignment":[0,1],"goal":1,"start":2,"action_noise":0.1,"location_history":"[2,3,2,3,2,3,0,4,5,4,7,6,5,1]","action_history":"[0,1,0,1,0,0,1,1,0,0,0,0,1]","mutagen_history":"[0,1,0,1,0,0,1,1,0,0,0,0,1]","location_rts":"[59,184,149,200,243,236,128,256,495,244,150,79,156]","trial_type":"fractal-mutation","trial_index":94,"time_elapsed":4397746,"internal_node_id":"0.0-5.0-40.0"},{"group":"square cycles (cube, non-group)","fractal_assignment":["../images/ylw_pnk.png","../images/ylw_slt.png","../images/gry_blk.png","../images/cyn_red.png","../images/pnk_blu.png","../images/org_blu.png","../images/blu_wht.png","../images/grn_red.png"],"mutagen_generator_assignment":[0,1],"goal":0,"start":1,"action_noise":0.1,"location_history":"[1,0]","action_history":"[1]","mutagen_history":"[1]","location_rts":"[120]","trial_type":"fractal-mutation","trial_index":95,"time_elapsed":4402560,"internal_node_id":"0.0-5.0-41.0"},{"group":"square cycles (cube, non-group)","fractal_assignment":["../images/ylw_pnk.png","../images/ylw_slt.png","../images/gry_blk.png","../images/cyn_red.png","../images/pnk_blu.png","../images/org_blu.png","../images/blu_wht.png","../images/grn_red.png"],"mutagen_generator_assignment":[0,1],"goal":4,"start":0,"action_noise":0.1,"location_history":"[0,4]","action_history":"[1]","mutagen_history":"[1]","location_rts":"[13]","trial_type":"fractal-mutation","trial_index":96,"time_elapsed":4407257,"internal_node_id":"0.0-5.0-42.0"},{"group":"square cycles (cube, non-group)","fractal_assignment":["../images/ylw_pnk.png","../images/ylw_slt.png","../images/gry_blk.png","../images/cyn_red.png","../images/pnk_blu.png","../images/org_blu.png","../images/blu_wht.png","../images/grn_red.png"],"mutagen_generator_assignment":[0,1],"goal":6,"start":4,"action_noise":0.1,"location_history":"[4,5,1,2,6]","action_history":"[1,0,1,1]","mutagen_history":"[1,0,1,1]","location_rts":"[163,168,132,78]","trial_type":"fractal-mutation","trial_index":97,"time_elapsed":4415769,"internal_node_id":"0.0-5.0-43.0"},{"group":"square cycles (cube, non-group)","fractal_assignment":["../images/ylw_pnk.png","../images/ylw_slt.png","../images/gry_blk.png","../images/cyn_red.png","../images/pnk_blu.png","../images/org_blu.png","../images/blu_wht.png","../images/grn_red.png"],"mutagen_generator_assignment":[0,1],"goal":3,"start":6,"action_noise":0.1,"location_history":"[6,5,4,5,1,0,4,5,1,0,1,2,6,5,4,5,4,7,6,5,1,0,4,5,1,2,3]","action_history":"[0,0,1,1,1,1,1,1,1,1,0,1,1,0,0,0,0,0,0,1,1,1,1,1,1,0]","mutagen_history":"[0,0,1,1,1,1,1,1,1,1,0,1,1,0,0,0,0,0,0,1,1,1,1,1,1,0]","location_rts":"[66,82,16,79,104,0,11,66,226,213,192,128,34,10,101,91,44,134,177,11,129,211,303,187,85,31]","trial_type":"fractal-mutation","trial_index":98,"time_elapsed":4450969,"internal_node_id":"0.0-5.0-44.0"},{"group":"square cycles (cube, non-group)","fractal_assignment":["../images/ylw_pnk.png","../images/ylw_slt.png","../images/gry_blk.png","../images/cyn_red.png","../images/pnk_blu.png","../images/org_blu.png","../images/blu_wht.png","../images/grn_red.png"],"mutagen_generator_assignment":[0,1],"goal":7,"start":3,"action_noise":0.1,"location_history":"[3,2,6,5,1,2,3,2,6,7]","action_history":"[1,1,0,1,1,1,1,1,1]","mutagen_history":"[1,1,0,1,1,1,1,1,1]","location_rts":"[82,11,25,17,122,103,214,37,33]","trial_type":"fractal-mutation","trial_index":99,"time_elapsed":4464981,"internal_node_id":"0.0-5.0-45.0"},{"group":"square cycles (cube, non-group)","fractal_assignment":["../images/ylw_pnk.png","../images/ylw_slt.png","../images/gry_blk.png","../images/cyn_red.png","../images/pnk_blu.png","../images/org_blu.png","../images/blu_wht.png","../images/grn_red.png"],"mutagen_generator_assignment":[0,1],"goal":5,"start":7,"action_noise":0.1,"location_history":"[7,6,7,3,2,6,5]","action_history":"[0,1,1,1,1,0]","mutagen_history":"[0,1,1,1,1,0]","location_rts":"[121,38,193,68,390,216]","trial_type":"fractal-mutation","trial_index":100,"time_elapsed":4476184,"internal_node_id":"0.0-5.0-46.0"},{"group":"square cycles (cube, non-group)","fractal_assignment":["../images/ylw_pnk.png","../images/ylw_slt.png","../images/gry_blk.png","../images/cyn_red.png","../images/pnk_blu.png","../images/org_blu.png","../images/blu_wht.png","../images/grn_red.png"],"mutagen_generator_assignment":[0,1],"goal":1,"start":5,"action_noise":0.1,"location_history":"[5,4,7,6,7,3,2,3,0,1]","action_history":"[0,0,0,1,1,1,0,0,0]","mutagen_history":"[0,0,0,1,1,1,0,0,0]","location_rts":"[166,56,0,245,24,162,110,45,282]","trial_type":"fractal-mutation","trial_index":101,"time_elapsed":4490714,"internal_node_id":"0.0-5.0-47.0"},{"group":"square cycles (cube, non-group)","fractal_assignment":["../images/ylw_pnk.png","../images/ylw_slt.png","../images/gry_blk.png","../images/cyn_red.png","../images/pnk_blu.png","../images/org_blu.png","../images/blu_wht.png","../images/grn_red.png"],"mutagen_generator_assignment":[0,1],"goal":6,"start":1,"action_noise":0.1,"location_history":"[1,0,1,0,4,5,4,5,4,7,6]","action_history":"[0,0,1,1,1,1,1,0,0,0]","mutagen_history":"[0,0,1,1,1,1,1,0,0,0]","location_rts":"[70,378,173,149,149,295,72,370,806,127]","trial_type":"fractal-mutation","trial_index":102,"time_elapsed":4508005,"internal_node_id":"0.0-5.0-48.0"},{"group":"square cycles (cube, non-group)","fractal_assignment":["../images/ylw_pnk.png","../images/ylw_slt.png","../images/gry_blk.png","../images/cyn_red.png","../images/pnk_blu.png","../images/org_blu.png","../images/blu_wht.png","../images/grn_red.png"],"mutagen_generator_assignment":[0,1],"goal":0,"start":6,"action_noise":0.1,"location_history":"[6,7,3,0]","action_history":"[1,1,1]","mutagen_history":"[1,1,1]","location_rts":"[275,127,82]","trial_type":"fractal-mutation","trial_index":103,"time_elapsed":4515358,"internal_node_id":"0.0-5.0-49.0"},{"view_history":"[{\"page_index\":0,\"viewing_time\":11481}]","rt":11481,"trial_type":"instructions","trial_index":104,"time_elapsed":4527840,"internal_node_id":"0.0-6.0"},{"rt":16949,"responses":"{\"Q0\":\"nice experiment but taking too much time to complete\"}","trial_type":"survey-text","trial_index":105,"time_elapsed":4545798,"internal_node_id":"0.0-7.0"}]