[{"view_history":"[{\"page_index\":0,\"viewing_time\":4064},{\"page_index\":1,\"viewing_time\":10531}]","rt":14600,"trial_type":"instructions","trial_index":0,"time_elapsed":14602,"internal_node_id":"0.0-0.0"},{"view_history":"[{\"page_index\":0,\"viewing_time\":2438},{\"page_index\":1,\"viewing_time\":13170}]","rt":15609,"trial_type":"instructions","trial_index":1,"time_elapsed":31213,"internal_node_id":"0.0-1.0"},{"group":"square cycles (cube, non-group)","room_assignment":["pink","brown","yellow","grey","purple","red","green","blue"],"door_color_assignment":["black","white"],"door_generator_assignment":[0,1],"goal":6,"start":3,"action_noise":0.1,"location_history":"[3,0,1,0,4,5,4,7,3,2,6]","action_history":"[0,0,1,1,0,0,0,1,1,1]","door_history":"[0,0,1,1,0,0,0,1,1,1]","location_rts":"[3787,658,1249,603,5604,579,1141,1465,847,593]","trial_type":"two-door-navigation","trial_index":2,"time_elapsed":61399,"internal_node_id":"0.0-2.0-0.0"},{"group":"square cycles (cube, non-group)","room_assignment":["pink","brown","yellow","grey","purple","red","green","blue"],"door_color_assignment":["black","white"],"door_generator_assignment":[0,1],"goal":1,"start":6,"action_noise":0.1,"location_history":"[6,5,4,7,3,0,1]","action_history":"[0,0,0,0,0,0]","door_history":"[0,0,0,0,0,0]","location_rts":"[2252,655,609,606,621,835]","trial_type":"two-door-navigation","trial_index":3,"time_elapsed":76582,"internal_node_id":"0.0-2.0-1.0"},{"group":"square cycles (cube, non-group)","room_assignment":["pink","brown","yellow","grey","purple","red","green","blue"],"door_color_assignment":["black","white"],"door_generator_assignment":[0,1],"goal":2,"start":1,"action_noise":0.1,"location_history":"[1,2]","action_history":"[0]","door_history":"[0]","location_rts":"[7665]","trial_type":"two-door-navigation","trial_index":4,"time_elapsed":89685,"internal_node_id":"0.0-2.0-2.0"},{"group":"square cycles (cube, non-group)","room_assignment":["pink","brown","yellow","grey","purple","red","green","blue"],"door_color_assignment":["black","white"],"door_generator_assignment":[0,1],"goal":0,"start":2,"action_noise":0.1,"location_history":"[2,6,5,4,7,3,0]","action_history":"[0,0,0,0,0,0]","door_history":"[0,0,0,0,0,0]","location_rts":"[2574,561,630,612,613,605]","trial_type":"two-door-navigation","trial_index":5,"time_elapsed":104874,"internal_node_id":"0.0-2.0-3.0"},{"group":"square cycles (cube, non-group)","room_assignment":["pink","brown","yellow","grey","purple","red","green","blue"],"door_color_assignment":["black","white"],"door_generator_assignment":[0,1],"goal":7,"start":0,"action_noise":0.1,"location_history":"[0,4,7]","action_history":"[0,0]","door_history":"[0,0]","location_rts":"[2108,695]","trial_type":"two-door-navigation","trial_index":6,"time_elapsed":113206,"internal_node_id":"0.0-2.0-4.0"},{"group":"square cycles (cube, non-group)","room_assignment":["pink","brown","yellow","grey","purple","red","green","blue"],"door_color_assignment":["black","white"],"door_generator_assignment":[0,1],"goal":5,"start":7,"action_noise":0.1,"location_history":"[7,6,5]","action_history":"[0,0]","door_history":"[0,0]","location_rts":"[1798,463]","trial_type":"two-door-navigation","trial_index":7,"time_elapsed":120996,"internal_node_id":"0.0-2.0-5.0"},{"group":"square cycles (cube, non-group)","room_assignment":["pink","brown","yellow","grey","purple","red","green","blue"],"door_color_assignment":["black","white"],"door_generator_assignment":[0,1],"goal":4,"start":5,"action_noise":0.1,"location_history":"[5,4]","action_history":"[0]","door_history":"[0]","location_rts":"[1948]","trial_type":"two-door-navigation","trial_index":8,"time_elapsed":127459,"internal_node_id":"0.0-2.0-6.0"},{"group":"square cycles (cube, non-group)","room_assignment":["pink","brown","yellow","grey","purple","red","green","blue"],"door_color_assignment":["black","white"],"door_generator_assignment":[0,1],"goal":2,"start":4,"action_noise":0.1,"location_history":"[4,7,6,7,6,7,3,2]","action_history":"[0,0,0,0,1,1,1]","door_history":"[0,0,0,0,1,1,1]","location_rts":"[1818,750,967,687,1758,628,712]","trial_type":"two-door-navigation","trial_index":9,"time_elapsed":145372,"internal_node_id":"0.0-2.0-7.0"},{"group":"square cycles (cube, non-group)","room_assignment":["pink","brown","yellow","grey","purple","red","green","blue"],"door_color_assignment":["black","white"],"door_generator_assignment":[0,1],"goal":3,"start":2,"action_noise":0.1,"location_history":"[2,3]","action_history":"[0]","door_history":"[0]","location_rts":"[2917]","trial_type":"two-door-navigation","trial_index":10,"time_elapsed":152809,"internal_node_id":"0.0-2.0-8.0"},{"group":"square cycles (cube, non-group)","room_assignment":["pink","brown","yellow","grey","purple","red","green","blue"],"door_color_assignment":["black","white"],"door_generator_assignment":[0,1],"goal":7,"start":3,"action_noise":0.1,"location_history":"[3,0,1,2,6,7]","action_history":"[0,0,0,1,1]","door_history":"[0,0,0,1,1]","location_rts":"[19815,781,769,997,1121]","trial_type":"two-door-navigation","trial_index":11,"time_elapsed":184856,"internal_node_id":"0.0-2.0-9.0"},{"group":"square cycles (cube, non-group)","room_assignment":["pink","brown","yellow","grey","purple","red","green","blue"],"door_color_assignment":["black","white"],"door_generator_assignment":[0,1],"goal":0,"start":7,"action_noise":0.1,"location_history":"[7,3,2,6,7,6,7,6,7,3,2,3,0]","action_history":"[1,1,1,1,0,0,0,1,1,1,0,0]","door_history":"[1,1,1,1,0,0,0,1,1,1,0,0]","location_rts":"[15803,956,1245,659,800,497,538,1296,1203,671,1866,838]","trial_type":"two-door-navigation","trial_index":12,"time_elapsed":226886,"internal_node_id":"0.0-2.0-10.0"},{"group":"square cycles (cube, non-group)","room_assignment":["pink","brown","yellow","grey","purple","red","green","blue"],"door_color_assignment":["black","white"],"door_generator_assignment":[0,1],"goal":1,"start":0,"action_noise":0.1,"location_history":"[0,1]","action_history":"[0]","door_history":"[0]","location_rts":"[2226]","trial_type":"two-door-navigation","trial_index":13,"time_elapsed":233629,"internal_node_id":"0.0-2.0-11.0"},{"group":"square cycles (cube, non-group)","room_assignment":["pink","brown","yellow","grey","purple","red","green","blue"],"door_color_assignment":["black","white"],"door_generator_assignment":[0,1],"goal":6,"start":1,"action_noise":0.1,"location_history":"[1,2,3,0,1,2,3,2,6]","action_history":"[0,0,0,0,0,0,1,1]","door_history":"[0,0,0,0,0,0,1,1]","location_rts":"[1197,652,942,608,634,1236,1514,611]","trial_type":"two-door-navigation","trial_index":14,"time_elapsed":252617,"internal_node_id":"0.0-2.0-12.0"},{"group":"square cycles (cube, non-group)","room_assignment":["pink","brown","yellow","grey","purple","red","green","blue"],"door_color_assignment":["black","white"],"door_generator_assignment":[0,1],"goal":4,"start":6,"action_noise":0.1,"location_history":"[6,5,4]","action_history":"[0,0]","door_history":"[0,0]","location_rts":"[2393,943]","trial_type":"two-door-navigation","trial_index":15,"time_elapsed":261475,"internal_node_id":"0.0-2.0-13.0"},{"group":"square cycles (cube, non-group)","room_assignment":["pink","brown","yellow","grey","purple","red","green","blue"],"door_color_assignment":["black","white"],"door_generator_assignment":[0,1],"goal":5,"start":4,"action_noise":0.1,"location_history":"[4,5]","action_history":"[0]","door_history":"[0]","location_rts":"[1863]","trial_type":"two-door-navigation","trial_index":16,"time_elapsed":267859,"internal_node_id":"0.0-2.0-14.0"},{"group":"square cycles (cube, non-group)","room_assignment":["pink","brown","yellow","grey","purple","red","green","blue"],"door_color_assignment":["black","white"],"door_generator_assignment":[0,1],"goal":4,"start":5,"action_noise":0.1,"location_history":"[5,4]","action_history":"[0]","door_history":"[0]","location_rts":"[1844]","trial_type":"two-door-navigation","trial_index":17,"time_elapsed":274220,"internal_node_id":"0.0-2.0-15.0"},{"group":"square cycles (cube, non-group)","room_assignment":["pink","brown","yellow","grey","purple","red","green","blue"],"door_color_assignment":["black","white"],"door_generator_assignment":[0,1],"goal":0,"start":4,"action_noise":0.1,"location_history":"[4,7,3,2,6,7,3,2,6,7,6,7,3,2,3,0]","action_history":"[0,0,0,1,1,1,1,1,1,1,1,1,1,0,0]","door_history":"[0,0,0,1,1,1,1,1,1,1,1,1,1,0,0]","location_rts":"[8884,609,574,1806,579,493,402,924,586,494,514,610,730,980,711]","trial_type":"two-door-navigation","trial_index":18,"time_elapsed":311813,"internal_node_id":"0.0-2.0-16.0"},{"group":"square cycles (cube, non-group)","room_assignment":["pink","brown","yellow","grey","purple","red","green","blue"],"door_color_assignment":["black","white"],"door_generator_assignment":[0,1],"goal":7,"start":0,"action_noise":0.1,"location_history":"[0,1,0,1,2,3,2,6,7]","action_history":"[0,0,0,0,0,1,1,1]","door_history":"[0,0,0,0,0,1,1,1]","location_rts":"[2156,2267,629,890,795,1655,579,710]","trial_type":"two-door-navigation","trial_index":19,"time_elapsed":333101,"internal_node_id":"0.0-2.0-17.0"},{"group":"square cycles (cube, non-group)","room_assignment":["pink","brown","yellow","grey","purple","red","green","blue"],"door_color_assignment":["black","white"],"door_generator_assignment":[0,1],"goal":2,"start":7,"action_noise":0.1,"location_history":"[7,6,5,4,7,6,5,1,0,4,5,4,5,1,2]","action_history":"[0,0,0,0,0,0,1,1,1,1,1,1,1,0]","door_history":"[0,0,0,0,0,0,1,1,1,1,1,1,1,0]","location_rts":"[2472,828,512,534,740,932,1825,838,786,563,586,672,534,701]","trial_type":"two-door-navigation","trial_index":20,"time_elapsed":363285,"internal_node_id":"0.0-2.0-18.0"},{"group":"square cycles (cube, non-group)","room_assignment":["pink","brown","yellow","grey","purple","red","green","blue"],"door_color_assignment":["black","white"],"door_generator_assignment":[0,1],"goal":1,"start":2,"action_noise":0.1,"location_history":"[2,3,0,1]","action_history":"[0,0,0]","door_history":"[0,0,0]","location_rts":"[1381,531,1527]","trial_type":"two-door-navigation","trial_index":21,"time_elapsed":373269,"internal_node_id":"0.0-2.0-19.0"},{"group":"square cycles (cube, non-group)","room_assignment":["pink","brown","yellow","grey","purple","red","green","blue"],"door_color_assignment":["black","white"],"door_generator_assignment":[0,1],"goal":3,"start":1,"action_noise":0.1,"location_history":"[1,2,3]","action_history":"[0,0]","door_history":"[0,0]","location_rts":"[13267,522]","trial_type":"two-door-navigation","trial_index":22,"time_elapsed":392586,"internal_node_id":"0.0-2.0-20.0"},{"group":"square cycles (cube, non-group)","room_assignment":["pink","brown","yellow","grey","purple","red","green","blue"],"door_color_assignment":["black","white"],"door_generator_assignment":[0,1],"goal":6,"start":3,"action_noise":0.1,"location_history":"[3,0,4,5,4,5,4,7,3,2,6]","action_history":"[0,1,1,0,0,0,0,1,1,1]","door_history":"[0,1,1,0,0,0,0,1,1,1]","location_rts":"[3661,1298,580,1452,891,691,1051,1619,591,633]","trial_type":"two-door-navigation","trial_index":23,"time_elapsed":418666,"internal_node_id":"0.0-2.0-21.0"},{"group":"square cycles (cube, non-group)","room_assignment":["pink","brown","yellow","grey","purple","red","green","blue"],"door_color_assignment":["black","white"],"door_generator_assignment":[0,1],"goal":5,"start":6,"action_noise":0.1,"location_history":"[6,5]","action_history":"[0]","door_history":"[0]","location_rts":"[2808]","trial_type":"two-door-navigation","trial_index":24,"time_elapsed":425991,"internal_node_id":"0.0-2.0-22.0"},{"group":"square cycles (cube, non-group)","room_assignment":["pink","brown","yellow","grey","purple","red","green","blue"],"door_color_assignment":["black","white"],"door_generator_assignment":[0,1],"goal":3,"start":5,"action_noise":0.1,"location_history":"[5,4,5,4,7,6,5,4,7,3]","action_history":"[1,1,1,0,0,0,0,0,1]","door_history":"[1,1,1,0,0,0,0,0,1]","location_rts":"[2182,797,633,950,1311,612,688,784,2281]","trial_type":"two-door-navigation","trial_index":25,"time_elapsed":448850,"internal_node_id":"0.0-2.0-23.0"},{"group":"square cycles (cube, non-group)","room_assignment":["pink","brown","yellow","grey","purple","red","green","blue"],"door_color_assignment":["black","white"],"door_generator_assignment":[0,1],"goal":0,"start":3,"action_noise":0.1,"location_history":"[3,0]","action_history":"[0]","door_history":"[0]","location_rts":"[3800]","trial_type":"two-door-navigation","trial_index":26,"time_elapsed":457170,"internal_node_id":"0.0-2.0-24.0"},{"group":"square cycles (cube, non-group)","room_assignment":["pink","brown","yellow","grey","purple","red","green","blue"],"door_color_assignment":["black","white"],"door_generator_assignment":[0,1],"goal":7,"start":0,"action_noise":0.1,"location_history":"[0,1,2,6,7]","action_history":"[0,0,1,1]","door_history":"[0,0,1,1]","location_rts":"[1245,2430,1935,672]","trial_type":"two-door-navigation","trial_index":27,"time_elapsed":471011,"internal_node_id":"0.0-2.0-25.0"},{"group":"square cycles (cube, non-group)","room_assignment":["pink","brown","yellow","grey","purple","red","green","blue"],"door_color_assignment":["black","white"],"door_generator_assignment":[0,1],"goal":2,"start":7,"action_noise":0.1,"location_history":"[7,6,5,4,7,3,2]","action_history":"[0,0,0,0,1,1]","door_history":"[0,0,0,0,1,1]","location_rts":"[2776,719,1217,1060,1245,848]","trial_type":"two-door-navigation","trial_index":28,"time_elapsed":488455,"internal_node_id":"0.0-2.0-26.0"},{"group":"square cycles (cube, non-group)","room_assignment":["pink","brown","yellow","grey","purple","red","green","blue"],"door_color_assignment":["black","white"],"door_generator_assignment":[0,1],"goal":1,"start":2,"action_noise":0.1,"location_history":"[2,3,0,4,5,1]","action_history":"[0,0,1,1,1]","door_history":"[0,0,1,1,1]","location_rts":"[1845,1010,1527,576,530]","trial_type":"two-door-navigation","trial_index":29,"time_elapsed":502507,"internal_node_id":"0.0-2.0-27.0"},{"group":"square cycles (cube, non-group)","room_assignment":["pink","brown","yellow","grey","purple","red","green","blue"],"door_color_assignment":["black","white"],"door_generator_assignment":[0,1],"goal":5,"start":1,"action_noise":0.1,"location_history":"[1,2,3,0,4,5]","action_history":"[0,0,0,1,1]","door_history":"[0,0,0,1,1]","location_rts":"[1645,1100,745,1285,569]","trial_type":"two-door-navigation","trial_index":30,"time_elapsed":516417,"internal_node_id":"0.0-2.0-28.0"},{"group":"square cycles (cube, non-group)","room_assignment":["pink","brown","yellow","grey","purple","red","green","blue"],"door_color_assignment":["black","white"],"door_generator_assignment":[0,1],"goal":4,"start":5,"action_noise":0.1,"location_history":"[5,4]","action_history":"[0]","door_history":"[0]","location_rts":"[1817]","trial_type":"two-door-navigation","trial_index":31,"time_elapsed":522753,"internal_node_id":"0.0-2.0-29.0"},{"group":"square cycles (cube, non-group)","room_assignment":["pink","brown","yellow","grey","purple","red","green","blue"],"door_color_assignment":["black","white"],"door_generator_assignment":[0,1],"goal":6,"start":4,"action_noise":0.1,"location_history":"[4,7,3,2,6]","action_history":"[0,1,1,1]","door_history":"[0,1,1,1]","location_rts":"[1334,1298,627,655]","trial_type":"two-door-navigation","trial_index":32,"time_elapsed":534225,"internal_node_id":"0.0-2.0-30.0"},{"group":"square cycles (cube, non-group)","room_assignment":["pink","brown","yellow","grey","purple","red","green","blue"],"door_color_assignment":["black","white"],"door_generator_assignment":[0,1],"goal":4,"start":6,"action_noise":0.1,"location_history":"[6,5,4]","action_history":"[0,0]","door_history":"[0,0]","location_rts":"[1678,580]","trial_type":"two-door-navigation","trial_index":33,"time_elapsed":542012,"internal_node_id":"0.0-2.0-31.0"},{"group":"square cycles (cube, non-group)","room_assignment":["pink","brown","yellow","grey","purple","red","green","blue"],"door_color_assignment":["black","white"],"door_generator_assignment":[0,1],"goal":2,"start":4,"action_noise":0.1,"location_history":"[4,5,4,7,3,2]","action_history":"[0,0,0,1,1]","door_history":"[0,0,0,1,1]","location_rts":"[37922,857,580,1561,486]","trial_type":"two-door-navigation","trial_index":34,"time_elapsed":591987,"internal_node_id":"0.0-2.0-32.0"},{"group":"square cycles (cube, non-group)","room_assignment":["pink","brown","yellow","grey","purple","red","green","blue"],"door_color_assignment":["black","white"],"door_generator_assignment":[0,1],"goal":0,"start":2,"action_noise":0.1,"location_history":"[2,3,0]","action_history":"[0,0]","door_history":"[0,0]","location_rts":"[4727,712]","trial_type":"two-door-navigation","trial_index":35,"time_elapsed":602956,"internal_node_id":"0.0-2.0-33.0"},{"group":"square cycles (cube, non-group)","room_assignment":["pink","brown","yellow","grey","purple","red","green","blue"],"door_color_assignment":["black","white"],"door_generator_assignment":[0,1],"goal":5,"start":0,"action_noise":0.1,"location_history":"[0,1,2,6,5]","action_history":"[0,0,0,0]","door_history":"[0,0,0,0]","location_rts":"[1579,1763,651,840]","trial_type":"two-door-navigation","trial_index":36,"time_elapsed":615345,"internal_node_id":"0.0-2.0-34.0"},{"group":"square cycles (cube, non-group)","room_assignment":["pink","brown","yellow","grey","purple","red","green","blue"],"door_color_assignment":["black","white"],"door_generator_assignment":[0,1],"goal":1,"start":5,"action_noise":0.1,"location_history":"[5,4,7,3,0,1]","action_history":"[0,0,0,0,1]","door_history":"[0,0,0,0,1]","location_rts":"[1872,750,1647,930,2428]","trial_type":"two-door-navigation","trial_index":37,"time_elapsed":631536,"internal_node_id":"0.0-2.0-35.0"},{"group":"square cycles (cube, non-group)","room_assignment":["pink","brown","yellow","grey","purple","red","green","blue"],"door_color_assignment":["black","white"],"door_generator_assignment":[0,1],"goal":7,"start":1,"action_noise":0.1,"location_history":"[1,2,6,7]","action_history":"[0,1,1]","door_history":"[0,1,1]","location_rts":"[6191,2390,1226]","trial_type":"two-door-navigation","trial_index":38,"time_elapsed":647885,"internal_node_id":"0.0-2.0-36.0"},{"group":"square cycles (cube, non-group)","room_assignment":["pink","brown","yellow","grey","purple","red","green","blue"],"door_color_assignment":["black","white"],"door_generator_assignment":[0,1],"goal":3,"start":7,"action_noise":0.1,"location_history":"[7,6,5,1,0,1,2,6,7,6,7,3]","action_history":"[0,0,0,0,0,0,1,1,1,1,1]","door_history":"[0,0,0,0,0,0,1,1,1,1,1]","location_rts":"[3316,613,584,844,1413,1689,1573,852,897,963,576]","trial_type":"two-door-navigation","trial_index":39,"time_elapsed":675850,"internal_node_id":"0.0-2.0-37.0"},{"group":"square cycles (cube, non-group)","room_assignment":["pink","brown","yellow","grey","purple","red","green","blue"],"door_color_assignment":["black","white"],"door_generator_assignment":[0,1],"goal":6,"start":3,"action_noise":0.1,"location_history":"[3,2,6]","action_history":"[1,1]","door_history":"[1,1]","location_rts":"[2579,673]","trial_type":"two-door-navigation","trial_index":40,"time_elapsed":684628,"internal_node_id":"0.0-2.0-38.0"},{"group":"square cycles (cube, non-group)","room_assignment":["pink","brown","yellow","grey","purple","red","green","blue"],"door_color_assignment":["black","white"],"door_generator_assignment":[0,1],"goal":2,"start":6,"action_noise":0.1,"location_history":"[6,5,4,7,6,7,3,2]","action_history":"[0,0,0,0,0,1,1]","door_history":"[0,0,0,0,0,1,1]","location_rts":"[6167,546,566,621,627,1674,567]","trial_type":"two-door-navigation","trial_index":41,"time_elapsed":705985,"internal_node_id":"0.0-2.0-39.0"},{"group":"square cycles (cube, non-group)","room_assignment":["pink","brown","yellow","grey","purple","red","green","blue"],"door_color_assignment":["black","white"],"door_generator_assignment":[0,1],"goal":1,"start":2,"action_noise":0.1,"location_history":"[2,3,0,1]","action_history":"[0,0,0]","door_history":"[0,0,0]","location_rts":"[26782,707,3095]","trial_type":"two-door-navigation","trial_index":42,"time_elapsed":743105,"internal_node_id":"0.0-2.0-40.0"},{"group":"square cycles (cube, non-group)","room_assignment":["pink","brown","yellow","grey","purple","red","green","blue"],"door_color_assignment":["black","white"],"door_generator_assignment":[0,1],"goal":0,"start":1,"action_noise":0.1,"location_history":"[1,0]","action_history":"[0]","door_history":"[0]","location_rts":"[18197]","trial_type":"two-door-navigation","trial_index":43,"time_elapsed":765815,"internal_node_id":"0.0-2.0-41.0"},{"group":"square cycles (cube, non-group)","room_assignment":["pink","brown","yellow","grey","purple","red","green","blue"],"door_color_assignment":["black","white"],"door_generator_assignment":[0,1],"goal":4,"start":0,"action_noise":0.1,"location_history":"[0,1,2,3,0,4]","action_history":"[0,0,0,0,1]","door_history":"[0,0,0,0,1]","location_rts":"[2060,3221,698,1091,3717]","trial_type":"two-door-navigation","trial_index":44,"time_elapsed":785165,"internal_node_id":"0.0-2.0-42.0"},{"group":"square cycles (cube, non-group)","room_assignment":["pink","brown","yellow","grey","purple","red","green","blue"],"door_color_assignment":["black","white"],"door_generator_assignment":[0,1],"goal":6,"start":4,"action_noise":0.1,"location_history":"[4,5,1,0,1,0,1,2,6]","action_history":"[1,1,1,1,1,0,0,1]","door_history":"[1,1,1,1,1,0,0,1]","location_rts":"[7060,550,1801,702,1244,1579,584,2753]","trial_type":"two-door-navigation","trial_index":45,"time_elapsed":813036,"internal_node_id":"0.0-2.0-43.0"},{"group":"square cycles (cube, non-group)","room_assignment":["pink","brown","yellow","grey","purple","red","green","blue"],"door_color_assignment":["black","white"],"door_generator_assignment":[0,1],"goal":3,"start":6,"action_noise":0.1,"location_history":"[6,5,1,2,3]","action_history":"[1,1,1,0]","door_history":"[1,1,1,0]","location_rts":"[2930,1143,732,2337]","trial_type":"two-door-navigation","trial_index":46,"time_elapsed":827736,"internal_node_id":"0.0-2.0-44.0"},{"group":"square cycles (cube, non-group)","room_assignment":["pink","brown","yellow","grey","purple","red","green","blue"],"door_color_assignment":["black","white"],"door_generator_assignment":[0,1],"goal":7,"start":3,"action_noise":0.1,"location_history":"[3,0,4,5,1,0,4,7]","action_history":"[1,1,1,1,1,1,0]","door_history":"[1,1,1,1,1,1,0]","location_rts":"[8074,1428,1555,516,1196,1452,1717]","trial_type":"two-door-navigation","trial_index":47,"time_elapsed":854284,"internal_node_id":"0.0-2.0-45.0"},{"group":"square cycles (cube, non-group)","room_assignment":["pink","brown","yellow","grey","purple","red","green","blue"],"door_color_assignment":["black","white"],"door_generator_assignment":[0,1],"goal":5,"start":7,"action_noise":0.1,"location_history":"[7,6,5]","action_history":"[0,0]","door_history":"[0,0]","location_rts":"[1559,902]","trial_type":"two-door-navigation","trial_index":48,"time_elapsed":862275,"internal_node_id":"0.0-2.0-46.0"},{"group":"square cycles (cube, non-group)","room_assignment":["pink","brown","yellow","grey","purple","red","green","blue"],"door_color_assignment":["black","white"],"door_generator_assignment":[0,1],"goal":1,"start":5,"action_noise":0.1,"location_history":"[5,4,7,6,7,3,0,4,5,4,7,6,7,3,2,3,0,4,5,4,5,1]","action_history":"[0,0,0,1,1,0,0,0,0,0,0,1,1,1,0,0,1,1,1,1,1]","door_history":"[0,0,0,1,1,0,0,0,0,0,0,1,1,1,0,0,1,1,1,1,1]","location_rts":"[3388,896,573,2389,577,1685,748,749,805,1389,592,1568,793,727,1129,694,2515,567,524,836,815]","trial_type":"two-door-navigation","trial_index":49,"time_elapsed":910974,"internal_node_id":"0.0-2.0-47.0"},{"group":"square cycles (cube, non-group)","room_assignment":["pink","brown","yellow","grey","purple","red","green","blue"],"door_color_assignment":["black","white"],"door_generator_assignment":[0,1],"goal":6,"start":1,"action_noise":0.1,"location_history":"[1,2,3,0,4,7,6]","action_history":"[0,0,0,0,0,0]","door_history":"[0,0,0,0,0,0]","location_rts":"[36455,559,587,501,526,561]","trial_type":"two-door-navigation","trial_index":50,"time_elapsed":959739,"internal_node_id":"0.0-2.0-48.0"},{"group":"square cycles (cube, non-group)","room_assignment":["pink","brown","yellow","grey","purple","red","green","blue"],"door_color_assignment":["black","white"],"door_generator_assignment":[0,1],"goal":0,"start":6,"action_noise":0.1,"location_history":"[6,5,1,0]","action_history":"[0,0,0]","door_history":"[0,0,0]","location_rts":"[2976,627,555]","trial_type":"two-door-navigation","trial_index":51,"time_elapsed":970441,"internal_node_id":"0.0-2.0-49.0"},{"view_history":"[{\"page_index\":0,\"viewing_time\":2375}]","rt":2377,"trial_type":"instructions","trial_index":52,"time_elapsed":973820,"internal_node_id":"0.0-3.0"},{"view_history":"[{\"page_index\":0,\"viewing_time\":1739},{\"page_index\":1,\"viewing_time\":22195}]","rt":23937,"trial_type":"instructions","trial_index":53,"time_elapsed":998758,"internal_node_id":"0.0-4.0"},{"group":"square cycles (cube, non-group)","fractal_assignment":["../images/cyn_red.png","../images/grn_red.png","../images/blu_wht.png","../images/ylw_pnk.png","../images/gry_blk.png","../images/org_blu.png","../images/ylw_slt.png","../images/pnk_blu.png"],"mutagen_generator_assignment":[1,0],"goal":6,"start":3,"action_noise":0.1,"location_history":"[3,2,6]","action_history":"[1,1]","mutagen_history":"[0,0]","location_rts":"[6387,806]","trial_type":"fractal-mutation","trial_index":54,"time_elapsed":1011533,"internal_node_id":"0.0-5.0-0.0"},{"group":"square cycles (cube, non-group)","fractal_assignment":["../images/cyn_red.png","../images/grn_red.png","../images/blu_wht.png","../images/ylw_pnk.png","../images/gry_blk.png","../images/org_blu.png","../images/ylw_slt.png","../images/pnk_blu.png"],"mutagen_generator_assignment":[1,0],"goal":1,"start":6,"action_noise":0.1,"location_history":"[6,7,3,0,4,5,1]","action_history":"[1,1,0,1,1,1]","mutagen_history":"[0,0,1,0,0,0]","location_rts":"[1662,381,1798,891,848,459]","trial_type":"fractal-mutation","trial_index":55,"time_elapsed":1027359,"internal_node_id":"0.0-5.0-1.0"},{"group":"square cycles (cube, non-group)","fractal_assignment":["../images/cyn_red.png","../images/grn_red.png","../images/blu_wht.png","../images/ylw_pnk.png","../images/gry_blk.png","../images/org_blu.png","../images/ylw_slt.png","../images/pnk_blu.png"],"mutagen_generator_assignment":[1,0],"goal":2,"start":1,"action_noise":0.1,"location_history":"[1,0,4,7,6,7,3,2]","action_history":"[1,1,0,1,1,1,1]","mutagen_history":"[0,0,1,0,0,0,0]","location_rts":"[1225,935,269,601,431,342,653]","trial_type":"fractal-mutation","trial_index":56,"time_elapsed":1042720,"internal_node_id":"0.0-5.0-2.0"},{"group":"square cycles (cube, non-group)","fractal_assignment":["../images/cyn_red.png","../images/grn_red.png","../images/blu_wht.png","../images/ylw_pnk.png","../images/gry_blk.png","../images/org_blu.png","../images/ylw_slt.png","../images/pnk_blu.png"],"mutagen_generator_assignment":[1,0],"goal":0,"start":2,"action_noise":0.1,"location_history":"[2,3,2,3,0]","action_history":"[0,1,0,0]","mutagen_history":"[1,0,1,1]","location_rts":"[2998,708,1168,508]","trial_type":"fractal-mutation","trial_index":57,"time_elapsed":1055828,"internal_node_id":"0.0-5.0-3.0"},{"group":"square cycles (cube, non-group)","fractal_assignment":["../images/cyn_red.png","../images/grn_red.png","../images/blu_wht.png","../images/ylw_pnk.png","../images/gry_blk.png","../images/org_blu.png","../images/ylw_slt.png","../images/pnk_blu.png"],"mutagen_generator_assignment":[1,0],"goal":7,"start":0,"action_noise":0.1,"location_history":"[0,1,2,6,7]","action_history":"[1,0,1,1]","mutagen_history":"[0,1,0,0]","location_rts":"[13079,758,996,721]","trial_type":"fractal-mutation","trial_index":58,"time_elapsed":1079037,"internal_node_id":"0.0-5.0-4.0"},{"group":"square cycles (cube, non-group)","fractal_assignment":["../images/cyn_red.png","../images/grn_red.png","../images/blu_wht.png","../images/ylw_pnk.png","../images/gry_blk.png","../images/org_blu.png","../images/ylw_slt.png","../images/pnk_blu.png"],"mutagen_generator_assignment":[1,0],"goal":5,"start":7,"action_noise":0.1,"location_history":"[7,3,2,6,7,3,0,4,5]","action_history":"[1,1,1,1,1,0,1,1]","mutagen_history":"[0,0,0,0,0,1,0,0]","location_rts":"[2150,519,491,409,431,962,498,451]","trial_type":"fractal-mutation","trial_index":59,"time_elapsed":1096729,"internal_node_id":"0.0-5.0-5.0"},{"group":"square cycles (cube, non-group)","fractal_assignment":["../images/cyn_red.png","../images/grn_red.png","../images/blu_wht.png","../images/ylw_pnk.png","../images/gry_blk.png","../images/org_blu.png","../images/ylw_slt.png","../images/pnk_blu.png"],"mutagen_generator_assignment":[1,0],"goal":4,"start":5,"action_noise":0.1,"location_history":"[5,1,0,4]","action_history":"[1,1,1]","mutagen_history":"[0,0,0]","location_rts":"[3217,661,457]","trial_type":"fractal-mutation","trial_index":60,"time_elapsed":1107662,"internal_node_id":"0.0-5.0-6.0"},{"group":"square cycles (cube, non-group)","fractal_assignment":["../images/cyn_red.png","../images/grn_red.png","../images/blu_wht.png","../images/ylw_pnk.png","../images/gry_blk.png","../images/org_blu.png","../images/ylw_slt.png","../images/pnk_blu.png"],"mutagen_generator_assignment":[1,0],"goal":2,"start":4,"action_noise":0.1,"location_history":"[4,7,3,2]","action_history":"[0,1,1]","mutagen_history":"[1,0,0]","location_rts":"[1450,844,445]","trial_type":"fractal-mutation","trial_index":61,"time_elapsed":1117012,"internal_node_id":"0.0-5.0-7.0"},{"group":"square cycles (cube, non-group)","fractal_assignment":["../images/cyn_red.png","../images/grn_red.png","../images/blu_wht.png","../images/ylw_pnk.png","../images/gry_blk.png","../images/org_blu.png","../images/ylw_slt.png","../images/pnk_blu.png"],"mutagen_generator_assignment":[1,0],"goal":3,"start":2,"action_noise":0.1,"location_history":"[2,3]","action_history":"[1]","mutagen_history":"[0]","location_rts":"[1583]","trial_type":"fractal-mutation","trial_index":62,"time_elapsed":1123132,"internal_node_id":"0.0-5.0-8.0"},{"group":"square cycles (cube, non-group)","fractal_assignment":["../images/cyn_red.png","../images/grn_red.png","../images/blu_wht.png","../images/ylw_pnk.png","../images/gry_blk.png","../images/org_blu.png","../images/ylw_slt.png","../images/pnk_blu.png"],"mutagen_generator_assignment":[1,0],"goal":7,"start":3,"action_noise":0.1,"location_history":"[3,0,4,5,1,0,1,2,3,2,6,7]","action_history":"[1,1,0,0,0,0,0,1,1,1,1]","mutagen_history":"[0,0,1,1,1,1,1,0,0,0,0]","location_rts":"[1668,335,576,1665,767,870,2207,923,757,648,685]","trial_type":"fractal-mutation","trial_index":63,"time_elapsed":1149191,"internal_node_id":"0.0-5.0-9.0"},{"group":"square cycles (cube, non-group)","fractal_assignment":["../images/cyn_red.png","../images/grn_red.png","../images/blu_wht.png","../images/ylw_pnk.png","../images/gry_blk.png","../images/org_blu.png","../images/ylw_slt.png","../images/pnk_blu.png"],"mutagen_generator_assignment":[1,0],"goal":0,"start":7,"action_noise":0.1,"location_history":"[7,6,7,6,7,6,5,1,0]","action_history":"[0,0,0,1,0,0,1,1]","mutagen_history":"[1,1,1,0,1,1,0,0]","location_rts":"[1982,895,521,630,496,978,1631,672]","trial_type":"fractal-mutation","trial_index":64,"time_elapsed":1168838,"internal_node_id":"0.0-5.0-10.0"},{"group":"square cycles (cube, non-group)","fractal_assignment":["../images/cyn_red.png","../images/grn_red.png","../images/blu_wht.png","../images/ylw_pnk.png","../images/gry_blk.png","../images/org_blu.png","../images/ylw_slt.png","../images/pnk_blu.png"],"mutagen_generator_assignment":[1,0],"goal":1,"start":0,"action_noise":0.1,"location_history":"[0,4,5,1]","action_history":"[1,1,1]","mutagen_history":"[0,0,0]","location_rts":"[2720,450,524]","trial_type":"fractal-mutation","trial_index":65,"time_elapsed":1179130,"internal_node_id":"0.0-5.0-11.0"},{"group":"square cycles (cube, non-group)","fractal_assignment":["../images/cyn_red.png","../images/grn_red.png","../images/blu_wht.png","../images/ylw_pnk.png","../images/gry_blk.png","../images/org_blu.png","../images/ylw_slt.png","../images/pnk_blu.png"],"mutagen_generator_assignment":[1,0],"goal":6,"start":1,"action_noise":0.1,"location_history":"[1,2,6]","action_history":"[0,1]","mutagen_history":"[1,0]","location_rts":"[4126,725]","trial_type":"fractal-mutation","trial_index":66,"time_elapsed":1189569,"internal_node_id":"0.0-5.0-12.0"},{"group":"square cycles (cube, non-group)","fractal_assignment":["../images/cyn_red.png","../images/grn_red.png","../images/blu_wht.png","../images/ylw_pnk.png","../images/gry_blk.png","../images/org_blu.png","../images/ylw_slt.png","../images/pnk_blu.png"],"mutagen_generator_assignment":[1,0],"goal":4,"start":6,"action_noise":0.1,"location_history":"[6,5,1,0,4]","action_history":"[0,1,1,1]","mutagen_history":"[1,0,0,0]","location_rts":"[4753,804,324,679]","trial_type":"fractal-mutation","trial_index":67,"time_elapsed":1203778,"internal_node_id":"0.0-5.0-13.0"},{"group":"square cycles (cube, non-group)","fractal_assignment":["../images/cyn_red.png","../images/grn_red.png","../images/blu_wht.png","../images/ylw_pnk.png","../images/gry_blk.png","../images/org_blu.png","../images/ylw_slt.png","../images/pnk_blu.png"],"mutagen_generator_assignment":[1,0],"goal":5,"start":4,"action_noise":0.1,"location_history":"[4,5]","action_history":"[1]","mutagen_history":"[0]","location_rts":"[2569]","trial_type":"fractal-mutation","trial_index":68,"time_elapsed":1210882,"internal_node_id":"0.0-5.0-14.0"},{"group":"square cycles (cube, non-group)","fractal_assignment":["../images/cyn_red.png","../images/grn_red.png","../images/blu_wht.png","../images/ylw_pnk.png","../images/gry_blk.png","../images/org_blu.png","../images/ylw_slt.png","../images/pnk_blu.png"],"mutagen_generator_assignment":[1,0],"goal":4,"start":5,"action_noise":0.1,"location_history":"[5,1,0,4]","action_history":"[1,1,1]","mutagen_history":"[0,0,0]","location_rts":"[1546,485,490]","trial_type":"fractal-mutation","trial_index":69,"time_elapsed":1220004,"internal_node_id":"0.0-5.0-15.0"},{"group":"square cycles (cube, non-group)","fractal_assignment":["../images/cyn_red.png","../images/grn_red.png","../images/blu_wht.png","../images/ylw_pnk.png","../images/gry_blk.png","../images/org_blu.png","../images/ylw_slt.png","../images/pnk_blu.png"],"mutagen_generator_assignment":[1,0],"goal":0,"start":4,"action_noise":0.1,"location_history":"[4,7,3,0]","action_history":"[1,1,0]","mutagen_history":"[0,0,1]","location_rts":"[12715,388,1016]","trial_type":"fractal-mutation","trial_index":70,"time_elapsed":1240757,"internal_node_id":"0.0-5.0-16.0"},{"group":"square cycles (cube, non-group)","fractal_assignment":["../images/cyn_red.png","../images/grn_red.png","../images/blu_wht.png","../images/ylw_pnk.png","../images/gry_blk.png","../images/org_blu.png","../images/ylw_slt.png","../images/pnk_blu.png"],"mutagen_generator_assignment":[1,0],"goal":7,"start":0,"action_noise":0.1,"location_history":"[0,1,2,6,7]","action_history":"[0,0,1,1]","mutagen_history":"[1,1,0,0]","location_rts":"[2625,2199,615,10345]","trial_type":"fractal-mutation","trial_index":71,"time_elapsed":1264223,"internal_node_id":"0.0-5.0-17.0"},{"group":"square cycles (cube, non-group)","fractal_assignment":["../images/cyn_red.png","../images/grn_red.png","../images/blu_wht.png","../images/ylw_pnk.png","../images/gry_blk.png","../images/org_blu.png","../images/ylw_slt.png","../images/pnk_blu.png"],"mutagen_generator_assignment":[1,0],"goal":2,"start":7,"action_noise":0.1,"location_history":"[7,3,2]","action_history":"[1,1]","mutagen_history":"[0,0]","location_rts":"[4710,2170]","trial_type":"fractal-mutation","trial_index":72,"time_elapsed":1276673,"internal_node_id":"0.0-5.0-18.0"},{"group":"square cycles (cube, non-group)","fractal_assignment":["../images/cyn_red.png","../images/grn_red.png","../images/blu_wht.png","../images/ylw_pnk.png","../images/gry_blk.png","../images/org_blu.png","../images/ylw_slt.png","../images/pnk_blu.png"],"mutagen_generator_assignment":[1,0],"goal":1,"start":2,"action_noise":0.1,"location_history":"[2,3,0,1]","action_history":"[0,0,1]","mutagen_history":"[1,1,0]","location_rts":"[4627,1490,1728]","trial_type":"fractal-mutation","trial_index":73,"time_elapsed":1291139,"internal_node_id":"0.0-5.0-19.0"},{"group":"square cycles (cube, non-group)","fractal_assignment":["../images/cyn_red.png","../images/grn_red.png","../images/blu_wht.png","../images/ylw_pnk.png","../images/gry_blk.png","../images/org_blu.png","../images/ylw_slt.png","../images/pnk_blu.png"],"mutagen_generator_assignment":[1,0],"goal":3,"start":1,"action_noise":0.1,"location_history":"[1,2,3]","action_history":"[0,0]","mutagen_history":"[1,1]","location_rts":"[1171,973]","trial_type":"fractal-mutation","trial_index":74,"time_elapsed":1298900,"internal_node_id":"0.0-5.0-20.0"},{"group":"square cycles (cube, non-group)","fractal_assignment":["../images/cyn_red.png","../images/grn_red.png","../images/blu_wht.png","../images/ylw_pnk.png","../images/gry_blk.png","../images/org_blu.png","../images/ylw_slt.png","../images/pnk_blu.png"],"mutagen_generator_assignment":[1,0],"goal":6,"start":3,"action_noise":0.1,"location_history":"[3,2,6]","action_history":"[1,1]","mutagen_history":"[0,0]","location_rts":"[3673,561]","trial_type":"fractal-mutation","trial_index":75,"time_elapsed":1308704,"internal_node_id":"0.0-5.0-21.0"},{"group":"square cycles (cube, non-group)","fractal_assignment":["../images/cyn_red.png","../images/grn_red.png","../images/blu_wht.png","../images/ylw_pnk.png","../images/gry_blk.png","../images/org_blu.png","../images/ylw_slt.png","../images/pnk_blu.png"],"mutagen_generator_assignment":[1,0],"goal":5,"start":6,"action_noise":0.1,"location_history":"[6,5]","action_history":"[0]","mutagen_history":"[1]","location_rts":"[1538]","trial_type":"fractal-mutation","trial_index":76,"time_elapsed":1314806,"internal_node_id":"0.0-5.0-22.0"},{"group":"square cycles (cube, non-group)","fractal_assignment":["../images/cyn_red.png","../images/grn_red.png","../images/blu_wht.png","../images/ylw_pnk.png","../images/gry_blk.png","../images/org_blu.png","../images/ylw_slt.png","../images/pnk_blu.png"],"mutagen_generator_assignment":[1,0],"goal":3,"start":5,"action_noise":0.1,"location_history":"[5,4,7,6,7,3]","action_history":"[0,0,1,1,1]","mutagen_history":"[1,1,0,0,0]","location_rts":"[1746,513,1054,474,667]","trial_type":"fractal-mutation","trial_index":77,"time_elapsed":1328164,"internal_node_id":"0.0-5.0-23.0"},{"group":"square cycles (cube, non-group)","fractal_assignment":["../images/cyn_red.png","../images/grn_red.png","../images/blu_wht.png","../images/ylw_pnk.png","../images/gry_blk.png","../images/org_blu.png","../images/ylw_slt.png","../images/pnk_blu.png"],"mutagen_generator_assignment":[1,0],"goal":0,"start":3,"action_noise":0.1,"location_history":"[3,0]","action_history":"[0]","mutagen_history":"[1]","location_rts":"[1560]","trial_type":"fractal-mutation","trial_index":78,"time_elapsed":1334303,"internal_node_id":"0.0-5.0-24.0"},{"group":"square cycles (cube, non-group)","fractal_assignment":["../images/cyn_red.png","../images/grn_red.png","../images/blu_wht.png","../images/ylw_pnk.png","../images/gry_blk.png","../images/org_blu.png","../images/ylw_slt.png","../images/pnk_blu.png"],"mutagen_generator_assignment":[1,0],"goal":7,"start":0,"action_noise":0.1,"location_history":"[0,1,2,3,2,6,7]","action_history":"[0,0,1,1,1,1]","mutagen_history":"[1,1,0,0,0,0]","location_rts":"[1395,1051,808,516,699,817]","trial_type":"fractal-mutation","trial_index":79,"time_elapsed":1349436,"internal_node_id":"0.0-5.0-25.0"},{"group":"square cycles (cube, non-group)","fractal_assignment":["../images/cyn_red.png","../images/grn_red.png","../images/blu_wht.png","../images/ylw_pnk.png","../images/gry_blk.png","../images/org_blu.png","../images/ylw_slt.png","../images/pnk_blu.png"],"mutagen_generator_assignment":[1,0],"goal":2,"start":7,"action_noise":0.1,"location_history":"[7,3,2]","action_history":"[1,1]","mutagen_history":"[0,0]","location_rts":"[2767,556]","trial_type":"fractal-mutation","trial_index":80,"time_elapsed":1358328,"internal_node_id":"0.0-5.0-26.0"},{"group":"square cycles (cube, non-group)","fractal_assignment":["../images/cyn_red.png","../images/grn_red.png","../images/blu_wht.png","../images/ylw_pnk.png","../images/gry_blk.png","../images/org_blu.png","../images/ylw_slt.png","../images/pnk_blu.png"],"mutagen_generator_assignment":[1,0],"goal":1,"start":2,"action_noise":0.1,"location_history":"[2,3,0,4,5,1]","action_history":"[0,0,1,1,1]","mutagen_history":"[1,1,0,0,0]","location_rts":"[9328,433,657,316,419]","trial_type":"fractal-mutation","trial_index":81,"time_elapsed":1378240,"internal_node_id":"0.0-5.0-27.0"},{"group":"square cycles (cube, non-group)","fractal_assignment":["../images/cyn_red.png","../images/grn_red.png","../images/blu_wht.png","../images/ylw_pnk.png","../images/gry_blk.png","../images/org_blu.png","../images/ylw_slt.png","../images/pnk_blu.png"],"mutagen_generator_assignment":[1,0],"goal":5,"start":1,"action_noise":0.1,"location_history":"[1,0,4,5]","action_history":"[1,1,1]","mutagen_history":"[0,0,0]","location_rts":"[1679,836,422]","trial_type":"fractal-mutation","trial_index":82,"time_elapsed":1387778,"internal_node_id":"0.0-5.0-28.0"},{"group":"square cycles (cube, non-group)","fractal_assignment":["../images/cyn_red.png","../images/grn_red.png","../images/blu_wht.png","../images/ylw_pnk.png","../images/gry_blk.png","../images/org_blu.png","../images/ylw_slt.png","../images/pnk_blu.png"],"mutagen_generator_assignment":[1,0],"goal":4,"start":5,"action_noise":0.1,"location_history":"[5,1,0,1,0,4]","action_history":"[1,1,1,1,1]","mutagen_history":"[0,0,0,0,0]","location_rts":"[2245,490,331,578,707]","trial_type":"fractal-mutation","trial_index":83,"time_elapsed":1400809,"internal_node_id":"0.0-5.0-29.0"},{"group":"square cycles (cube, non-group)","fractal_assignment":["../images/cyn_red.png","../images/grn_red.png","../images/blu_wht.png","../images/ylw_pnk.png","../images/gry_blk.png","../images/org_blu.png","../images/ylw_slt.png","../images/pnk_blu.png"],"mutagen_generator_assignment":[1,0],"goal":6,"start":4,"action_noise":0.1,"location_history":"[4,7,3,2,6]","action_history":"[0,1,1,1]","mutagen_history":"[1,0,0,0]","location_rts":"[2116,793,663,445]","trial_type":"fractal-mutation","trial_index":84,"time_elapsed":1412475,"internal_node_id":"0.0-5.0-30.0"},{"group":"square cycles (cube, non-group)","fractal_assignment":["../images/cyn_red.png","../images/grn_red.png","../images/blu_wht.png","../images/ylw_pnk.png","../images/gry_blk.png","../images/org_blu.png","../images/ylw_slt.png","../images/pnk_blu.png"],"mutagen_generator_assignment":[1,0],"goal":4,"start":6,"action_noise":0.1,"location_history":"[6,5,4]","action_history":"[0,0]","mutagen_history":"[1,1]","location_rts":"[1754,1412]","trial_type":"fractal-mutation","trial_index":85,"time_elapsed":1421246,"internal_node_id":"0.0-5.0-31.0"},{"group":"square cycles (cube, non-group)","fractal_assignment":["../images/cyn_red.png","../images/grn_red.png","../images/blu_wht.png","../images/ylw_pnk.png","../images/gry_blk.png","../images/org_blu.png","../images/ylw_slt.png","../images/pnk_blu.png"],"mutagen_generator_assignment":[1,0],"goal":2,"start":4,"action_noise":0.1,"location_history":"[4,7,3,2]","action_history":"[0,1,1]","mutagen_history":"[1,0,0]","location_rts":"[12587,1094,431]","trial_type":"fractal-mutation","trial_index":86,"time_elapsed":1441971,"internal_node_id":"0.0-5.0-32.0"},{"group":"square cycles (cube, non-group)","fractal_assignment":["../images/cyn_red.png","../images/grn_red.png","../images/blu_wht.png","../images/ylw_pnk.png","../images/gry_blk.png","../images/org_blu.png","../images/ylw_slt.png","../images/pnk_blu.png"],"mutagen_generator_assignment":[1,0],"goal":0,"start":2,"action_noise":0.1,"location_history":"[2,3,2,3,0]","action_history":"[0,1,0,0]","mutagen_history":"[1,0,1,1]","location_rts":"[2953,1093,617,524]","trial_type":"fractal-mutation","trial_index":87,"time_elapsed":1454867,"internal_node_id":"0.0-5.0-33.0"},{"group":"square cycles (cube, non-group)","fractal_assignment":["../images/cyn_red.png","../images/grn_red.png","../images/blu_wht.png","../images/ylw_pnk.png","../images/gry_blk.png","../images/org_blu.png","../images/ylw_slt.png","../images/pnk_blu.png"],"mutagen_generator_assignment":[1,0],"goal":5,"start":0,"action_noise":0.1,"location_history":"[0,4,7,6,5]","action_history":"[1,1,0,0]","mutagen_history":"[0,0,1,1]","location_rts":"[2156,394,1524,998]","trial_type":"fractal-mutation","trial_index":88,"time_elapsed":1467602,"internal_node_id":"0.0-5.0-34.0"},{"group":"square cycles (cube, non-group)","fractal_assignment":["../images/cyn_red.png","../images/grn_red.png","../images/blu_wht.png","../images/ylw_pnk.png","../images/gry_blk.png","../images/org_blu.png","../images/ylw_slt.png","../images/pnk_blu.png"],"mutagen_generator_assignment":[1,0],"goal":1,"start":5,"action_noise":0.1,"location_history":"[5,1]","action_history":"[1]","mutagen_history":"[0]","location_rts":"[1772]","trial_type":"fractal-mutation","trial_index":89,"time_elapsed":1473910,"internal_node_id":"0.0-5.0-35.0"},{"group":"square cycles (cube, non-group)","fractal_assignment":["../images/cyn_red.png","../images/grn_red.png","../images/blu_wht.png","../images/ylw_pnk.png","../images/gry_blk.png","../images/org_blu.png","../images/ylw_slt.png","../images/pnk_blu.png"],"mutagen_generator_assignment":[1,0],"goal":7,"start":1,"action_noise":0.1,"location_history":"[1,2,6,7]","action_history":"[0,1,1]","mutagen_history":"[1,0,0]","location_rts":"[2608,1494,604]","trial_type":"fractal-mutation","trial_index":90,"time_elapsed":1485228,"internal_node_id":"0.0-5.0-36.0"},{"group":"square cycles (cube, non-group)","fractal_assignment":["../images/cyn_red.png","../images/grn_red.png","../images/blu_wht.png","../images/ylw_pnk.png","../images/gry_blk.png","../images/org_blu.png","../images/ylw_slt.png","../images/pnk_blu.png"],"mutagen_generator_assignment":[1,0],"goal":3,"start":7,"action_noise":0.1,"location_history":"[7,3]","action_history":"[1]","mutagen_history":"[0]","location_rts":"[1279]","trial_type":"fractal-mutation","trial_index":91,"time_elapsed":1491044,"internal_node_id":"0.0-5.0-37.0"},{"group":"square cycles (cube, non-group)","fractal_assignment":["../images/cyn_red.png","../images/grn_red.png","../images/blu_wht.png","../images/ylw_pnk.png","../images/gry_blk.png","../images/org_blu.png","../images/ylw_slt.png","../images/pnk_blu.png"],"mutagen_generator_assignment":[1,0],"goal":6,"start":3,"action_noise":0.1,"location_history":"[3,2,3,2,6]","action_history":"[1,1,1,1]","mutagen_history":"[0,0,0,0]","location_rts":"[1449,502,436,465]","trial_type":"fractal-mutation","trial_index":92,"time_elapsed":1501539,"internal_node_id":"0.0-5.0-38.0"},{"group":"square cycles (cube, non-group)","fractal_assignment":["../images/cyn_red.png","../images/grn_red.png","../images/blu_wht.png","../images/ylw_pnk.png","../images/gry_blk.png","../images/org_blu.png","../images/ylw_slt.png","../images/pnk_blu.png"],"mutagen_generator_assignment":[1,0],"goal":2,"start":6,"action_noise":0.1,"location_history":"[6,7,3,2]","action_history":"[1,1,1]","mutagen_history":"[0,0,0]","location_rts":"[1228,304,290]","trial_type":"fractal-mutation","trial_index":93,"time_elapsed":1509960,"internal_node_id":"0.0-5.0-39.0"},{"group":"square cycles (cube, non-group)","fractal_assignment":["../images/cyn_red.png","../images/grn_red.png","../images/blu_wht.png","../images/ylw_pnk.png","../images/gry_blk.png","../images/org_blu.png","../images/ylw_slt.png","../images/pnk_blu.png"],"mutagen_generator_assignment":[1,0],"goal":1,"start":2,"action_noise":0.1,"location_history":"[2,3,0,4,5,1]","action_history":"[0,0,1,1,1]","mutagen_history":"[1,1,0,0,0]","location_rts":"[1671,983,629,369,404]","trial_type":"fractal-mutation","trial_index":94,"time_elapsed":1522720,"internal_node_id":"0.0-5.0-40.0"},{"group":"square cycles (cube, non-group)","fractal_assignment":["../images/cyn_red.png","../images/grn_red.png","../images/blu_wht.png","../images/ylw_pnk.png","../images/gry_blk.png","../images/org_blu.png","../images/ylw_slt.png","../images/pnk_blu.png"],"mutagen_generator_assignment":[1,0],"goal":0,"start":1,"action_noise":0.1,"location_history":"[1,2,3,0]","action_history":"[0,0,0]","mutagen_history":"[1,1,1]","location_rts":"[14044,797,1864]","trial_type":"fractal-mutation","trial_index":95,"time_elapsed":1546099,"internal_node_id":"0.0-5.0-41.0"},{"group":"square cycles (cube, non-group)","fractal_assignment":["../images/cyn_red.png","../images/grn_red.png","../images/blu_wht.png","../images/ylw_pnk.png","../images/gry_blk.png","../images/org_blu.png","../images/ylw_slt.png","../images/pnk_blu.png"],"mutagen_generator_assignment":[1,0],"goal":4,"start":0,"action_noise":0.1,"location_history":"[0,4]","action_history":"[1]","mutagen_history":"[0]","location_rts":"[2050]","trial_type":"fractal-mutation","trial_index":96,"time_elapsed":1552685,"internal_node_id":"0.0-5.0-42.0"},{"group":"square cycles (cube, non-group)","fractal_assignment":["../images/cyn_red.png","../images/grn_red.png","../images/blu_wht.png","../images/ylw_pnk.png","../images/gry_blk.png","../images/org_blu.png","../images/ylw_slt.png","../images/pnk_blu.png"],"mutagen_generator_assignment":[1,0],"goal":6,"start":4,"action_noise":0.1,"location_history":"[4,7,3,2,6]","action_history":"[0,1,1,1]","mutagen_history":"[1,0,0,0]","location_rts":"[2149,649,1247,592]","trial_type":"fractal-mutation","trial_index":97,"time_elapsed":1565014,"internal_node_id":"0.0-5.0-43.0"},{"group":"square cycles (cube, non-group)","fractal_assignment":["../images/cyn_red.png","../images/grn_red.png","../images/blu_wht.png","../images/ylw_pnk.png","../images/gry_blk.png","../images/org_blu.png","../images/ylw_slt.png","../images/pnk_blu.png"],"mutagen_generator_assignment":[1,0],"goal":3,"start":6,"action_noise":0.1,"location_history":"[6,5,1,0,4,5,1,2,6,7,3]","action_history":"[1,1,1,1,1,1,0,1,1,1]","mutagen_history":"[0,0,0,0,0,0,1,0,0,0]","location_rts":"[1164,350,432,514,667,505,666,602,397,433]","trial_type":"fractal-mutation","trial_index":98,"time_elapsed":1584591,"internal_node_id":"0.0-5.0-44.0"},{"group":"square cycles (cube, non-group)","fractal_assignment":["../images/cyn_red.png","../images/grn_red.png","../images/blu_wht.png","../images/ylw_pnk.png","../images/gry_blk.png","../images/org_blu.png","../images/ylw_slt.png","../images/pnk_blu.png"],"mutagen_generator_assignment":[1,0],"goal":7,"start":3,"action_noise":0.1,"location_history":"[3,2,6,7]","action_history":"[1,1,1]","mutagen_history":"[0,0,0]","location_rts":"[1691,509,478]","trial_type":"fractal-mutation","trial_index":99,"time_elapsed":1593869,"internal_node_id":"0.0-5.0-45.0"},{"group":"square cycles (cube, non-group)","fractal_assignment":["../images/cyn_red.png","../images/grn_red.png","../images/blu_wht.png","../images/ylw_pnk.png","../images/gry_blk.png","../images/org_blu.png","../images/ylw_slt.png","../images/pnk_blu.png"],"mutagen_generator_assignment":[1,0],"goal":5,"start":7,"action_noise":0.1,"location_history":"[7,6,5]","action_history":"[0,0]","mutagen_history":"[1,1]","location_rts":"[1179,699]","trial_type":"fractal-mutation","trial_index":100,"time_elapsed":1601346,"internal_node_id":"0.0-5.0-46.0"},{"group":"square cycles (cube, non-group)","fractal_assignment":["../images/cyn_red.png","../images/grn_red.png","../images/blu_wht.png","../images/ylw_pnk.png","../images/gry_blk.png","../images/org_blu.png","../images/ylw_slt.png","../images/pnk_blu.png"],"mutagen_generator_assignment":[1,0],"goal":1,"start":5,"action_noise":0.1,"location_history":"[5,4,5,1]","action_history":"[0,0,1]","mutagen_history":"[1,1,0]","location_rts":"[1220,786,1671]","trial_type":"fractal-mutation","trial_index":101,"time_elapsed":1611655,"internal_node_id":"0.0-5.0-47.0"},{"group":"square cycles (cube, non-group)","fractal_assignment":["../images/cyn_red.png","../images/grn_red.png","../images/blu_wht.png","../images/ylw_pnk.png","../images/gry_blk.png","../images/org_blu.png","../images/ylw_slt.png","../images/pnk_blu.png"],"mutagen_generator_assignment":[1,0],"goal":6,"start":1,"action_noise":0.1,"location_history":"[1,2,6]","action_history":"[0,1]","mutagen_history":"[1,0]","location_rts":"[2220,649]","trial_type":"fractal-mutation","trial_index":102,"time_elapsed":1620109,"internal_node_id":"0.0-5.0-48.0"},{"group":"square cycles (cube, non-group)","fractal_assignment":["../images/cyn_red.png","../images/grn_red.png","../images/blu_wht.png","../images/ylw_pnk.png","../images/gry_blk.png","../images/org_blu.png","../images/ylw_slt.png","../images/pnk_blu.png"],"mutagen_generator_assignment":[1,0],"goal":0,"start":6,"action_noise":0.1,"location_history":"[6,5,1,0]","action_history":"[0,1,1]","mutagen_history":"[1,0,0]","location_rts":"[1183,770,310]","trial_type":"fractal-mutation","trial_index":103,"time_elapsed":1628985,"internal_node_id":"0.0-5.0-49.0"},{"view_history":"[{\"page_index\":0,\"viewing_time\":5900}]","rt":5901,"trial_type":"instructions","trial_index":104,"time_elapsed":1635885,"internal_node_id":"0.0-6.0"},{"rt":5943,"responses":"{\"Q0\":\"nope\"}","trial_type":"survey-text","trial_index":105,"time_elapsed":1642838,"internal_node_id":"0.0-7.0"}]