[{"view_history":"[{\"page_index\":0,\"viewing_time\":53197},{\"page_index\":1,\"viewing_time\":25936}]","rt":79134,"trial_type":"instructions","trial_index":0,"time_elapsed":79136,"internal_node_id":"0.0-0.0"},{"view_history":"[{\"page_index\":0,\"viewing_time\":3298},{\"page_index\":1,\"viewing_time\":10325}]","rt":13624,"trial_type":"instructions","trial_index":1,"time_elapsed":93762,"internal_node_id":"0.0-1.0"},{"group":"square cycles (cube, non-group)","room_assignment":["yellow","grey","green","purple","blue","red","brown","pink"],"door_color_assignment":["black","white"],"door_generator_assignment":[0,1],"goal":6,"start":3,"action_noise":0.1,"location_history":"[3,0,1,2,6]","action_history":"[0,0,0,1]","door_history":"[0,0,0,1]","location_rts":"[1422,440,416,739]","trial_type":"two-door-navigation","trial_index":2,"time_elapsed":104418,"internal_node_id":"0.0-2.0-0.0"},{"group":"square cycles (cube, non-group)","room_assignment":["yellow","grey","green","purple","blue","red","brown","pink"],"door_color_assignment":["black","white"],"door_generator_assignment":[0,1],"goal":1,"start":6,"action_noise":0.1,"location_history":"[6,7,6,5,4,7,6,5,4,7,3,2,6,7,3,0,1]","action_history":"[1,0,0,0,0,0,0,0,0,1,1,1,1,1,0,0]","door_history":"[1,0,0,0,0,0,0,0,0,1,1,1,1,1,0,0]","location_rts":"[572,1467,354,257,275,405,253,312,317,648,284,272,446,423,839,322]","trial_type":"two-door-navigation","trial_index":3,"time_elapsed":131984,"internal_node_id":"0.0-2.0-1.0"},{"group":"square cycles (cube, non-group)","room_assignment":["yellow","grey","green","purple","blue","red","brown","pink"],"door_color_assignment":["black","white"],"door_generator_assignment":[0,1],"goal":2,"start":1,"action_noise":0.1,"location_history":"[1,0,1,2]","action_history":"[0,0,0]","door_history":"[0,0,0]","location_rts":"[598,284,224]","trial_type":"two-door-navigation","trial_index":4,"time_elapsed":139693,"internal_node_id":"0.0-2.0-2.0"},{"group":"square cycles (cube, non-group)","room_assignment":["yellow","grey","green","purple","blue","red","brown","pink"],"door_color_assignment":["black","white"],"door_generator_assignment":[0,1],"goal":0,"start":2,"action_noise":0.1,"location_history":"[2,3,2,6,7,3,2,6,5,4,5,1,0]","action_history":"[0,0,1,1,1,1,1,0,0,1,1,1]","door_history":"[0,0,1,1,1,1,1,0,0,1,1,1]","location_rts":"[223,285,196,237,214,192,334,226,241,116,242,163]","trial_type":"two-door-navigation","trial_index":5,"time_elapsed":158239,"internal_node_id":"0.0-2.0-3.0"},{"group":"square cycles (cube, non-group)","room_assignment":["yellow","grey","green","purple","blue","red","brown","pink"],"door_color_assignment":["black","white"],"door_generator_assignment":[0,1],"goal":7,"start":0,"action_noise":0.1,"location_history":"[0,4,7]","action_history":"[1,0]","door_history":"[1,0]","location_rts":"[551,799]","trial_type":"two-door-navigation","trial_index":6,"time_elapsed":165144,"internal_node_id":"0.0-2.0-4.0"},{"group":"square cycles (cube, non-group)","room_assignment":["yellow","grey","green","purple","blue","red","brown","pink"],"door_color_assignment":["black","white"],"door_generator_assignment":[0,1],"goal":5,"start":7,"action_noise":0.1,"location_history":"[7,6,5]","action_history":"[0,0]","door_history":"[0,0]","location_rts":"[911,1512]","trial_type":"two-door-navigation","trial_index":7,"time_elapsed":173121,"internal_node_id":"0.0-2.0-5.0"},{"group":"square cycles (cube, non-group)","room_assignment":["yellow","grey","green","purple","blue","red","brown","pink"],"door_color_assignment":["black","white"],"door_generator_assignment":[0,1],"goal":4,"start":5,"action_noise":0.1,"location_history":"[5,1,0,4]","action_history":"[0,1,1]","door_history":"[0,1,1]","location_rts":"[229,1295,171]","trial_type":"two-door-navigation","trial_index":8,"time_elapsed":181407,"internal_node_id":"0.0-2.0-6.0"},{"group":"square cycles (cube, non-group)","room_assignment":["yellow","grey","green","purple","blue","red","brown","pink"],"door_color_assignment":["black","white"],"door_generator_assignment":[0,1],"goal":2,"start":4,"action_noise":0.1,"location_history":"[4,5,4,5,4,7,6,5,4,7,3,2]","action_history":"[0,0,0,0,0,0,0,0,0,1,1]","door_history":"[0,0,0,0,0,0,0,0,0,1,1]","location_rts":"[235,240,82,231,216,147,277,209,237,476,221]","trial_type":"two-door-navigation","trial_index":9,"time_elapsed":198853,"internal_node_id":"0.0-2.0-7.0"},{"group":"square cycles (cube, non-group)","room_assignment":["yellow","grey","green","purple","blue","red","brown","pink"],"door_color_assignment":["black","white"],"door_generator_assignment":[0,1],"goal":3,"start":2,"action_noise":0.1,"location_history":"[2,3]","action_history":"[0]","door_history":"[0]","location_rts":"[965]","trial_type":"two-door-navigation","trial_index":10,"time_elapsed":204339,"internal_node_id":"0.0-2.0-8.0"},{"group":"square cycles (cube, non-group)","room_assignment":["yellow","grey","green","purple","blue","red","brown","pink"],"door_color_assignment":["black","white"],"door_generator_assignment":[0,1],"goal":7,"start":3,"action_noise":0.1,"location_history":"[3,0,4,5,1,2,3,2,3,2,6,7]","action_history":"[0,1,1,0,0,0,1,0,1,1,1]","door_history":"[0,1,1,0,0,0,1,0,1,1,1]","location_rts":"[1102,204,308,290,230,285,688,361,160,125,270]","trial_type":"two-door-navigation","trial_index":11,"time_elapsed":223206,"internal_node_id":"0.0-2.0-9.0"},{"group":"square cycles (cube, non-group)","room_assignment":["yellow","grey","green","purple","blue","red","brown","pink"],"door_color_assignment":["black","white"],"door_generator_assignment":[0,1],"goal":0,"start":7,"action_noise":0.1,"location_history":"[7,3,0]","action_history":"[1,0]","door_history":"[1,0]","location_rts":"[806,306]","trial_type":"two-door-navigation","trial_index":12,"time_elapsed":229885,"internal_node_id":"0.0-2.0-10.0"},{"group":"square cycles (cube, non-group)","room_assignment":["yellow","grey","green","purple","blue","red","brown","pink"],"door_color_assignment":["black","white"],"door_generator_assignment":[0,1],"goal":1,"start":0,"action_noise":0.1,"location_history":"[0,1]","action_history":"[0]","door_history":"[0]","location_rts":"[390]","trial_type":"two-door-navigation","trial_index":13,"time_elapsed":234801,"internal_node_id":"0.0-2.0-11.0"},{"group":"square cycles (cube, non-group)","room_assignment":["yellow","grey","green","purple","blue","red","brown","pink"],"door_color_assignment":["black","white"],"door_generator_assignment":[0,1],"goal":6,"start":1,"action_noise":0.1,"location_history":"[1,2,3,0,1,0,1,2,3,2,3,0,1,0,1,2,3,0,1,2,3,0,1,0,1,0,1,2,3,0,1,2,6]","action_history":"[0,1,0,0,0,0,0,0,1,0,0,0,1,0,0,0,0,0,0,0,0,1,1,0,1,0,0,0,0,0,0,1]","door_history":"[0,1,0,0,0,0,0,0,1,0,0,0,1,0,0,0,0,0,0,0,0,1,1,0,1,0,0,0,0,0,0,1]","location_rts":"[792,290,198,165,161,115,187,2930,541,167,111,165,251,163,218,55,237,233,260,299,632,478,278,258,447,569,290,237,313,304,492,263]","trial_type":"two-door-navigation","trial_index":14,"time_elapsed":283453,"internal_node_id":"0.0-2.0-12.0"},{"group":"square cycles (cube, non-group)","room_assignment":["yellow","grey","green","purple","blue","red","brown","pink"],"door_color_assignment":["black","white"],"door_generator_assignment":[0,1],"goal":4,"start":6,"action_noise":0.1,"location_history":"[6,5,1,2,3,0,4]","action_history":"[0,1,0,0,0,0]","door_history":"[0,1,0,0,0,0]","location_rts":"[888,221,385,169,323,267]","trial_type":"two-door-navigation","trial_index":15,"time_elapsed":295399,"internal_node_id":"0.0-2.0-13.0"},{"group":"square cycles (cube, non-group)","room_assignment":["yellow","grey","green","purple","blue","red","brown","pink"],"door_color_assignment":["black","white"],"door_generator_assignment":[0,1],"goal":5,"start":4,"action_noise":0.1,"location_history":"[4,7,6,5]","action_history":"[0,0,0]","door_history":"[0,0,0]","location_rts":"[220,625,204]","trial_type":"two-door-navigation","trial_index":16,"time_elapsed":303062,"internal_node_id":"0.0-2.0-14.0"},{"group":"square cycles (cube, non-group)","room_assignment":["yellow","grey","green","purple","blue","red","brown","pink"],"door_color_assignment":["black","white"],"door_generator_assignment":[0,1],"goal":4,"start":5,"action_noise":0.1,"location_history":"[5,4]","action_history":"[0]","door_history":"[0]","location_rts":"[523]","trial_type":"two-door-navigation","trial_index":17,"time_elapsed":308114,"internal_node_id":"0.0-2.0-15.0"},{"group":"square cycles (cube, non-group)","room_assignment":["yellow","grey","green","purple","blue","red","brown","pink"],"door_color_assignment":["black","white"],"door_generator_assignment":[0,1],"goal":0,"start":4,"action_noise":0.1,"location_history":"[4,5,4,7,6,5,4,7,6,5,4,5,4,7,6,5,4,5,4,7,6,5,4,5,1,0]","action_history":"[0,0,0,0,0,1,0,0,0,0,1,0,0,0,0,0,1,0,0,0,0,0,1,1,1]","door_history":"[0,0,0,0,0,1,0,0,0,0,1,0,0,0,0,0,1,0,0,0,0,0,1,1,1]","location_rts":"[259,258,143,12,205,409,52,204,238,269,293,209,233,246,324,352,263,224,440,387,283,285,62,287,256]","trial_type":"two-door-navigation","trial_index":18,"time_elapsed":343579,"internal_node_id":"0.0-2.0-16.0"},{"group":"square cycles (cube, non-group)","room_assignment":["yellow","grey","green","purple","blue","red","brown","pink"],"door_color_assignment":["black","white"],"door_generator_assignment":[0,1],"goal":7,"start":0,"action_noise":0.1,"location_history":"[0,4,7]","action_history":"[1,0]","door_history":"[1,0]","location_rts":"[894,238]","trial_type":"two-door-navigation","trial_index":19,"time_elapsed":350280,"internal_node_id":"0.0-2.0-17.0"},{"group":"square cycles (cube, non-group)","room_assignment":["yellow","grey","green","purple","blue","red","brown","pink"],"door_color_assignment":["black","white"],"door_generator_assignment":[0,1],"goal":2,"start":7,"action_noise":0.1,"location_history":"[7,6,7,6,7,6,7,3,2]","action_history":"[0,1,0,0,0,0,1,1]","door_history":"[0,1,0,0,0,0,1,1]","location_rts":"[624,973,435,155,223,272,248,195]","trial_type":"two-door-navigation","trial_index":20,"time_elapsed":365131,"internal_node_id":"0.0-2.0-18.0"},{"group":"square cycles (cube, non-group)","room_assignment":["yellow","grey","green","purple","blue","red","brown","pink"],"door_color_assignment":["black","white"],"door_generator_assignment":[0,1],"goal":1,"start":2,"action_noise":0.1,"location_history":"[2,3,0,1]","action_history":"[0,0,0]","door_history":"[0,0,0]","location_rts":"[205,382,498]","trial_type":"two-door-navigation","trial_index":21,"time_elapsed":372828,"internal_node_id":"0.0-2.0-19.0"},{"group":"square cycles (cube, non-group)","room_assignment":["yellow","grey","green","purple","blue","red","brown","pink"],"door_color_assignment":["black","white"],"door_generator_assignment":[0,1],"goal":3,"start":1,"action_noise":0.1,"location_history":"[1,2,3]","action_history":"[0,0]","door_history":"[0,0]","location_rts":"[214,133]","trial_type":"two-door-navigation","trial_index":22,"time_elapsed":378752,"internal_node_id":"0.0-2.0-20.0"},{"group":"square cycles (cube, non-group)","room_assignment":["yellow","grey","green","purple","blue","red","brown","pink"],"door_color_assignment":["black","white"],"door_generator_assignment":[0,1],"goal":6,"start":3,"action_noise":0.1,"location_history":"[3,0,4,5,1,0,1,2,3,0,1,2,3,2,6]","action_history":"[0,1,1,1,1,0,0,0,0,0,0,0,1,1]","door_history":"[0,1,1,1,1,0,0,0,0,0,0,0,1,1]","location_rts":"[755,473,255,277,752,446,270,234,207,206,109,59,416,213]","trial_type":"two-door-navigation","trial_index":23,"time_elapsed":401337,"internal_node_id":"0.0-2.0-21.0"},{"group":"square cycles (cube, non-group)","room_assignment":["yellow","grey","green","purple","blue","red","brown","pink"],"door_color_assignment":["black","white"],"door_generator_assignment":[0,1],"goal":5,"start":6,"action_noise":0.1,"location_history":"[6,7,3,0,1,2,3,2,6,5]","action_history":"[0,1,0,0,0,0,0,1,0]","door_history":"[0,1,0,0,0,0,0,1,0]","location_rts":"[1419,1129,205,257,235,802,330,494,11]","trial_type":"two-door-navigation","trial_index":24,"time_elapsed":418981,"internal_node_id":"0.0-2.0-22.0"},{"group":"square cycles (cube, non-group)","room_assignment":["yellow","grey","green","purple","blue","red","brown","pink"],"door_color_assignment":["black","white"],"door_generator_assignment":[0,1],"goal":3,"start":5,"action_noise":0.1,"location_history":"[5,1,2,3]","action_history":"[0,0,0]","door_history":"[0,0,0]","location_rts":"[1067,438,264]","trial_type":"two-door-navigation","trial_index":25,"time_elapsed":427327,"internal_node_id":"0.0-2.0-23.0"},{"group":"square cycles (cube, non-group)","room_assignment":["yellow","grey","green","purple","blue","red","brown","pink"],"door_color_assignment":["black","white"],"door_generator_assignment":[0,1],"goal":0,"start":3,"action_noise":0.1,"location_history":"[3,0]","action_history":"[0]","door_history":"[0]","location_rts":"[529]","trial_type":"two-door-navigation","trial_index":26,"time_elapsed":432399,"internal_node_id":"0.0-2.0-24.0"},{"group":"square cycles (cube, non-group)","room_assignment":["yellow","grey","green","purple","blue","red","brown","pink"],"door_color_assignment":["black","white"],"door_generator_assignment":[0,1],"goal":7,"start":0,"action_noise":0.1,"location_history":"[0,1,0,4,7]","action_history":"[0,1,0,0]","door_history":"[0,1,0,0]","location_rts":"[485,88,160,141]","trial_type":"two-door-navigation","trial_index":27,"time_elapsed":440917,"internal_node_id":"0.0-2.0-25.0"},{"group":"square cycles (cube, non-group)","room_assignment":["yellow","grey","green","purple","blue","red","brown","pink"],"door_color_assignment":["black","white"],"door_generator_assignment":[0,1],"goal":2,"start":7,"action_noise":0.1,"location_history":"[7,6,7,6,5,4,5,4,7,6,5,4,7,6,7,3,0,4,7,6,5,4,5,4,7,3,2]","action_history":"[0,1,0,0,0,1,0,0,0,0,0,0,0,1,1,0,0,0,0,0,0,1,0,0,1,1]","door_history":"[0,1,0,0,0,1,0,0,0,0,0,0,0,1,1,0,0,0,0,0,0,1,0,0,1,1]","location_rts":"[550,752,487,192,459,398,119,134,270,467,787,325,384,335,401,260,348,359,196,239,304,149,35,60,1103,298]","trial_type":"two-door-navigation","trial_index":28,"time_elapsed":480589,"internal_node_id":"0.0-2.0-26.0"},{"group":"square cycles (cube, non-group)","room_assignment":["yellow","grey","green","purple","blue","red","brown","pink"],"door_color_assignment":["black","white"],"door_generator_assignment":[0,1],"goal":1,"start":2,"action_noise":0.1,"location_history":"[2,3,0,1]","action_history":"[0,0,0]","door_history":"[0,0,0]","location_rts":"[544,281,208]","trial_type":"two-door-navigation","trial_index":29,"time_elapsed":488210,"internal_node_id":"0.0-2.0-27.0"},{"group":"square cycles (cube, non-group)","room_assignment":["yellow","grey","green","purple","blue","red","brown","pink"],"door_color_assignment":["black","white"],"door_generator_assignment":[0,1],"goal":5,"start":1,"action_noise":0.1,"location_history":"[1,2,6,7,6,7,6,5]","action_history":"[0,1,0,0,1,0,0]","door_history":"[0,1,0,0,1,0,0]","location_rts":"[675,18404,518,144,158,440,31]","trial_type":"two-door-navigation","trial_index":30,"time_elapsed":519319,"internal_node_id":"0.0-2.0-28.0"},{"group":"square cycles (cube, non-group)","room_assignment":["yellow","grey","green","purple","blue","red","brown","pink"],"door_color_assignment":["black","white"],"door_generator_assignment":[0,1],"goal":4,"start":5,"action_noise":0.1,"location_history":"[5,4]","action_history":"[0]","door_history":"[0]","location_rts":"[318]","trial_type":"two-door-navigation","trial_index":31,"time_elapsed":524165,"internal_node_id":"0.0-2.0-29.0"},{"group":"square cycles (cube, non-group)","room_assignment":["yellow","grey","green","purple","blue","red","brown","pink"],"door_color_assignment":["black","white"],"door_generator_assignment":[0,1],"goal":6,"start":4,"action_noise":0.1,"location_history":"[4,7,6]","action_history":"[0,0]","door_history":"[0,0]","location_rts":"[475,212]","trial_type":"two-door-navigation","trial_index":32,"time_elapsed":530415,"internal_node_id":"0.0-2.0-30.0"},{"group":"square cycles (cube, non-group)","room_assignment":["yellow","grey","green","purple","blue","red","brown","pink"],"door_color_assignment":["black","white"],"door_generator_assignment":[0,1],"goal":4,"start":6,"action_noise":0.1,"location_history":"[6,5,1,0,1,0,1,2,3,0,1,0,1,0,1,0,1,2,3,2,3,0,1,0,1,2,3,0,1,2,6,5,4]","action_history":"[0,1,0,0,0,0,0,0,0,0,0,0,0,0,1,0,0,0,0,0,0,0,1,0,0,0,0,1,0,0,0,0]","door_history":"[0,1,0,0,0,0,0,0,0,0,0,0,0,0,1,0,0,0,0,0,0,0,1,0,0,0,0,1,0,0,0,0]","location_rts":"[436,32,173,135,0,97,461,226,236,227,211,169,194,238,40,73,211,192,529,287,224,86,655,189,128,218,203,45,109,319,170,267]","trial_type":"two-door-navigation","trial_index":33,"time_elapsed":573606,"internal_node_id":"0.0-2.0-31.0"},{"group":"square cycles (cube, non-group)","room_assignment":["yellow","grey","green","purple","blue","red","brown","pink"],"door_color_assignment":["black","white"],"door_generator_assignment":[0,1],"goal":2,"start":4,"action_noise":0.1,"location_history":"[4,7,3,0,1,2]","action_history":"[0,1,0,0,0]","door_history":"[0,1,0,0,0]","location_rts":"[388,167,451,282,338]","trial_type":"two-door-navigation","trial_index":34,"time_elapsed":583880,"internal_node_id":"0.0-2.0-32.0"},{"group":"square cycles (cube, non-group)","room_assignment":["yellow","grey","green","purple","blue","red","brown","pink"],"door_color_assignment":["black","white"],"door_generator_assignment":[0,1],"goal":0,"start":2,"action_noise":0.1,"location_history":"[2,3,2,3,2,3,0]","action_history":"[0,1,0,0,0,0]","door_history":"[0,1,0,0,0,0]","location_rts":"[943,224,253,99,298,197]","trial_type":"two-door-navigation","trial_index":35,"time_elapsed":595578,"internal_node_id":"0.0-2.0-33.0"},{"group":"square cycles (cube, non-group)","room_assignment":["yellow","grey","green","purple","blue","red","brown","pink"],"door_color_assignment":["black","white"],"door_generator_assignment":[0,1],"goal":5,"start":0,"action_noise":0.1,"location_history":"[0,1,0,1,2,3,0,1,2,3,2,6,5]","action_history":"[0,1,0,0,0,0,0,0,0,0,1,0]","door_history":"[0,1,0,0,0,0,0,0,0,0,1,0]","location_rts":"[249,390,89,308,213,80,184,81,182,123,170,13]","trial_type":"two-door-navigation","trial_index":36,"time_elapsed":613622,"internal_node_id":"0.0-2.0-34.0"},{"group":"square cycles (cube, non-group)","room_assignment":["yellow","grey","green","purple","blue","red","brown","pink"],"door_color_assignment":["black","white"],"door_generator_assignment":[0,1],"goal":1,"start":5,"action_noise":0.1,"location_history":"[5,4,5,4,7,3,0,4,7,3,0,1]","action_history":"[0,1,0,0,0,0,0,0,1,0,0]","door_history":"[0,1,0,0,0,0,0,0,1,0,0]","location_rts":"[1018,200,76,78,172,307,228,305,574,118,321]","trial_type":"two-door-navigation","trial_index":37,"time_elapsed":631900,"internal_node_id":"0.0-2.0-35.0"},{"group":"square cycles (cube, non-group)","room_assignment":["yellow","grey","green","purple","blue","red","brown","pink"],"door_color_assignment":["black","white"],"door_generator_assignment":[0,1],"goal":7,"start":1,"action_noise":0.1,"location_history":"[1,2,6,5,4,7]","action_history":"[0,1,0,0,0]","door_history":"[0,1,0,0,0]","location_rts":"[280,272,73,150,216]","trial_type":"two-door-navigation","trial_index":38,"time_elapsed":641528,"internal_node_id":"0.0-2.0-36.0"},{"group":"square cycles (cube, non-group)","room_assignment":["yellow","grey","green","purple","blue","red","brown","pink"],"door_color_assignment":["black","white"],"door_generator_assignment":[0,1],"goal":3,"start":7,"action_noise":0.1,"location_history":"[7,6,5,1,2,3]","action_history":"[0,0,1,0,0]","door_history":"[0,0,1,0,0]","location_rts":"[808,122,408,27,208]","trial_type":"two-door-navigation","trial_index":39,"time_elapsed":651785,"internal_node_id":"0.0-2.0-37.0"},{"group":"square cycles (cube, non-group)","room_assignment":["yellow","grey","green","purple","blue","red","brown","pink"],"door_color_assignment":["black","white"],"door_generator_assignment":[0,1],"goal":6,"start":3,"action_noise":0.1,"location_history":"[3,0,4,7,6]","action_history":"[0,1,0,0]","door_history":"[0,1,0,0]","location_rts":"[540,345,132,77]","trial_type":"two-door-navigation","trial_index":40,"time_elapsed":660553,"internal_node_id":"0.0-2.0-38.0"},{"group":"square cycles (cube, non-group)","room_assignment":["yellow","grey","green","purple","blue","red","brown","pink"],"door_color_assignment":["black","white"],"door_generator_assignment":[0,1],"goal":2,"start":6,"action_noise":0.1,"location_history":"[6,5,1,0,1,2]","action_history":"[0,1,1,0,0]","door_history":"[0,1,1,0,0]","location_rts":"[695,526,211,273,113]","trial_type":"two-door-navigation","trial_index":41,"time_elapsed":671037,"internal_node_id":"0.0-2.0-39.0"},{"group":"square cycles (cube, non-group)","room_assignment":["yellow","grey","green","purple","blue","red","brown","pink"],"door_color_assignment":["black","white"],"door_generator_assignment":[0,1],"goal":1,"start":2,"action_noise":0.1,"location_history":"[2,3,2,6,5,4,7,6,5,4,5,4,7,6,5,4,7,6,7,3,0,1]","action_history":"[0,1,1,0,0,0,0,0,0,1,0,0,0,0,0,0,0,1,0,0,0]","door_history":"[0,1,1,0,0,0,0,0,0,1,0,0,0,0,0,0,0,1,0,0,0]","location_rts":"[332,338,614,375,1149,208,436,182,212,239,8,218,105,224,304,207,200,120,124,133,281]","trial_type":"two-door-navigation","trial_index":42,"time_elapsed":702182,"internal_node_id":"0.0-2.0-40.0"},{"group":"square cycles (cube, non-group)","room_assignment":["yellow","grey","green","purple","blue","red","brown","pink"],"door_color_assignment":["black","white"],"door_generator_assignment":[0,1],"goal":0,"start":1,"action_noise":0.1,"location_history":"[1,2,3,0]","action_history":"[0,1,1]","door_history":"[0,1,1]","location_rts":"[705,15,232]","trial_type":"two-door-navigation","trial_index":43,"time_elapsed":709762,"internal_node_id":"0.0-2.0-41.0"},{"group":"square cycles (cube, non-group)","room_assignment":["yellow","grey","green","purple","blue","red","brown","pink"],"door_color_assignment":["black","white"],"door_generator_assignment":[0,1],"goal":4,"start":0,"action_noise":0.1,"location_history":"[0,4]","action_history":"[1]","door_history":"[1]","location_rts":"[580]","trial_type":"two-door-navigation","trial_index":44,"time_elapsed":714887,"internal_node_id":"0.0-2.0-42.0"},{"group":"square cycles (cube, non-group)","room_assignment":["yellow","grey","green","purple","blue","red","brown","pink"],"door_color_assignment":["black","white"],"door_generator_assignment":[0,1],"goal":6,"start":4,"action_noise":0.1,"location_history":"[4,7,3,0,1,2,6]","action_history":"[0,1,0,0,0,1]","door_history":"[0,1,0,0,0,1]","location_rts":"[900,117,213,244,235,295]","trial_type":"two-door-navigation","trial_index":45,"time_elapsed":726558,"internal_node_id":"0.0-2.0-43.0"},{"group":"square cycles (cube, non-group)","room_assignment":["yellow","grey","green","purple","blue","red","brown","pink"],"door_color_assignment":["black","white"],"door_generator_assignment":[0,1],"goal":3,"start":6,"action_noise":0.1,"location_history":"[6,5,4,7,3]","action_history":"[0,0,0,0]","door_history":"[0,0,0,0]","location_rts":"[1477,185,280,307]","trial_type":"two-door-navigation","trial_index":46,"time_elapsed":736432,"internal_node_id":"0.0-2.0-44.0"},{"group":"square cycles (cube, non-group)","room_assignment":["yellow","grey","green","purple","blue","red","brown","pink"],"door_color_assignment":["black","white"],"door_generator_assignment":[0,1],"goal":7,"start":3,"action_noise":0.1,"location_history":"[3,0,4,7]","action_history":"[0,1,0]","door_history":"[0,1,0]","location_rts":"[840,250,123]","trial_type":"two-door-navigation","trial_index":47,"time_elapsed":744249,"internal_node_id":"0.0-2.0-45.0"},{"group":"square cycles (cube, non-group)","room_assignment":["yellow","grey","green","purple","blue","red","brown","pink"],"door_color_assignment":["black","white"],"door_generator_assignment":[0,1],"goal":5,"start":7,"action_noise":0.1,"location_history":"[7,6,7,6,5]","action_history":"[0,1,0,0]","door_history":"[0,1,0,0]","location_rts":"[458,169,6,71]","trial_type":"two-door-navigation","trial_index":48,"time_elapsed":752589,"internal_node_id":"0.0-2.0-46.0"},{"group":"square cycles (cube, non-group)","room_assignment":["yellow","grey","green","purple","blue","red","brown","pink"],"door_color_assignment":["black","white"],"door_generator_assignment":[0,1],"goal":1,"start":5,"action_noise":0.1,"location_history":"[5,4,7,6,5,1]","action_history":"[0,0,0,0,0]","door_history":"[0,0,0,0,0]","location_rts":"[459,168,203,187,736]","trial_type":"two-door-navigation","trial_index":49,"time_elapsed":763007,"internal_node_id":"0.0-2.0-47.0"},{"group":"square cycles (cube, non-group)","room_assignment":["yellow","grey","green","purple","blue","red","brown","pink"],"door_color_assignment":["black","white"],"door_generator_assignment":[0,1],"goal":6,"start":1,"action_noise":0.1,"location_history":"[1,2,6]","action_history":"[0,1]","door_history":"[0,1]","location_rts":"[532,496]","trial_type":"two-door-navigation","trial_index":50,"time_elapsed":769614,"internal_node_id":"0.0-2.0-48.0"},{"group":"square cycles (cube, non-group)","room_assignment":["yellow","grey","green","purple","blue","red","brown","pink"],"door_color_assignment":["black","white"],"door_generator_assignment":[0,1],"goal":0,"start":6,"action_noise":0.1,"location_history":"[6,5,4,7,3,2,3,0]","action_history":"[0,0,0,1,0,0,0]","door_history":"[0,0,0,1,0,0,0]","location_rts":"[1073,32,649,266,146,294,262]","trial_type":"two-door-navigation","trial_index":51,"time_elapsed":783036,"internal_node_id":"0.0-2.0-49.0"},{"view_history":"[{\"page_index\":0,\"viewing_time\":136498}]","rt":136500,"trial_type":"instructions","trial_index":52,"time_elapsed":920536,"internal_node_id":"0.0-3.0"},{"view_history":"[{\"page_index\":0,\"viewing_time\":211099},{\"page_index\":1,\"viewing_time\":5368}]","rt":216468,"trial_type":"instructions","trial_index":53,"time_elapsed":1138004,"internal_node_id":"0.0-4.0"},{"group":"tri cycles (cube, non-group)","fractal_assignment":["../images/ylw_slt.png","../images/pnk_blu.png","../images/blu_wht.png","../images/gry_blk.png","../images/ylw_pnk.png","../images/org_blu.png","../images/grn_red.png","../images/cyn_red.png"],"mutagen_generator_assignment":[1,0],"goal":6,"start":3,"action_noise":0.1,"location_history":"[3,7,3,4,0,2,1,5,1,0,2,1,5,2,1,5,2,6]","action_history":"[0,1,1,1,1,0,1,1,1,0,0,1,1,0,1,1,1]","mutagen_history":"[1,0,0,0,0,1,0,0,0,1,1,0,0,1,0,0,0]","location_rts":"[4420,769,860,475,423,375,294,338,386,442,408,216,362,579,127,194,304]","trial_type":"fractal-mutation","trial_index":54,"time_elapsed":1169896,"internal_node_id":"0.0-5.0-0.0"},{"group":"tri cycles (cube, non-group)","fractal_assignment":["../images/ylw_slt.png","../images/pnk_blu.png","../images/blu_wht.png","../images/gry_blk.png","../images/ylw_pnk.png","../images/org_blu.png","../images/grn_red.png","../images/cyn_red.png"],"mutagen_generator_assignment":[1,0],"goal":1,"start":6,"action_noise":0.1,"location_history":"[6,5,2,1]","action_history":"[1,1,0]","mutagen_history":"[0,0,1]","location_rts":"[1067,316,346]","trial_type":"fractal-mutation","trial_index":55,"time_elapsed":1178242,"internal_node_id":"0.0-5.0-1.0"},{"group":"tri cycles (cube, non-group)","fractal_assignment":["../images/ylw_slt.png","../images/pnk_blu.png","../images/blu_wht.png","../images/gry_blk.png","../images/ylw_pnk.png","../images/org_blu.png","../images/grn_red.png","../images/cyn_red.png"],"mutagen_generator_assignment":[1,0],"goal":2,"start":1,"action_noise":0.1,"location_history":"[1,5,2]","action_history":"[0,1]","mutagen_history":"[1,0]","location_rts":"[2170,409]","trial_type":"fractal-mutation","trial_index":56,"time_elapsed":1186385,"internal_node_id":"0.0-5.0-2.0"},{"group":"tri cycles (cube, non-group)","fractal_assignment":["../images/ylw_slt.png","../images/pnk_blu.png","../images/blu_wht.png","../images/gry_blk.png","../images/ylw_pnk.png","../images/org_blu.png","../images/grn_red.png","../images/cyn_red.png"],"mutagen_generator_assignment":[1,0],"goal":0,"start":2,"action_noise":0.1,"location_history":"[2,6,5,2,6,5,2,1,5,2,6,5,2,6,5,2,6,5,2,6,5,1,5,1,0]","action_history":"[1,1,1,1,1,1,0,1,1,0,0,1,1,1,1,1,1,1,1,1,0,1,0,0]","mutagen_history":"[0,0,0,0,0,0,1,0,0,1,1,0,0,0,0,0,0,0,0,0,1,0,1,1]","location_rts":"[885,84,394,361,388,407,281,151,224,338,168,462,246,245,226,186,119,268,221,541,217,423,232,268]","trial_type":"fractal-mutation","trial_index":57,"time_elapsed":1221820,"internal_node_id":"0.0-5.0-3.0"},{"group":"tri cycles (cube, non-group)","fractal_assignment":["../images/ylw_slt.png","../images/pnk_blu.png","../images/blu_wht.png","../images/gry_blk.png","../images/ylw_pnk.png","../images/org_blu.png","../images/grn_red.png","../images/cyn_red.png"],"mutagen_generator_assignment":[1,0],"goal":7,"start":0,"action_noise":0.1,"location_history":"[0,3,7]","action_history":"[1,0]","mutagen_history":"[0,1]","location_rts":"[424,227]","trial_type":"fractal-mutation","trial_index":58,"time_elapsed":1228005,"internal_node_id":"0.0-5.0-4.0"},{"group":"tri cycles (cube, non-group)","fractal_assignment":["../images/ylw_slt.png","../images/pnk_blu.png","../images/blu_wht.png","../images/gry_blk.png","../images/ylw_pnk.png","../images/org_blu.png","../images/grn_red.png","../images/cyn_red.png"],"mutagen_generator_assignment":[1,0],"goal":5,"start":7,"action_noise":0.1,"location_history":"[7,3,7,3,4,0,3,4,0,3,4,7,6,5]","action_history":"[1,0,1,1,1,1,1,1,1,1,0,0,1]","mutagen_history":"[0,1,0,0,0,0,0,0,0,0,1,1,0]","location_rts":"[134,388,263,164,292,5184,400,310,350,574,194,473,495]","trial_type":"fractal-mutation","trial_index":59,"time_elapsed":1254107,"internal_node_id":"0.0-5.0-5.0"},{"group":"tri cycles (cube, non-group)","fractal_assignment":["../images/ylw_slt.png","../images/pnk_blu.png","../images/blu_wht.png","../images/gry_blk.png","../images/ylw_pnk.png","../images/org_blu.png","../images/grn_red.png","../images/cyn_red.png"],"mutagen_generator_assignment":[1,0],"goal":4,"start":5,"action_noise":0.1,"location_history":"[5,1,0,2,1,5,2,6,4]","action_history":"[0,0,1,1,1,1,1,0]","mutagen_history":"[1,1,0,0,0,0,0,1]","location_rts":"[2058,377,264,205,324,418,336,217]","trial_type":"fractal-mutation","trial_index":60,"time_elapsed":1270022,"internal_node_id":"0.0-5.0-6.0"},{"group":"tri cycles (cube, non-group)","fractal_assignment":["../images/ylw_slt.png","../images/pnk_blu.png","../images/blu_wht.png","../images/gry_blk.png","../images/ylw_pnk.png","../images/org_blu.png","../images/grn_red.png","../images/cyn_red.png"],"mutagen_generator_assignment":[1,0],"goal":2,"start":4,"action_noise":0.1,"location_history":"[4,7,3,4,0,2]","action_history":"[0,1,1,1,0]","mutagen_history":"[1,0,0,0,1]","location_rts":"[407,281,343,325,539]","trial_type":"fractal-mutation","trial_index":61,"time_elapsed":1280538,"internal_node_id":"0.0-5.0-7.0"},{"group":"tri cycles (cube, non-group)","fractal_assignment":["../images/ylw_slt.png","../images/pnk_blu.png","../images/blu_wht.png","../images/gry_blk.png","../images/ylw_pnk.png","../images/org_blu.png","../images/grn_red.png","../images/cyn_red.png"],"mutagen_generator_assignment":[1,0],"goal":3,"start":2,"action_noise":0.1,"location_history":"[2,1,5,2,1,0,3]","action_history":"[0,1,1,1,0,1]","mutagen_history":"[1,0,0,0,1,0]","location_rts":"[1356,290,93,260,404,417]","trial_type":"fractal-mutation","trial_index":62,"time_elapsed":1293012,"internal_node_id":"0.0-5.0-8.0"},{"group":"tri cycles (cube, non-group)","fractal_assignment":["../images/ylw_slt.png","../images/pnk_blu.png","../images/blu_wht.png","../images/gry_blk.png","../images/ylw_pnk.png","../images/org_blu.png","../images/grn_red.png","../images/cyn_red.png"],"mutagen_generator_assignment":[1,0],"goal":7,"start":3,"action_noise":0.1,"location_history":"[3,4,0,2,6,4,0,3,7]","action_history":"[1,1,0,1,0,1,1,0]","mutagen_history":"[0,0,1,0,1,0,0,1]","location_rts":"[1873,350,249,199,418,356,227,353]","trial_type":"fractal-mutation","trial_index":63,"time_elapsed":1308781,"internal_node_id":"0.0-5.0-9.0"},{"group":"tri cycles (cube, non-group)","fractal_assignment":["../images/ylw_slt.png","../images/pnk_blu.png","../images/blu_wht.png","../images/gry_blk.png","../images/ylw_pnk.png","../images/org_blu.png","../images/grn_red.png","../images/cyn_red.png"],"mutagen_generator_assignment":[1,0],"goal":0,"start":7,"action_noise":0.1,"location_history":"[7,3,7,3,4,7,6,4,7,6,5,2,6,5,2,1,5,1,0]","action_history":"[1,1,1,1,0,0,0,0,0,1,1,1,1,1,0,1,0,0]","mutagen_history":"[0,0,0,0,1,1,1,1,1,0,0,0,0,0,1,0,1,1]","location_rts":"[529,339,290,478,194,327,392,544,303,206,339,374,273,396,243,352,505,277]","trial_type":"fractal-mutation","trial_index":64,"time_elapsed":1337103,"internal_node_id":"0.0-5.0-10.0"},{"group":"tri cycles (cube, non-group)","fractal_assignment":["../images/ylw_slt.png","../images/pnk_blu.png","../images/blu_wht.png","../images/gry_blk.png","../images/ylw_pnk.png","../images/org_blu.png","../images/grn_red.png","../images/cyn_red.png"],"mutagen_generator_assignment":[1,0],"goal":1,"start":0,"action_noise":0.1,"location_history":"[0,3,4,0,3,4,7,6,5,2,1]","action_history":"[1,1,1,1,1,0,1,1,1,0]","mutagen_history":"[0,0,0,0,0,1,0,0,0,1]","location_rts":"[394,372,1389,1357,413,245,940,355,370,283]","trial_type":"fractal-mutation","trial_index":65,"time_elapsed":1357004,"internal_node_id":"0.0-5.0-11.0"},{"group":"tri cycles (cube, non-group)","fractal_assignment":["../images/ylw_slt.png","../images/pnk_blu.png","../images/blu_wht.png","../images/gry_blk.png","../images/ylw_pnk.png","../images/org_blu.png","../images/grn_red.png","../images/cyn_red.png"],"mutagen_generator_assignment":[1,0],"goal":6,"start":1,"action_noise":0.1,"location_history":"[1,5,2,6]","action_history":"[1,1,1]","mutagen_history":"[0,0,0]","location_rts":"[1758,395,250]","trial_type":"fractal-mutation","trial_index":66,"time_elapsed":1365948,"internal_node_id":"0.0-5.0-12.0"},{"group":"tri cycles (cube, non-group)","fractal_assignment":["../images/ylw_slt.png","../images/pnk_blu.png","../images/blu_wht.png","../images/gry_blk.png","../images/ylw_pnk.png","../images/org_blu.png","../images/grn_red.png","../images/cyn_red.png"],"mutagen_generator_assignment":[1,0],"goal":4,"start":6,"action_noise":0.1,"location_history":"[6,5,1,0,2,6,5,2,1,5,1,5,2,1,0,3,4]","action_history":"[1,0,1,1,1,1,1,0,1,1,1,1,0,0,1,1]","mutagen_history":"[0,1,0,0,0,0,0,1,0,0,0,0,1,1,0,0]","location_rts":"[1125,416,218,137,310,386,441,372,159,233,293,371,476,110,73,164]","trial_type":"fractal-mutation","trial_index":67,"time_elapsed":1391147,"internal_node_id":"0.0-5.0-13.0"},{"group":"tri cycles (cube, non-group)","fractal_assignment":["../images/ylw_slt.png","../images/pnk_blu.png","../images/blu_wht.png","../images/gry_blk.png","../images/ylw_pnk.png","../images/org_blu.png","../images/grn_red.png","../images/cyn_red.png"],"mutagen_generator_assignment":[1,0],"goal":5,"start":4,"action_noise":0.1,"location_history":"[4,7,3,4,0,3,7,3,4,7,3,4,0,3,7,6,4,0,3,4,7,6,4,0,2,6,5]","action_history":"[0,1,1,1,1,0,1,1,0,1,1,1,1,0,0,0,1,1,1,1,0,0,1,0,1,1]","mutagen_history":"[1,0,0,0,0,1,0,0,1,0,0,0,0,1,1,1,0,0,0,0,1,1,0,1,0,0]","location_rts":"[632,505,678,268,244,57,271,200,173,248,290,399,323,226,267,394,1039,142,284,314,114,319,403,122,271,115]","trial_type":"fractal-mutation","trial_index":68,"time_elapsed":1429641,"internal_node_id":"0.0-5.0-14.0"},{"group":"tri cycles (cube, non-group)","fractal_assignment":["../images/ylw_slt.png","../images/pnk_blu.png","../images/blu_wht.png","../images/gry_blk.png","../images/ylw_pnk.png","../images/org_blu.png","../images/grn_red.png","../images/cyn_red.png"],"mutagen_generator_assignment":[1,0],"goal":4,"start":5,"action_noise":0.1,"location_history":"[5,2,6,5,1,0,3,4]","action_history":"[1,1,1,0,0,1,1]","mutagen_history":"[0,0,0,1,1,0,0]","location_rts":"[706,286,241,247,204,275,330]","trial_type":"fractal-mutation","trial_index":69,"time_elapsed":1442629,"internal_node_id":"0.0-5.0-15.0"},{"group":"tri cycles (cube, non-group)","fractal_assignment":["../images/ylw_slt.png","../images/pnk_blu.png","../images/blu_wht.png","../images/gry_blk.png","../images/ylw_pnk.png","../images/org_blu.png","../images/grn_red.png","../images/cyn_red.png"],"mutagen_generator_assignment":[1,0],"goal":0,"start":4,"action_noise":0.1,"location_history":"[4,7,3,4,7,3,7,3,4,0]","action_history":"[0,1,1,1,1,0,0,1,1]","mutagen_history":"[1,0,0,0,0,1,1,0,0]","location_rts":"[381,119,253,272,443,281,367,274,210]","trial_type":"fractal-mutation","trial_index":70,"time_elapsed":1457927,"internal_node_id":"0.0-5.0-16.0"},{"group":"tri cycles (cube, non-group)","fractal_assignment":["../images/ylw_slt.png","../images/pnk_blu.png","../images/blu_wht.png","../images/gry_blk.png","../images/ylw_pnk.png","../images/org_blu.png","../images/grn_red.png","../images/cyn_red.png"],"mutagen_generator_assignment":[1,0],"goal":7,"start":0,"action_noise":0.1,"location_history":"[0,2,6,5,2,6,4,7]","action_history":"[0,1,1,1,1,0,0]","mutagen_history":"[1,0,0,0,0,1,1]","location_rts":"[257,231,165,214,179,176,288]","trial_type":"fractal-mutation","trial_index":71,"time_elapsed":1470103,"internal_node_id":"0.0-5.0-17.0"},{"group":"tri cycles (cube, non-group)","fractal_assignment":["../images/ylw_slt.png","../images/pnk_blu.png","../images/blu_wht.png","../images/gry_blk.png","../images/ylw_pnk.png","../images/org_blu.png","../images/grn_red.png","../images/cyn_red.png"],"mutagen_generator_assignment":[1,0],"goal":2,"start":7,"action_noise":0.1,"location_history":"[7,6,5,1,5,1,5,1,0,3,4,0,2]","action_history":"[0,1,1,1,0,1,0,0,1,1,1,0]","mutagen_history":"[1,0,0,0,1,0,1,1,0,0,0,1]","location_rts":"[697,232,304,403,299,152,124,192,247,278,459,428]","trial_type":"fractal-mutation","trial_index":72,"time_elapsed":1489747,"internal_node_id":"0.0-5.0-18.0"},{"group":"tri cycles (cube, non-group)","fractal_assignment":["../images/ylw_slt.png","../images/pnk_blu.png","../images/blu_wht.png","../images/gry_blk.png","../images/ylw_pnk.png","../images/org_blu.png","../images/grn_red.png","../images/cyn_red.png"],"mutagen_generator_assignment":[1,0],"goal":1,"start":2,"action_noise":0.1,"location_history":"[2,6,5,2,6,5,2,1]","action_history":"[0,1,1,1,1,1,0]","mutagen_history":"[1,0,0,0,0,0,1]","location_rts":"[325,968,330,60,229,379,457]","trial_type":"fractal-mutation","trial_index":73,"time_elapsed":1503152,"internal_node_id":"0.0-5.0-19.0"},{"group":"tri cycles (cube, non-group)","fractal_assignment":["../images/ylw_slt.png","../images/pnk_blu.png","../images/blu_wht.png","../images/gry_blk.png","../images/ylw_pnk.png","../images/org_blu.png","../images/grn_red.png","../images/cyn_red.png"],"mutagen_generator_assignment":[1,0],"goal":3,"start":1,"action_noise":0.1,"location_history":"[1,5,1,5,2,6,5,2,6,4,0,3]","action_history":"[1,1,1,0,1,1,1,1,0,1,1]","mutagen_history":"[0,0,0,1,0,0,0,0,1,0,0]","location_rts":"[1447,225,232,286,355,58,243,305,339,383,549]","trial_type":"fractal-mutation","trial_index":74,"time_elapsed":1522300,"internal_node_id":"0.0-5.0-20.0"},{"group":"tri cycles (cube, non-group)","fractal_assignment":["../images/ylw_slt.png","../images/pnk_blu.png","../images/blu_wht.png","../images/gry_blk.png","../images/ylw_pnk.png","../images/org_blu.png","../images/grn_red.png","../images/cyn_red.png"],"mutagen_generator_assignment":[1,0],"goal":6,"start":3,"action_noise":0.1,"location_history":"[3,4,0,3,4,0,2,6]","action_history":"[1,1,1,1,1,0,1]","mutagen_history":"[0,0,0,0,0,1,0]","location_rts":"[1042,278,269,218,269,321,822]","trial_type":"fractal-mutation","trial_index":75,"time_elapsed":1536197,"internal_node_id":"0.0-5.0-21.0"},{"group":"tri cycles (cube, non-group)","fractal_assignment":["../images/ylw_slt.png","../images/pnk_blu.png","../images/blu_wht.png","../images/gry_blk.png","../images/ylw_pnk.png","../images/org_blu.png","../images/grn_red.png","../images/cyn_red.png"],"mutagen_generator_assignment":[1,0],"goal":5,"start":6,"action_noise":0.1,"location_history":"[6,5]","action_history":"[1]","mutagen_history":"[0]","location_rts":"[721]","trial_type":"fractal-mutation","trial_index":76,"time_elapsed":1541478,"internal_node_id":"0.0-5.0-22.0"},{"group":"tri cycles (cube, non-group)","fractal_assignment":["../images/ylw_slt.png","../images/pnk_blu.png","../images/blu_wht.png","../images/gry_blk.png","../images/ylw_pnk.png","../images/org_blu.png","../images/grn_red.png","../images/cyn_red.png"],"mutagen_generator_assignment":[1,0],"goal":3,"start":5,"action_noise":0.1,"location_history":"[5,2,6,4,0,3]","action_history":"[1,1,1,1,1]","mutagen_history":"[0,0,0,0,0]","location_rts":"[664,352,259,402,740]","trial_type":"fractal-mutation","trial_index":77,"time_elapsed":1552484,"internal_node_id":"0.0-5.0-23.0"},{"group":"tri cycles (cube, non-group)","fractal_assignment":["../images/ylw_slt.png","../images/pnk_blu.png","../images/blu_wht.png","../images/gry_blk.png","../images/ylw_pnk.png","../images/org_blu.png","../images/grn_red.png","../images/cyn_red.png"],"mutagen_generator_assignment":[1,0],"goal":0,"start":3,"action_noise":0.1,"location_history":"[3,4,0]","action_history":"[1,1]","mutagen_history":"[0,0]","location_rts":"[1276,244]","trial_type":"fractal-mutation","trial_index":78,"time_elapsed":1559545,"internal_node_id":"0.0-5.0-24.0"},{"group":"tri cycles (cube, non-group)","fractal_assignment":["../images/ylw_slt.png","../images/pnk_blu.png","../images/blu_wht.png","../images/gry_blk.png","../images/ylw_pnk.png","../images/org_blu.png","../images/grn_red.png","../images/cyn_red.png"],"mutagen_generator_assignment":[1,0],"goal":7,"start":0,"action_noise":0.1,"location_history":"[0,3,4,7]","action_history":"[1,1,1]","mutagen_history":"[0,0,0]","location_rts":"[503,237,281]","trial_type":"fractal-mutation","trial_index":79,"time_elapsed":1567139,"internal_node_id":"0.0-5.0-25.0"},{"group":"tri cycles (cube, non-group)","fractal_assignment":["../images/ylw_slt.png","../images/pnk_blu.png","../images/blu_wht.png","../images/gry_blk.png","../images/ylw_pnk.png","../images/org_blu.png","../images/grn_red.png","../images/cyn_red.png"],"mutagen_generator_assignment":[1,0],"goal":2,"start":7,"action_noise":0.1,"location_history":"[7,3,4,0,3,4,0,3,4,7,6,5,2]","action_history":"[1,1,0,1,1,1,0,1,0,1,1,1]","mutagen_history":"[0,0,1,0,0,0,1,0,1,0,0,0]","location_rts":"[1524,1091,659,472,420,278,320,1017,306,550,568,444]","trial_type":"fractal-mutation","trial_index":80,"time_elapsed":1590535,"internal_node_id":"0.0-5.0-26.0"},{"group":"tri cycles (cube, non-group)","fractal_assignment":["../images/ylw_slt.png","../images/pnk_blu.png","../images/blu_wht.png","../images/gry_blk.png","../images/ylw_pnk.png","../images/org_blu.png","../images/grn_red.png","../images/cyn_red.png"],"mutagen_generator_assignment":[1,0],"goal":1,"start":2,"action_noise":0.1,"location_history":"[2,1]","action_history":"[0]","mutagen_history":"[1]","location_rts":"[976]","trial_type":"fractal-mutation","trial_index":81,"time_elapsed":1596046,"internal_node_id":"0.0-5.0-27.0"},{"group":"tri cycles (cube, non-group)","fractal_assignment":["../images/ylw_slt.png","../images/pnk_blu.png","../images/blu_wht.png","../images/gry_blk.png","../images/ylw_pnk.png","../images/org_blu.png","../images/grn_red.png","../images/cyn_red.png"],"mutagen_generator_assignment":[1,0],"goal":5,"start":1,"action_noise":0.1,"location_history":"[1,5]","action_history":"[1]","mutagen_history":"[0]","location_rts":"[531]","trial_type":"fractal-mutation","trial_index":82,"time_elapsed":1601090,"internal_node_id":"0.0-5.0-28.0"},{"group":"tri cycles (cube, non-group)","fractal_assignment":["../images/ylw_slt.png","../images/pnk_blu.png","../images/blu_wht.png","../images/gry_blk.png","../images/ylw_pnk.png","../images/org_blu.png","../images/grn_red.png","../images/cyn_red.png"],"mutagen_generator_assignment":[1,0],"goal":4,"start":5,"action_noise":0.1,"location_history":"[5,1,5,1,5,1,5,2,6,5,2,6,4]","action_history":"[0,1,0,1,1,1,1,1,1,1,1,0]","mutagen_history":"[1,0,1,0,0,0,0,0,0,0,0,1]","location_rts":"[1342,463,234,181,67,399,509,694,906,578,466,326]","trial_type":"fractal-mutation","trial_index":83,"time_elapsed":1623040,"internal_node_id":"0.0-5.0-29.0"},{"group":"tri cycles (cube, non-group)","fractal_assignment":["../images/ylw_slt.png","../images/pnk_blu.png","../images/blu_wht.png","../images/gry_blk.png","../images/ylw_pnk.png","../images/org_blu.png","../images/grn_red.png","../images/cyn_red.png"],"mutagen_generator_assignment":[1,0],"goal":6,"start":4,"action_noise":0.1,"location_history":"[4,7,3,7,3,4,0,3,7,3,4,0,3,4,0,3,4,7,6]","action_history":"[0,1,1,1,1,1,1,0,1,1,0,1,1,1,1,1,0,0]","mutagen_history":"[1,0,0,0,0,0,0,1,0,0,1,0,0,0,0,0,1,1]","location_rts":"[1215,814,340,518,277,444,441,858,480,395,643,400,386,579,356,420,870,501]","trial_type":"fractal-mutation","trial_index":84,"time_elapsed":1654992,"internal_node_id":"0.0-5.0-30.0"},{"group":"tri cycles (cube, non-group)","fractal_assignment":["../images/ylw_slt.png","../images/pnk_blu.png","../images/blu_wht.png","../images/gry_blk.png","../images/ylw_pnk.png","../images/org_blu.png","../images/grn_red.png","../images/cyn_red.png"],"mutagen_generator_assignment":[1,0],"goal":4,"start":6,"action_noise":0.1,"location_history":"[6,5,1,0,3,7,6,5,2,1,5,1,5,2,1,0,2,6,5,2,6,4]","action_history":"[0,1,1,1,1,0,1,1,1,1,0,1,1,1,0,0,1,1,1,1,0]","mutagen_history":"[1,0,0,0,0,1,0,0,0,0,1,0,0,0,1,1,0,0,0,0,1]","location_rts":"[853,498,234,277,411,294,607,271,367,381,629,306,222,289,344,162,407,303,452,337,394]","trial_type":"fractal-mutation","trial_index":85,"time_elapsed":1687994,"internal_node_id":"0.0-5.0-31.0"},{"group":"tri cycles (cube, non-group)","fractal_assignment":["../images/ylw_slt.png","../images/pnk_blu.png","../images/blu_wht.png","../images/gry_blk.png","../images/ylw_pnk.png","../images/org_blu.png","../images/grn_red.png","../images/cyn_red.png"],"mutagen_generator_assignment":[1,0],"goal":2,"start":4,"action_noise":0.1,"location_history":"[4,0,3,7,6,4,7,6,4,0,3,4,0,3,7,6,4,0,3,7,6,4,0,2]","action_history":"[1,1,1,0,0,1,0,1,1,1,1,1,1,0,0,0,1,1,0,1,0,1,0]","mutagen_history":"[0,0,0,1,1,0,1,0,0,0,0,0,0,1,1,1,0,0,1,0,1,0,1]","location_rts":"[893,257,345,371,122,236,594,229,185,202,458,282,387,283,342,98,361,368,339,233,328,281,243]","trial_type":"fractal-mutation","trial_index":86,"time_elapsed":1722567,"internal_node_id":"0.0-5.0-32.0"},{"group":"tri cycles (cube, non-group)","fractal_assignment":["../images/ylw_slt.png","../images/pnk_blu.png","../images/blu_wht.png","../images/gry_blk.png","../images/ylw_pnk.png","../images/org_blu.png","../images/grn_red.png","../images/cyn_red.png"],"mutagen_generator_assignment":[1,0],"goal":0,"start":2,"action_noise":0.1,"location_history":"[2,6,5,1,0]","action_history":"[1,1,1,1]","mutagen_history":"[0,0,0,0]","location_rts":"[2543,119,143,251]","trial_type":"fractal-mutation","trial_index":87,"time_elapsed":1733200,"internal_node_id":"0.0-5.0-33.0"},{"group":"tri cycles (cube, non-group)","fractal_assignment":["../images/ylw_slt.png","../images/pnk_blu.png","../images/blu_wht.png","../images/gry_blk.png","../images/ylw_pnk.png","../images/org_blu.png","../images/grn_red.png","../images/cyn_red.png"],"mutagen_generator_assignment":[1,0],"goal":5,"start":0,"action_noise":0.1,"location_history":"[0,2,6,5]","action_history":"[1,1,1]","mutagen_history":"[0,0,0]","location_rts":"[836,288,258]","trial_type":"fractal-mutation","trial_index":88,"time_elapsed":1741140,"internal_node_id":"0.0-5.0-34.0"},{"group":"tri cycles (cube, non-group)","fractal_assignment":["../images/ylw_slt.png","../images/pnk_blu.png","../images/blu_wht.png","../images/gry_blk.png","../images/ylw_pnk.png","../images/org_blu.png","../images/grn_red.png","../images/cyn_red.png"],"mutagen_generator_assignment":[1,0],"goal":1,"start":5,"action_noise":0.1,"location_history":"[5,2,1]","action_history":"[1,0]","mutagen_history":"[0,1]","location_rts":"[1088,368]","trial_type":"fractal-mutation","trial_index":89,"time_elapsed":1748145,"internal_node_id":"0.0-5.0-35.0"},{"group":"tri cycles (cube, non-group)","fractal_assignment":["../images/ylw_slt.png","../images/pnk_blu.png","../images/blu_wht.png","../images/gry_blk.png","../images/ylw_pnk.png","../images/org_blu.png","../images/grn_red.png","../images/cyn_red.png"],"mutagen_generator_assignment":[1,0],"goal":7,"start":1,"action_noise":0.1,"location_history":"[1,5,2,6,4,7]","action_history":"[1,1,1,0,1]","mutagen_history":"[0,0,0,1,0]","location_rts":"[972,386,638,378,408]","trial_type":"fractal-mutation","trial_index":90,"time_elapsed":1759569,"internal_node_id":"0.0-5.0-36.0"},{"group":"tri cycles (cube, non-group)","fractal_assignment":["../images/ylw_slt.png","../images/pnk_blu.png","../images/blu_wht.png","../images/gry_blk.png","../images/ylw_pnk.png","../images/org_blu.png","../images/grn_red.png","../images/cyn_red.png"],"mutagen_generator_assignment":[1,0],"goal":3,"start":7,"action_noise":0.1,"location_history":"[7,3]","action_history":"[1]","mutagen_history":"[0]","location_rts":"[977]","trial_type":"fractal-mutation","trial_index":91,"time_elapsed":1765061,"internal_node_id":"0.0-5.0-37.0"},{"group":"tri cycles (cube, non-group)","fractal_assignment":["../images/ylw_slt.png","../images/pnk_blu.png","../images/blu_wht.png","../images/gry_blk.png","../images/ylw_pnk.png","../images/org_blu.png","../images/grn_red.png","../images/cyn_red.png"],"mutagen_generator_assignment":[1,0],"goal":6,"start":3,"action_noise":0.1,"location_history":"[3,4,7,3,4,7,3,7,3,4,7,6]","action_history":"[1,1,1,1,0,1,0,1,1,0,0]","mutagen_history":"[0,0,0,0,1,0,1,0,0,1,1]","location_rts":"[807,304,954,419,258,445,612,592,196,344,49]","trial_type":"fractal-mutation","trial_index":92,"time_elapsed":1784846,"internal_node_id":"0.0-5.0-38.0"},{"group":"tri cycles (cube, non-group)","fractal_assignment":["../images/ylw_slt.png","../images/pnk_blu.png","../images/blu_wht.png","../images/gry_blk.png","../images/ylw_pnk.png","../images/org_blu.png","../images/grn_red.png","../images/cyn_red.png"],"mutagen_generator_assignment":[1,0],"goal":2,"start":6,"action_noise":0.1,"location_history":"[6,5,2]","action_history":"[1,1]","mutagen_history":"[0,0]","location_rts":"[1541,402]","trial_type":"fractal-mutation","trial_index":93,"time_elapsed":1792322,"internal_node_id":"0.0-5.0-39.0"},{"group":"tri cycles (cube, non-group)","fractal_assignment":["../images/ylw_slt.png","../images/pnk_blu.png","../images/blu_wht.png","../images/gry_blk.png","../images/ylw_pnk.png","../images/org_blu.png","../images/grn_red.png","../images/cyn_red.png"],"mutagen_generator_assignment":[1,0],"goal":1,"start":2,"action_noise":0.1,"location_history":"[2,1]","action_history":"[0]","mutagen_history":"[1]","location_rts":"[1096]","trial_type":"fractal-mutation","trial_index":94,"time_elapsed":1797947,"internal_node_id":"0.0-5.0-40.0"},{"group":"tri cycles (cube, non-group)","fractal_assignment":["../images/ylw_slt.png","../images/pnk_blu.png","../images/blu_wht.png","../images/gry_blk.png","../images/ylw_pnk.png","../images/org_blu.png","../images/grn_red.png","../images/cyn_red.png"],"mutagen_generator_assignment":[1,0],"goal":0,"start":1,"action_noise":0.1,"location_history":"[1,5,2,6,5,2,6,5,1,5,2,6,5,1,5,2,1,0]","action_history":"[1,1,1,1,1,1,1,0,1,1,1,1,0,1,1,1,1]","mutagen_history":"[0,0,0,0,0,0,0,1,0,0,0,0,1,0,0,0,0]","location_rts":"[843,144,321,353,433,568,289,831,311,739,299,264,593,199,344,322,224]","trial_type":"fractal-mutation","trial_index":95,"time_elapsed":1825906,"internal_node_id":"0.0-5.0-41.0"},{"group":"tri cycles (cube, non-group)","fractal_assignment":["../images/ylw_slt.png","../images/pnk_blu.png","../images/blu_wht.png","../images/gry_blk.png","../images/ylw_pnk.png","../images/org_blu.png","../images/grn_red.png","../images/cyn_red.png"],"mutagen_generator_assignment":[1,0],"goal":4,"start":0,"action_noise":0.1,"location_history":"[0,3,4]","action_history":"[1,1]","mutagen_history":"[0,0]","location_rts":"[676,325]","trial_type":"fractal-mutation","trial_index":96,"time_elapsed":1832435,"internal_node_id":"0.0-5.0-42.0"},{"group":"tri cycles (cube, non-group)","fractal_assignment":["../images/ylw_slt.png","../images/pnk_blu.png","../images/blu_wht.png","../images/gry_blk.png","../images/ylw_pnk.png","../images/org_blu.png","../images/grn_red.png","../images/cyn_red.png"],"mutagen_generator_assignment":[1,0],"goal":6,"start":4,"action_noise":0.1,"location_history":"[4,0,3,4,0,3,7,6]","action_history":"[0,1,1,1,1,0,1]","mutagen_history":"[1,0,0,0,0,1,0]","location_rts":"[834,338,156,307,403,467,631]","trial_type":"fractal-mutation","trial_index":97,"time_elapsed":1846280,"internal_node_id":"0.0-5.0-43.0"},{"group":"tri cycles (cube, non-group)","fractal_assignment":["../images/ylw_slt.png","../images/pnk_blu.png","../images/blu_wht.png","../images/gry_blk.png","../images/ylw_pnk.png","../images/org_blu.png","../images/grn_red.png","../images/cyn_red.png"],"mutagen_generator_assignment":[1,0],"goal":3,"start":6,"action_noise":0.1,"location_history":"[6,4,0,3]","action_history":"[0,1,1]","mutagen_history":"[1,0,0]","location_rts":"[830,280,351]","trial_type":"fractal-mutation","trial_index":98,"time_elapsed":1854338,"internal_node_id":"0.0-5.0-44.0"},{"group":"tri cycles (cube, non-group)","fractal_assignment":["../images/ylw_slt.png","../images/pnk_blu.png","../images/blu_wht.png","../images/gry_blk.png","../images/ylw_pnk.png","../images/org_blu.png","../images/grn_red.png","../images/cyn_red.png"],"mutagen_generator_assignment":[1,0],"goal":7,"start":3,"action_noise":0.1,"location_history":"[3,4,7]","action_history":"[1,1]","mutagen_history":"[0,0]","location_rts":"[595,429]","trial_type":"fractal-mutation","trial_index":99,"time_elapsed":1860931,"internal_node_id":"0.0-5.0-45.0"},{"group":"tri cycles (cube, non-group)","fractal_assignment":["../images/ylw_slt.png","../images/pnk_blu.png","../images/blu_wht.png","../images/gry_blk.png","../images/ylw_pnk.png","../images/org_blu.png","../images/grn_red.png","../images/cyn_red.png"],"mutagen_generator_assignment":[1,0],"goal":5,"start":7,"action_noise":0.1,"location_history":"[7,3,4,0,3,4,7,3,4,0,2,1,5]","action_history":"[1,1,1,1,1,0,1,1,0,0,1,1]","mutagen_history":"[0,0,0,0,0,1,0,0,1,1,0,0]","location_rts":"[794,306,486,378,576,241,401,243,528,275,295,275]","trial_type":"fractal-mutation","trial_index":100,"time_elapsed":1881523,"internal_node_id":"0.0-5.0-46.0"},{"group":"tri cycles (cube, non-group)","fractal_assignment":["../images/ylw_slt.png","../images/pnk_blu.png","../images/blu_wht.png","../images/gry_blk.png","../images/ylw_pnk.png","../images/org_blu.png","../images/grn_red.png","../images/cyn_red.png"],"mutagen_generator_assignment":[1,0],"goal":1,"start":5,"action_noise":0.1,"location_history":"[5,2,1]","action_history":"[1,0]","mutagen_history":"[0,1]","location_rts":"[665,305]","trial_type":"fractal-mutation","trial_index":101,"time_elapsed":1888044,"internal_node_id":"0.0-5.0-47.0"},{"group":"tri cycles (cube, non-group)","fractal_assignment":["../images/ylw_slt.png","../images/pnk_blu.png","../images/blu_wht.png","../images/gry_blk.png","../images/ylw_pnk.png","../images/org_blu.png","../images/grn_red.png","../images/cyn_red.png"],"mutagen_generator_assignment":[1,0],"goal":6,"start":1,"action_noise":0.1,"location_history":"[1,5,2,6]","action_history":"[1,1,1]","mutagen_history":"[0,0,0]","location_rts":"[682,363,361]","trial_type":"fractal-mutation","trial_index":102,"time_elapsed":1895992,"internal_node_id":"0.0-5.0-48.0"},{"group":"tri cycles (cube, non-group)","fractal_assignment":["../images/ylw_slt.png","../images/pnk_blu.png","../images/blu_wht.png","../images/gry_blk.png","../images/ylw_pnk.png","../images/org_blu.png","../images/grn_red.png","../images/cyn_red.png"],"mutagen_generator_assignment":[1,0],"goal":0,"start":6,"action_noise":0.1,"location_history":"[6,5,2,6,4,0]","action_history":"[1,1,1,1,1]","mutagen_history":"[0,0,0,0,0]","location_rts":"[765,209,385,429,388]","trial_type":"fractal-mutation","trial_index":103,"time_elapsed":1906739,"internal_node_id":"0.0-5.0-49.0"},{"view_history":"[{\"page_index\":0,\"viewing_time\":8209}]","rt":8210,"trial_type":"instructions","trial_index":104,"time_elapsed":1915950,"internal_node_id":"0.0-6.0"},{"rt":39003,"responses":"{\"Q0\":\"\"}","trial_type":"survey-text","trial_index":105,"time_elapsed":1955959,"internal_node_id":"0.0-7.0"}]