[{"view_history":"[{\"page_index\":0,\"viewing_time\":7320},{\"page_index\":1,\"viewing_time\":29193}]","rt":36514,"trial_type":"instructions","trial_index":0,"time_elapsed":36514,"internal_node_id":"0.0-0.0"},{"view_history":"[{\"page_index\":0,\"viewing_time\":2920},{\"page_index\":1,\"viewing_time\":22602}]","rt":25522,"trial_type":"instructions","trial_index":1,"time_elapsed":63042,"internal_node_id":"0.0-1.0"},{"group":"tri cycles (cube, non-group)","room_assignment":["red","grey","yellow","pink","green","purple","brown","blue"],"door_color_assignment":["white","black"],"door_generator_assignment":[1,0],"goal":6,"start":3,"action_noise":0.1,"location_history":"[3,7,6]","action_history":"[0,0]","door_history":"[1,1]","location_rts":"[11761,896]","trial_type":"two-door-navigation","trial_index":2,"time_elapsed":81367,"internal_node_id":"0.0-2.0-0.0"},{"group":"tri cycles (cube, non-group)","room_assignment":["red","grey","yellow","pink","green","purple","brown","blue"],"door_color_assignment":["white","black"],"door_generator_assignment":[1,0],"goal":1,"start":6,"action_noise":0.1,"location_history":"[6,4,0,3,4,7,3,7,6,5,1]","action_history":"[1,1,1,0,0,1,0,0,1,0]","door_history":"[0,0,0,1,1,0,1,1,0,1]","location_rts":"[885,610,584,1065,571,854,779,444,903,810]","trial_type":"two-door-navigation","trial_index":3,"time_elapsed":103146,"internal_node_id":"0.0-2.0-1.0"},{"group":"tri cycles (cube, non-group)","room_assignment":["red","grey","yellow","pink","green","purple","brown","blue"],"door_color_assignment":["white","black"],"door_generator_assignment":[1,0],"goal":2,"start":1,"action_noise":0.1,"location_history":"[1,5,2]","action_history":"[1,1]","door_history":"[0,0]","location_rts":"[907,620]","trial_type":"two-door-navigation","trial_index":4,"time_elapsed":110323,"internal_node_id":"0.0-2.0-2.0"},{"group":"tri cycles (cube, non-group)","room_assignment":["red","grey","yellow","pink","green","purple","brown","blue"],"door_color_assignment":["white","black"],"door_generator_assignment":[1,0],"goal":0,"start":2,"action_noise":0.1,"location_history":"[2,1,0]","action_history":"[0,0]","door_history":"[1,1]","location_rts":"[1068,661]","trial_type":"two-door-navigation","trial_index":5,"time_elapsed":117711,"internal_node_id":"0.0-2.0-3.0"},{"group":"tri cycles (cube, non-group)","room_assignment":["red","grey","yellow","pink","green","purple","brown","blue"],"door_color_assignment":["white","black"],"door_generator_assignment":[1,0],"goal":7,"start":0,"action_noise":0.1,"location_history":"[0,2,6,4,0,2,1,0,2,1,0,3,7]","action_history":"[0,1,0,1,0,0,0,0,0,0,0,0]","door_history":"[1,0,1,0,1,1,1,1,1,1,1,1]","location_rts":"[846,735,792,645,656,912,527,588,766,641,588,597]","trial_type":"two-door-navigation","trial_index":6,"time_elapsed":142436,"internal_node_id":"0.0-2.0-4.0"},{"group":"tri cycles (cube, non-group)","room_assignment":["red","grey","yellow","pink","green","purple","brown","blue"],"door_color_assignment":["white","black"],"door_generator_assignment":[1,0],"goal":5,"start":7,"action_noise":0.1,"location_history":"[7,6,4,0,2,6,4,7,6,4,7,6,5]","action_history":"[0,0,0,0,0,0,0,0,0,0,0,0]","door_history":"[1,1,1,1,1,1,1,1,1,1,1,1]","location_rts":"[1174,573,531,404,361,319,353,300,375,481,338,367]","trial_type":"two-door-navigation","trial_index":7,"time_elapsed":164434,"internal_node_id":"0.0-2.0-5.0"},{"group":"tri cycles (cube, non-group)","room_assignment":["red","grey","yellow","pink","green","purple","brown","blue"],"door_color_assignment":["white","black"],"door_generator_assignment":[1,0],"goal":4,"start":5,"action_noise":0.1,"location_history":"[5,1,0,2,1,0,2,6,4]","action_history":"[0,0,0,0,0,0,0,0]","door_history":"[1,1,1,1,1,1,1,1]","location_rts":"[653,1113,643,463,425,445,437,450]","trial_type":"two-door-navigation","trial_index":8,"time_elapsed":181205,"internal_node_id":"0.0-2.0-6.0"},{"group":"tri cycles (cube, non-group)","room_assignment":["red","grey","yellow","pink","green","purple","brown","blue"],"door_color_assignment":["white","black"],"door_generator_assignment":[1,0],"goal":2,"start":4,"action_noise":0.1,"location_history":"[4,7,6,4,7,6,4,0,2]","action_history":"[0,0,0,0,0,0,0,0]","door_history":"[1,1,1,1,1,1,1,1]","location_rts":"[680,435,442,412,389,364,444,304]","trial_type":"two-door-navigation","trial_index":9,"time_elapsed":196765,"internal_node_id":"0.0-2.0-7.0"},{"group":"tri cycles (cube, non-group)","room_assignment":["red","grey","yellow","pink","green","purple","brown","blue"],"door_color_assignment":["white","black"],"door_generator_assignment":[1,0],"goal":3,"start":2,"action_noise":0.1,"location_history":"[2,1,0,2,1,0,2,1,0,2,1,0,2,1,5,1,0,2,1,0,2,1,0,2,1,0,2,1,0,2,1,0,2,1,0,2,1,0,2,6,5,1,0,2,1,0,2,1,0,2,1,0,3]","action_history":"[0,0,0,0,0,0,0,0,0,0,0,0,0,0,0,0,0,0,0,0,0,0,0,0,0,0,0,0,0,0,0,0,0,0,0,0,0,0,0,0,0,0,0,0,0,0,0,0,0,0,0,1]","door_history":"[1,1,1,1,1,1,1,1,1,1,1,1,1,1,1,1,1,1,1,1,1,1,1,1,1,1,1,1,1,1,1,1,1,1,1,1,1,1,1,1,1,1,1,1,1,1,1,1,1,1,1,0]","location_rts":"[2689,491,564,571,393,385,380,379,412,378,518,429,350,324,437,362,389,371,375,344,420,353,404,459,537,406,368,502,705,928,445,406,302,368,323,365,387,388,313,387,381,428,414,485,442,396,415,416,286,301,388,696]","trial_type":"two-door-navigation","trial_index":10,"time_elapsed":280558,"internal_node_id":"0.0-2.0-8.0"},{"group":"tri cycles (cube, non-group)","room_assignment":["red","grey","yellow","pink","green","purple","brown","blue"],"door_color_assignment":["white","black"],"door_generator_assignment":[1,0],"goal":7,"start":3,"action_noise":0.1,"location_history":"[3,7]","action_history":"[0]","door_history":"[1]","location_rts":"[1201]","trial_type":"two-door-navigation","trial_index":11,"time_elapsed":286348,"internal_node_id":"0.0-2.0-9.0"},{"group":"tri cycles (cube, non-group)","room_assignment":["red","grey","yellow","pink","green","purple","brown","blue"],"door_color_assignment":["white","black"],"door_generator_assignment":[1,0],"goal":0,"start":7,"action_noise":0.1,"location_history":"[7,3,7,6,4,0]","action_history":"[0,0,0,0,0]","door_history":"[1,1,1,1,1]","location_rts":"[34675,604,525,404,404]","trial_type":"two-door-navigation","trial_index":12,"time_elapsed":331854,"internal_node_id":"0.0-2.0-10.0"},{"group":"tri cycles (cube, non-group)","room_assignment":["red","grey","yellow","pink","green","purple","brown","blue"],"door_color_assignment":["white","black"],"door_generator_assignment":[1,0],"goal":1,"start":0,"action_noise":0.1,"location_history":"[0,3,7,6,4,7,6,4,7,6,4,0,3,7,3,4,7,6,4,0,2,1]","action_history":"[0,0,0,0,0,0,0,0,0,0,1,1,1,1,1,1,1,1,1,1,1]","door_history":"[1,1,1,1,1,1,1,1,1,1,0,0,0,0,0,0,0,0,0,0,0]","location_rts":"[498,484,452,348,487,378,340,396,361,388,713,481,601,435,479,490,455,347,448,523,466]","trial_type":"two-door-navigation","trial_index":13,"time_elapsed":367525,"internal_node_id":"0.0-2.0-11.0"},{"group":"tri cycles (cube, non-group)","room_assignment":["red","grey","yellow","pink","green","purple","brown","blue"],"door_color_assignment":["white","black"],"door_generator_assignment":[1,0],"goal":6,"start":1,"action_noise":0.1,"location_history":"[1,5,2,6]","action_history":"[1,1,1]","door_history":"[0,0,0]","location_rts":"[849,464,401]","trial_type":"two-door-navigation","trial_index":14,"time_elapsed":375975,"internal_node_id":"0.0-2.0-12.0"},{"group":"tri cycles (cube, non-group)","room_assignment":["red","grey","yellow","pink","green","purple","brown","blue"],"door_color_assignment":["white","black"],"door_generator_assignment":[1,0],"goal":4,"start":6,"action_noise":0.1,"location_history":"[6,5,2,6,5,2,6,4]","action_history":"[1,1,1,1,1,1,1]","door_history":"[0,0,0,0,0,0,0]","location_rts":"[622,409,364,371,385,389,317]","trial_type":"two-door-navigation","trial_index":15,"time_elapsed":389864,"internal_node_id":"0.0-2.0-13.0"},{"group":"tri cycles (cube, non-group)","room_assignment":["red","grey","yellow","pink","green","purple","brown","blue"],"door_color_assignment":["white","black"],"door_generator_assignment":[1,0],"goal":5,"start":4,"action_noise":0.1,"location_history":"[4,0,3,4,0,3,4,0,3,4,0,3,4,0,3,4,0,3,4,0,2,1,0,2,1,5]","action_history":"[1,1,1,1,1,1,1,1,1,1,1,1,1,1,1,1,1,1,1,0,0,0,0,0,0]","door_history":"[0,0,0,0,0,0,0,0,0,0,0,0,0,0,0,0,0,0,0,1,1,1,1,1,1]","location_rts":"[459,480,401,478,448,402,451,343,405,393,354,728,474,414,302,687,347,346,310,391,472,634,484,589,640]","trial_type":"two-door-navigation","trial_index":16,"time_elapsed":431735,"internal_node_id":"0.0-2.0-14.0"},{"group":"tri cycles (cube, non-group)","room_assignment":["red","grey","yellow","pink","green","purple","brown","blue"],"door_color_assignment":["white","black"],"door_generator_assignment":[1,0],"goal":4,"start":5,"action_noise":0.1,"location_history":"[5,1,0,2,1,0,3,7,6,4]","action_history":"[0,0,0,0,0,0,0,0,0]","door_history":"[1,1,1,1,1,1,1,1,1]","location_rts":"[834,415,363,266,410,302,423,551,458]","trial_type":"two-door-navigation","trial_index":17,"time_elapsed":448931,"internal_node_id":"0.0-2.0-15.0"},{"group":"tri cycles (cube, non-group)","room_assignment":["red","grey","yellow","pink","green","purple","brown","blue"],"door_color_assignment":["white","black"],"door_generator_assignment":[1,0],"goal":0,"start":4,"action_noise":0.1,"location_history":"[4,7,3,7,3,7,3,7,6,4,7,3,7,6,4,7,6,5,1,0]","action_history":"[0,0,0,0,0,0,0,0,0,0,0,0,0,0,0,0,0,0,0]","door_history":"[1,1,1,1,1,1,1,1,1,1,1,1,1,1,1,1,1,1,1]","location_rts":"[1365,523,399,472,341,436,599,521,426,442,529,424,513,945,479,512,376,497,438]","trial_type":"two-door-navigation","trial_index":18,"time_elapsed":483121,"internal_node_id":"0.0-2.0-16.0"},{"group":"tri cycles (cube, non-group)","room_assignment":["red","grey","yellow","pink","green","purple","brown","blue"],"door_color_assignment":["white","black"],"door_generator_assignment":[1,0],"goal":7,"start":0,"action_noise":0.1,"location_history":"[0,3,4,7]","action_history":"[1,1,1]","door_history":"[0,0,0]","location_rts":"[2321,463,428]","trial_type":"two-door-navigation","trial_index":19,"time_elapsed":493062,"internal_node_id":"0.0-2.0-17.0"},{"group":"tri cycles (cube, non-group)","room_assignment":["red","grey","yellow","pink","green","purple","brown","blue"],"door_color_assignment":["white","black"],"door_generator_assignment":[1,0],"goal":2,"start":7,"action_noise":0.1,"location_history":"[7,6,4,7,6,4,7,6,4,7,6,4,7,6,4,7,6,4,7,3,4,7,6,4,7,3,7,6,4,7,6,4,7,6,4,7,3,7,3,4,0,3,7,6,5,2]","action_history":"[0,0,0,0,0,0,0,0,0,0,0,0,0,0,0,0,0,0,0,0,0,0,0,0,0,0,0,0,0,0,0,0,0,0,0,1,1,1,1,1,1,1,1,1,1]","door_history":"[1,1,1,1,1,1,1,1,1,1,1,1,1,1,1,1,1,1,1,1,1,1,1,1,1,1,1,1,1,1,1,1,1,1,1,0,0,0,0,0,0,0,0,0,0]","location_rts":"[603,464,465,465,479,368,368,395,132,422,388,551,610,689,725,606,392,400,413,408,519,483,495,481,416,438,363,431,359,620,598,845,598,676,470,2614,508,600,360,475,477,451,450,443,349]","trial_type":"two-door-navigation","trial_index":20,"time_elapsed":568596,"internal_node_id":"0.0-2.0-18.0"},{"group":"tri cycles (cube, non-group)","room_assignment":["red","grey","yellow","pink","green","purple","brown","blue"],"door_color_assignment":["white","black"],"door_generator_assignment":[1,0],"goal":1,"start":2,"action_noise":0.1,"location_history":"[2,6,5,2,6,5,2,6,5,2,6,5,2,6,5,2,6,5,2,6,5,2,6,5,2,6,5,2,6,5,2,6,5,2,6,4,0,2,6,5,2,6,5,1]","action_history":"[1,1,1,1,1,1,1,1,1,1,1,1,1,1,1,1,1,1,1,1,1,1,1,1,1,1,1,1,1,1,1,1,1,1,1,1,1,1,1,1,1,1,1]","door_history":"[0,0,0,0,0,0,0,0,0,0,0,0,0,0,0,0,0,0,0,0,0,0,0,0,0,0,0,0,0,0,0,0,0,0,0,0,0,0,0,0,0,0,0]","location_rts":"[1377,366,399,473,350,395,460,385,442,498,2517,502,422,427,516,478,485,349,2851,569,409,466,405,335,409,400,363,429,418,362,320,395,488,410,224,334,483,576,590,404,420,416,425]","trial_type":"two-door-navigation","trial_index":21,"time_elapsed":641809,"internal_node_id":"0.0-2.0-19.0"},{"group":"tri cycles (cube, non-group)","room_assignment":["red","grey","yellow","pink","green","purple","brown","blue"],"door_color_assignment":["white","black"],"door_generator_assignment":[1,0],"goal":3,"start":1,"action_noise":0.1,"location_history":"[1,0,2,1,0,3]","action_history":"[0,0,0,0,0]","door_history":"[1,1,1,1,1]","location_rts":"[1046,514,424,505,401]","trial_type":"two-door-navigation","trial_index":22,"time_elapsed":653527,"internal_node_id":"0.0-2.0-20.0"},{"group":"tri cycles (cube, non-group)","room_assignment":["red","grey","yellow","pink","green","purple","brown","blue"],"door_color_assignment":["white","black"],"door_generator_assignment":[1,0],"goal":6,"start":3,"action_noise":0.1,"location_history":"[3,4,0,2,6]","action_history":"[1,1,1,1]","door_history":"[0,0,0,0]","location_rts":"[1297,453,545,367]","trial_type":"two-door-navigation","trial_index":23,"time_elapsed":663958,"internal_node_id":"0.0-2.0-21.0"},{"group":"tri cycles (cube, non-group)","room_assignment":["red","grey","yellow","pink","green","purple","brown","blue"],"door_color_assignment":["white","black"],"door_generator_assignment":[1,0],"goal":5,"start":6,"action_noise":0.1,"location_history":"[6,5]","action_history":"[1]","door_history":"[0]","location_rts":"[934]","trial_type":"two-door-navigation","trial_index":24,"time_elapsed":669481,"internal_node_id":"0.0-2.0-22.0"},{"group":"tri cycles (cube, non-group)","room_assignment":["red","grey","yellow","pink","green","purple","brown","blue"],"door_color_assignment":["white","black"],"door_generator_assignment":[1,0],"goal":3,"start":5,"action_noise":0.1,"location_history":"[5,1,0,2,1,0,2,6,4,7,6,4,7,6,4,7,6,4,7,6,4,7,6,4,7,6,4,7,6,4,0,3]","action_history":"[0,0,0,0,0,0,0,0,0,0,0,0,0,0,0,0,0,0,0,0,0,0,0,0,0,0,0,0,0,1,1]","door_history":"[1,1,1,1,1,1,1,1,1,1,1,1,1,1,1,1,1,1,1,1,1,1,1,1,1,1,1,1,1,0,0]","location_rts":"[461,452,389,486,482,502,397,581,497,374,418,394,522,396,412,464,10492,398,397,616,668,437,475,484,424,458,723,431,467,791,412]","trial_type":"two-door-navigation","trial_index":25,"time_elapsed":731093,"internal_node_id":"0.0-2.0-23.0"},{"group":"tri cycles (cube, non-group)","room_assignment":["red","grey","yellow","pink","green","purple","brown","blue"],"door_color_assignment":["white","black"],"door_generator_assignment":[1,0],"goal":0,"start":3,"action_noise":0.1,"location_history":"[3,7,6,4,7,6,4,0]","action_history":"[0,0,0,0,0,0,1]","door_history":"[1,1,1,1,1,1,0]","location_rts":"[735,502,531,488,343,1018,645]","trial_type":"two-door-navigation","trial_index":26,"time_elapsed":746393,"internal_node_id":"0.0-2.0-24.0"},{"group":"tri cycles (cube, non-group)","room_assignment":["red","grey","yellow","pink","green","purple","brown","blue"],"door_color_assignment":["white","black"],"door_generator_assignment":[1,0],"goal":7,"start":0,"action_noise":0.1,"location_history":"[0,3,4,0,2,6,4,7]","action_history":"[1,1,1,0,0,0,0]","door_history":"[0,0,0,1,1,1,1]","location_rts":"[656,642,437,430,589,423,449]","trial_type":"two-door-navigation","trial_index":27,"time_elapsed":761062,"internal_node_id":"0.0-2.0-25.0"},{"group":"tri cycles (cube, non-group)","room_assignment":["red","grey","yellow","pink","green","purple","brown","blue"],"door_color_assignment":["white","black"],"door_generator_assignment":[1,0],"goal":2,"start":7,"action_noise":0.1,"location_history":"[7,6,4,7,6,4,7,3,7,6,4,7,3,4,0,2]","action_history":"[0,0,0,0,0,0,0,0,0,0,1,1,1,1,1]","door_history":"[1,1,1,1,1,1,1,1,1,1,0,0,0,0,0]","location_rts":"[702,750,707,578,426,522,819,891,559,435,1165,708,1277,519,386]","trial_type":"two-door-navigation","trial_index":28,"time_elapsed":791130,"internal_node_id":"0.0-2.0-26.0"},{"group":"tri cycles (cube, non-group)","room_assignment":["red","grey","yellow","pink","green","purple","brown","blue"],"door_color_assignment":["white","black"],"door_generator_assignment":[1,0],"goal":1,"start":2,"action_noise":0.1,"location_history":"[2,1]","action_history":"[1]","door_history":"[0]","location_rts":"[986]","trial_type":"two-door-navigation","trial_index":29,"time_elapsed":796714,"internal_node_id":"0.0-2.0-27.0"},{"group":"tri cycles (cube, non-group)","room_assignment":["red","grey","yellow","pink","green","purple","brown","blue"],"door_color_assignment":["white","black"],"door_generator_assignment":[1,0],"goal":5,"start":1,"action_noise":0.1,"location_history":"[1,5]","action_history":"[1]","door_history":"[0]","location_rts":"[902]","trial_type":"two-door-navigation","trial_index":30,"time_elapsed":802199,"internal_node_id":"0.0-2.0-28.0"},{"group":"tri cycles (cube, non-group)","room_assignment":["red","grey","yellow","pink","green","purple","brown","blue"],"door_color_assignment":["white","black"],"door_generator_assignment":[1,0],"goal":4,"start":5,"action_noise":0.1,"location_history":"[5,1,0,3,4]","action_history":"[0,0,1,1]","door_history":"[1,1,0,0]","location_rts":"[886,890,990,459]","trial_type":"two-door-navigation","trial_index":31,"time_elapsed":813239,"internal_node_id":"0.0-2.0-29.0"},{"group":"tri cycles (cube, non-group)","room_assignment":["red","grey","yellow","pink","green","purple","brown","blue"],"door_color_assignment":["white","black"],"door_generator_assignment":[1,0],"goal":6,"start":4,"action_noise":0.1,"location_history":"[4,0,3,7,6]","action_history":"[1,1,0,0]","door_history":"[0,0,1,1]","location_rts":"[647,460,780,476]","trial_type":"two-door-navigation","trial_index":32,"time_elapsed":823419,"internal_node_id":"0.0-2.0-30.0"},{"group":"tri cycles (cube, non-group)","room_assignment":["red","grey","yellow","pink","green","purple","brown","blue"],"door_color_assignment":["white","black"],"door_generator_assignment":[1,0],"goal":4,"start":6,"action_noise":0.1,"location_history":"[6,4]","action_history":"[0]","door_history":"[1]","location_rts":"[1806]","trial_type":"two-door-navigation","trial_index":33,"time_elapsed":829803,"internal_node_id":"0.0-2.0-31.0"},{"group":"tri cycles (cube, non-group)","room_assignment":["red","grey","yellow","pink","green","purple","brown","blue"],"door_color_assignment":["white","black"],"door_generator_assignment":[1,0],"goal":2,"start":4,"action_noise":0.1,"location_history":"[4,7,6,4,7,3,7,6,4,7,6,4,0,2]","action_history":"[0,0,0,0,0,0,0,0,0,0,0,1,0]","door_history":"[1,1,1,1,1,1,1,1,1,1,1,0,1]","location_rts":"[846,527,1075,547,934,653,576,523,657,4297,867,4020,1226]","trial_type":"two-door-navigation","trial_index":34,"time_elapsed":864044,"internal_node_id":"0.0-2.0-32.0"},{"group":"tri cycles (cube, non-group)","room_assignment":["red","grey","yellow","pink","green","purple","brown","blue"],"door_color_assignment":["white","black"],"door_generator_assignment":[1,0],"goal":0,"start":2,"action_noise":0.1,"location_history":"[2,1,0]","action_history":"[0,0]","door_history":"[1,1]","location_rts":"[762,544]","trial_type":"two-door-navigation","trial_index":35,"time_elapsed":871001,"internal_node_id":"0.0-2.0-33.0"},{"group":"tri cycles (cube, non-group)","room_assignment":["red","grey","yellow","pink","green","purple","brown","blue"],"door_color_assignment":["white","black"],"door_generator_assignment":[1,0],"goal":5,"start":0,"action_noise":0.1,"location_history":"[0,2,1,0,2,1,0,2,1,0,2,1,0,2,1,5]","action_history":"[0,0,0,0,0,0,0,0,0,0,0,0,0,0,0]","door_history":"[1,1,1,1,1,1,1,1,1,1,1,1,1,1,1]","location_rts":"[1093,578,681,525,620,652,697,531,1482,8898,1248,7357,1135,6511,2340]","trial_type":"two-door-navigation","trial_index":36,"time_elapsed":925025,"internal_node_id":"0.0-2.0-34.0"},{"group":"tri cycles (cube, non-group)","room_assignment":["red","grey","yellow","pink","green","purple","brown","blue"],"door_color_assignment":["white","black"],"door_generator_assignment":[1,0],"goal":1,"start":5,"action_noise":0.1,"location_history":"[5,1]","action_history":"[0]","door_history":"[1]","location_rts":"[1033]","trial_type":"two-door-navigation","trial_index":37,"time_elapsed":930649,"internal_node_id":"0.0-2.0-35.0"},{"group":"tri cycles (cube, non-group)","room_assignment":["red","grey","yellow","pink","green","purple","brown","blue"],"door_color_assignment":["white","black"],"door_generator_assignment":[1,0],"goal":7,"start":1,"action_noise":0.1,"location_history":"[1,5,2,1,0,2,1,0,2,1,0,2,1,5,1,0,2,1,0,2,1,0,2,6,5,2,6,5,2,6,5,1,0,2,1,0,2,1,0,2,6,4,7]","action_history":"[0,0,0,0,0,0,0,0,0,0,0,0,0,0,0,0,0,0,0,0,0,1,1,1,1,1,1,1,1,0,0,0,0,0,0,0,0,0,0,0,0,0]","door_history":"[1,1,1,1,1,1,1,1,1,1,1,1,1,1,1,1,1,1,1,1,1,0,0,0,0,0,0,0,0,1,1,1,1,1,1,1,1,1,1,1,1,1]","location_rts":"[755,882,548,480,806,793,964,835,657,953,895,5028,882,508,456,550,566,561,530,617,560,703,572,987,1052,772,587,721,637,1208,947,605,563,497,578,525,454,587,599,510,496,504]","trial_type":"two-door-navigation","trial_index":38,"time_elapsed":1012197,"internal_node_id":"0.0-2.0-36.0"},{"group":"tri cycles (cube, non-group)","room_assignment":["red","grey","yellow","pink","green","purple","brown","blue"],"door_color_assignment":["white","black"],"door_generator_assignment":[1,0],"goal":3,"start":7,"action_noise":0.1,"location_history":"[7,6,4,7,6,4,7,6,4,7,6,4,7,6,4,7,6,4,7,6,4,7,6,4,7,6,5,2,6,5,2,6,4,7,6,4,7,6,4,7,6,4,7,6,4,7,3]","action_history":"[0,0,0,0,0,0,0,0,0,0,0,0,0,0,0,0,0,0,0,0,0,0,0,0,0,1,1,1,1,1,1,1,0,0,0,0,0,0,0,0,0,0,0,0,0,0]","door_history":"[1,1,1,1,1,1,1,1,1,1,1,1,1,1,1,1,1,1,1,1,1,1,1,1,1,0,0,0,0,0,0,0,1,1,1,1,1,1,1,1,1,1,1,1,1,1]","location_rts":"[6990,660,642,682,661,745,1157,656,944,1218,579,1283,1307,2812,1111,1291,642,992,893,855,2050,893,1127,1103,693,763,893,804,834,802,796,1282,832,614,799,686,899,563,730,692,2112,847,9810,732,472,538]","trial_type":"two-door-navigation","trial_index":39,"time_elapsed":1123659,"internal_node_id":"0.0-2.0-37.0"},{"group":"tri cycles (cube, non-group)","room_assignment":["red","grey","yellow","pink","green","purple","brown","blue"],"door_color_assignment":["white","black"],"door_generator_assignment":[1,0],"goal":6,"start":3,"action_noise":0.1,"location_history":"[3,7,6]","action_history":"[0,0]","door_history":"[1,1]","location_rts":"[2044,1041]","trial_type":"two-door-navigation","trial_index":40,"time_elapsed":1132399,"internal_node_id":"0.0-2.0-38.0"},{"group":"tri cycles (cube, non-group)","room_assignment":["red","grey","yellow","pink","green","purple","brown","blue"],"door_color_assignment":["white","black"],"door_generator_assignment":[1,0],"goal":2,"start":6,"action_noise":0.1,"location_history":"[6,4,7,6,4,7,6,4,7,6,4,7,6,4,7,3,4,0,3,7,3,7,6,4,0,2]","action_history":"[0,0,0,0,0,0,0,0,0,0,0,0,0,0,1,1,1,1,1,1,0,0,0,0,0]","door_history":"[1,1,1,1,1,1,1,1,1,1,1,1,1,1,0,0,0,0,0,0,1,1,1,1,1]","location_rts":"[1100,627,811,810,440,466,519,641,491,592,557,970,611,1122,593,629,499,559,616,1196,1233,647,590,840,697]","trial_type":"two-door-navigation","trial_index":41,"time_elapsed":1180580,"internal_node_id":"0.0-2.0-39.0"},{"group":"tri cycles (cube, non-group)","room_assignment":["red","grey","yellow","pink","green","purple","brown","blue"],"door_color_assignment":["white","black"],"door_generator_assignment":[1,0],"goal":1,"start":2,"action_noise":0.1,"location_history":"[2,1]","action_history":"[0]","door_history":"[1]","location_rts":"[1169]","trial_type":"two-door-navigation","trial_index":42,"time_elapsed":1186333,"internal_node_id":"0.0-2.0-40.0"},{"group":"tri cycles (cube, non-group)","room_assignment":["red","grey","yellow","pink","green","purple","brown","blue"],"door_color_assignment":["white","black"],"door_generator_assignment":[1,0],"goal":0,"start":1,"action_noise":0.1,"location_history":"[1,0]","action_history":"[0]","door_history":"[1]","location_rts":"[512]","trial_type":"two-door-navigation","trial_index":43,"time_elapsed":1191433,"internal_node_id":"0.0-2.0-41.0"},{"group":"tri cycles (cube, non-group)","room_assignment":["red","grey","yellow","pink","green","purple","brown","blue"],"door_color_assignment":["white","black"],"door_generator_assignment":[1,0],"goal":4,"start":0,"action_noise":0.1,"location_history":"[0,2,1,5,1,0,2,6,5,2,6,5,2,6,5,1,0,2,1,0,2,1,0,2,1,0,2,1,5,2,6,5,2,6,5,2,6,5,2,6,5,1,0,2,1,0,2,1,5,2,1,0,2,1,0,2,1,0,2,1,0,2,1,0,2,1,0,2,1,0,2,1,0,2,1,0,2,1,0,2,6,4]","action_history":"[0,0,0,0,0,0,1,1,1,1,1,1,1,1,0,0,0,0,0,0,0,0,0,0,0,0,1,1,1,1,1,1,1,1,1,1,1,1,1,1,0,0,0,0,0,0,0,0,0,0,0,0,0,0,0,0,0,0,0,0,0,0,0,0,0,0,0,0,0,0,0,0,0,0,0,0,0,0,0,1,1]","door_history":"[1,1,1,1,1,1,0,0,0,0,0,0,0,0,1,1,1,1,1,1,1,1,1,1,1,1,0,0,0,0,0,0,0,0,0,0,0,0,0,0,1,1,1,1,1,1,1,1,1,1,1,1,1,1,1,1,1,1,1,1,1,1,1,1,1,1,1,1,1,1,1,1,1,1,1,1,1,1,1,0,0]","location_rts":"[914,1081,987,992,1028,926,2188,607,684,587,518,684,567,575,835,652,795,857,708,642,637,528,577,1396,1692,555,917,524,789,1378,558,548,513,550,756,491,525,778,773,434,1137,617,726,514,559,520,487,462,665,538,563,487,661,777,693,703,975,746,10331,875,644,699,570,531,576,531,652,699,653,555,543,629,456,768,515,539,559,623,536,1023,650]","trial_type":"two-door-navigation","trial_index":44,"time_elapsed":1349623,"internal_node_id":"0.0-2.0-42.0"},{"group":"tri cycles (cube, non-group)","room_assignment":["red","grey","yellow","pink","green","purple","brown","blue"],"door_color_assignment":["white","black"],"door_generator_assignment":[1,0],"goal":6,"start":4,"action_noise":0.1,"location_history":"[4,0,3,4,7,6]","action_history":"[1,1,0,0,0]","door_history":"[0,0,1,1,1]","location_rts":"[898,797,1072,589,755]","trial_type":"two-door-navigation","trial_index":45,"time_elapsed":1362602,"internal_node_id":"0.0-2.0-43.0"},{"group":"tri cycles (cube, non-group)","room_assignment":["red","grey","yellow","pink","green","purple","brown","blue"],"door_color_assignment":["white","black"],"door_generator_assignment":[1,0],"goal":3,"start":6,"action_noise":0.1,"location_history":"[6,4,7,6,4,7,6,4,7,6,4,7,6,4,7,6,4,7,6,4,7,6,4,7,3]","action_history":"[0,0,0,0,0,0,0,0,0,0,0,0,0,0,0,0,0,0,0,0,0,0,0,1]","door_history":"[1,1,1,1,1,1,1,1,1,1,1,1,1,1,1,1,1,1,1,1,1,1,1,0]","location_rts":"[633,554,679,5572,914,1306,490,657,765,561,570,449,511,587,496,661,530,515,504,731,625,565,501,1664]","trial_type":"two-door-navigation","trial_index":46,"time_elapsed":1412912,"internal_node_id":"0.0-2.0-44.0"},{"group":"tri cycles (cube, non-group)","room_assignment":["red","grey","yellow","pink","green","purple","brown","blue"],"door_color_assignment":["white","black"],"door_generator_assignment":[1,0],"goal":7,"start":3,"action_noise":0.1,"location_history":"[3,7]","action_history":"[0]","door_history":"[1]","location_rts":"[4908]","trial_type":"two-door-navigation","trial_index":47,"time_elapsed":1422412,"internal_node_id":"0.0-2.0-45.0"},{"group":"tri cycles (cube, non-group)","room_assignment":["red","grey","yellow","pink","green","purple","brown","blue"],"door_color_assignment":["white","black"],"door_generator_assignment":[1,0],"goal":5,"start":7,"action_noise":0.1,"location_history":"[7,6,4,7,6,4,7,6,4,7,6,4,7,6,4,7,6,4,7,6,5]","action_history":"[0,0,0,0,0,0,0,0,0,0,0,0,0,0,0,0,0,0,0,0]","door_history":"[1,1,1,1,1,1,1,1,1,1,1,1,1,1,1,1,1,1,1,1]","location_rts":"[4508,3568,827,786,1074,927,477,610,705,654,630,662,680,621,599,584,547,996,13487,563]","trial_type":"two-door-navigation","trial_index":48,"time_elapsed":1480941,"internal_node_id":"0.0-2.0-46.0"},{"group":"tri cycles (cube, non-group)","room_assignment":["red","grey","yellow","pink","green","purple","brown","blue"],"door_color_assignment":["white","black"],"door_generator_assignment":[1,0],"goal":1,"start":5,"action_noise":0.1,"location_history":"[5,1]","action_history":"[0]","door_history":"[1]","location_rts":"[1813]","trial_type":"two-door-navigation","trial_index":49,"time_elapsed":1487343,"internal_node_id":"0.0-2.0-47.0"},{"group":"tri cycles (cube, non-group)","room_assignment":["red","grey","yellow","pink","green","purple","brown","blue"],"door_color_assignment":["white","black"],"door_generator_assignment":[1,0],"goal":6,"start":1,"action_noise":0.1,"location_history":"[1,0,2,1,0,2,1,5,1,0,2,1,0,2,1,0,2,1,0,2,6]","action_history":"[0,0,0,0,0,0,0,0,0,0,0,0,0,0,0,0,0,0,0,0]","door_history":"[1,1,1,1,1,1,1,1,1,1,1,1,1,1,1,1,1,1,1,1]","location_rts":"[892,645,728,1026,633,463,667,529,633,587,627,645,589,523,636,553,808,567,430,430]","trial_type":"two-door-navigation","trial_index":50,"time_elapsed":1525000,"internal_node_id":"0.0-2.0-48.0"},{"group":"tri cycles (cube, non-group)","room_assignment":["red","grey","yellow","pink","green","purple","brown","blue"],"door_color_assignment":["white","black"],"door_generator_assignment":[1,0],"goal":0,"start":6,"action_noise":0.1,"location_history":"[6,5,2,6,4,0]","action_history":"[1,1,1,1,1]","door_history":"[0,0,0,0,0]","location_rts":"[699,935,500,555,767]","trial_type":"two-door-navigation","trial_index":51,"time_elapsed":1537339,"internal_node_id":"0.0-2.0-49.0"},{"view_history":"[{\"page_index\":0,\"viewing_time\":5411}]","rt":5412,"trial_type":"instructions","trial_index":52,"time_elapsed":1543756,"internal_node_id":"0.0-3.0"},{"view_history":"[{\"page_index\":0,\"viewing_time\":3585},{\"page_index\":1,\"viewing_time\":65781}]","rt":69367,"trial_type":"instructions","trial_index":53,"time_elapsed":1614127,"internal_node_id":"0.0-4.0"},{"group":"square cycles (cube, non-group)","fractal_assignment":["../images/grn_red.png","../images/org_blu.png","../images/gry_blk.png","../images/cyn_red.png","../images/blu_wht.png","../images/pnk_blu.png","../images/ylw_pnk.png","../images/ylw_slt.png"],"mutagen_generator_assignment":[1,0],"goal":6,"start":3,"action_noise":0.1,"location_history":"[3,2,3,2,3,2,3,2,3,0,1,2,6]","action_history":"[1,0,1,0,1,0,1,0,1,0,0,0]","mutagen_history":"[0,1,0,1,0,1,0,1,0,1,1,1]","location_rts":"[6721,538,72,121,224,88,85,94,38,57,6,552]","trial_type":"fractal-mutation","trial_index":54,"time_elapsed":1639240,"internal_node_id":"0.0-5.0-0.0"},{"group":"square cycles (cube, non-group)","fractal_assignment":["../images/grn_red.png","../images/org_blu.png","../images/gry_blk.png","../images/cyn_red.png","../images/blu_wht.png","../images/pnk_blu.png","../images/ylw_pnk.png","../images/ylw_slt.png"],"mutagen_generator_assignment":[1,0],"goal":1,"start":6,"action_noise":0.1,"location_history":"[6,7,6,5,1]","action_history":"[1,0,0,1]","mutagen_history":"[0,1,1,0]","location_rts":"[569,320,610,198]","trial_type":"fractal-mutation","trial_index":55,"time_elapsed":1648797,"internal_node_id":"0.0-5.0-1.0"},{"group":"square cycles (cube, non-group)","fractal_assignment":["../images/grn_red.png","../images/org_blu.png","../images/gry_blk.png","../images/cyn_red.png","../images/blu_wht.png","../images/pnk_blu.png","../images/ylw_pnk.png","../images/ylw_slt.png"],"mutagen_generator_assignment":[1,0],"goal":2,"start":1,"action_noise":0.1,"location_history":"[1,0,4,5,4,5,1,2]","action_history":"[1,0,1,0,1,1,0]","mutagen_history":"[0,1,0,1,0,0,1]","location_rts":"[766,227,295,357,480,369,395]","trial_type":"fractal-mutation","trial_index":56,"time_elapsed":1662784,"internal_node_id":"0.0-5.0-2.0"},{"group":"square cycles (cube, non-group)","fractal_assignment":["../images/grn_red.png","../images/org_blu.png","../images/gry_blk.png","../images/cyn_red.png","../images/blu_wht.png","../images/pnk_blu.png","../images/ylw_pnk.png","../images/ylw_slt.png"],"mutagen_generator_assignment":[1,0],"goal":0,"start":2,"action_noise":0.1,"location_history":"[2,6,5,4,5,4,7,3,0]","action_history":"[1,0,0,1,1,0,1,0]","mutagen_history":"[0,1,1,0,0,1,0,1]","location_rts":"[54504,1252,521,228,347,5,150,111]","trial_type":"fractal-mutation","trial_index":57,"time_elapsed":1732076,"internal_node_id":"0.0-5.0-3.0"},{"group":"square cycles (cube, non-group)","fractal_assignment":["../images/grn_red.png","../images/org_blu.png","../images/gry_blk.png","../images/cyn_red.png","../images/blu_wht.png","../images/pnk_blu.png","../images/ylw_pnk.png","../images/ylw_slt.png"],"mutagen_generator_assignment":[1,0],"goal":7,"start":0,"action_noise":0.1,"location_history":"[0,4,5,4,7]","action_history":"[1,1,0,1]","mutagen_history":"[0,0,1,0]","location_rts":"[881,499,464,150]","trial_type":"fractal-mutation","trial_index":58,"time_elapsed":1741908,"internal_node_id":"0.0-5.0-4.0"},{"group":"square cycles (cube, non-group)","fractal_assignment":["../images/grn_red.png","../images/org_blu.png","../images/gry_blk.png","../images/cyn_red.png","../images/blu_wht.png","../images/pnk_blu.png","../images/ylw_pnk.png","../images/ylw_slt.png"],"mutagen_generator_assignment":[1,0],"goal":5,"start":7,"action_noise":0.1,"location_history":"[7,6,7,3,0,4,7,3,0,4,7,3,0,1,0,1,0,1,0,1,0,1,2,6,7,3,0,4,7,6,5]","action_history":"[0,1,1,0,1,0,1,0,1,0,1,0,0,1,0,1,0,1,0,1,0,1,0,1,1,1,1,0,0,1]","mutagen_history":"[1,0,0,1,0,1,0,1,0,1,0,1,1,0,1,0,1,0,1,0,1,0,1,0,0,0,0,1,1,0]","location_rts":"[2660,675,15434,108,13,13,36,13,68,157,56,61,1680,33,133,206,88,119,32,128,376,11,259,15,103,158,59,525,350,245]","trial_type":"fractal-mutation","trial_index":59,"time_elapsed":1801705,"internal_node_id":"0.0-5.0-5.0"},{"group":"square cycles (cube, non-group)","fractal_assignment":["../images/grn_red.png","../images/org_blu.png","../images/gry_blk.png","../images/cyn_red.png","../images/blu_wht.png","../images/pnk_blu.png","../images/ylw_pnk.png","../images/ylw_slt.png"],"mutagen_generator_assignment":[1,0],"goal":4,"start":5,"action_noise":0.1,"location_history":"[5,1,2,6,7,3,2,6,5,4]","action_history":"[1,0,1,1,1,1,0,0,0]","mutagen_history":"[0,1,0,0,0,0,1,1,1]","location_rts":"[937,359,128,596,479,502,606,635,293]","trial_type":"fractal-mutation","trial_index":60,"time_elapsed":1819477,"internal_node_id":"0.0-5.0-6.0"},{"group":"square cycles (cube, non-group)","fractal_assignment":["../images/grn_red.png","../images/org_blu.png","../images/gry_blk.png","../images/cyn_red.png","../images/blu_wht.png","../images/pnk_blu.png","../images/ylw_pnk.png","../images/ylw_slt.png"],"mutagen_generator_assignment":[1,0],"goal":2,"start":4,"action_noise":0.1,"location_history":"[4,7,3,2]","action_history":"[0,1,1]","mutagen_history":"[1,0,0]","location_rts":"[1907,532,412]","trial_type":"fractal-mutation","trial_index":61,"time_elapsed":1829088,"internal_node_id":"0.0-5.0-7.0"},{"group":"square cycles (cube, non-group)","fractal_assignment":["../images/grn_red.png","../images/org_blu.png","../images/gry_blk.png","../images/cyn_red.png","../images/blu_wht.png","../images/pnk_blu.png","../images/ylw_pnk.png","../images/ylw_slt.png"],"mutagen_generator_assignment":[1,0],"goal":3,"start":2,"action_noise":0.1,"location_history":"[2,3]","action_history":"[0]","mutagen_history":"[1]","location_rts":"[396]","trial_type":"fractal-mutation","trial_index":62,"time_elapsed":1834073,"internal_node_id":"0.0-5.0-8.0"},{"group":"square cycles (cube, non-group)","fractal_assignment":["../images/grn_red.png","../images/org_blu.png","../images/gry_blk.png","../images/cyn_red.png","../images/blu_wht.png","../images/pnk_blu.png","../images/ylw_pnk.png","../images/ylw_slt.png"],"mutagen_generator_assignment":[1,0],"goal":7,"start":3,"action_noise":0.1,"location_history":"[3,0,1,2,3,2,6,7]","action_history":"[0,0,0,0,1,1,1]","mutagen_history":"[1,1,1,1,0,0,0]","location_rts":"[1090,788,614,646,605,659,502]","trial_type":"fractal-mutation","trial_index":63,"time_elapsed":1850074,"internal_node_id":"0.0-5.0-9.0"},{"group":"square cycles (cube, non-group)","fractal_assignment":["../images/grn_red.png","../images/org_blu.png","../images/gry_blk.png","../images/cyn_red.png","../images/blu_wht.png","../images/pnk_blu.png","../images/ylw_pnk.png","../images/ylw_slt.png"],"mutagen_generator_assignment":[1,0],"goal":0,"start":7,"action_noise":0.1,"location_history":"[7,3,0]","action_history":"[0,0]","mutagen_history":"[1,1]","location_rts":"[470,692]","trial_type":"fractal-mutation","trial_index":64,"time_elapsed":1856920,"internal_node_id":"0.0-5.0-10.0"},{"group":"square cycles (cube, non-group)","fractal_assignment":["../images/grn_red.png","../images/org_blu.png","../images/gry_blk.png","../images/cyn_red.png","../images/blu_wht.png","../images/pnk_blu.png","../images/ylw_pnk.png","../images/ylw_slt.png"],"mutagen_generator_assignment":[1,0],"goal":1,"start":0,"action_noise":0.1,"location_history":"[0,4,5,4,7,3,0,4,5,4,5,1]","action_history":"[1,1,0,0,1,0,1,1,0,1,1]","mutagen_history":"[0,0,1,1,0,1,0,0,1,0,0]","location_rts":"[1252,727,701,703,993,1316,815,621,1072,801,563]","trial_type":"fractal-mutation","trial_index":65,"time_elapsed":1881881,"internal_node_id":"0.0-5.0-11.0"},{"group":"square cycles (cube, non-group)","fractal_assignment":["../images/grn_red.png","../images/org_blu.png","../images/gry_blk.png","../images/cyn_red.png","../images/blu_wht.png","../images/pnk_blu.png","../images/ylw_pnk.png","../images/ylw_slt.png"],"mutagen_generator_assignment":[1,0],"goal":6,"start":1,"action_noise":0.1,"location_history":"[1,2,3,0,1,2,6]","action_history":"[0,0,0,0,0,1]","mutagen_history":"[1,1,1,1,1,0]","location_rts":"[1010,733,581,620,612,500]","trial_type":"fractal-mutation","trial_index":66,"time_elapsed":1895963,"internal_node_id":"0.0-5.0-12.0"},{"group":"square cycles (cube, non-group)","fractal_assignment":["../images/grn_red.png","../images/org_blu.png","../images/gry_blk.png","../images/cyn_red.png","../images/blu_wht.png","../images/pnk_blu.png","../images/ylw_pnk.png","../images/ylw_slt.png"],"mutagen_generator_assignment":[1,0],"goal":4,"start":6,"action_noise":0.1,"location_history":"[6,5,1,2,3,2,3,2,3,2,3,0,4]","action_history":"[1,0,0,0,1,0,1,0,1,0,0,1]","mutagen_history":"[0,1,1,1,0,1,0,1,0,1,1,0]","location_rts":"[515,617,1117,831,2600,2557,1157,657,775,855,840,673]","trial_type":"fractal-mutation","trial_index":67,"time_elapsed":1925652,"internal_node_id":"0.0-5.0-13.0"},{"group":"square cycles (cube, non-group)","fractal_assignment":["../images/grn_red.png","../images/org_blu.png","../images/gry_blk.png","../images/cyn_red.png","../images/blu_wht.png","../images/pnk_blu.png","../images/ylw_pnk.png","../images/ylw_slt.png"],"mutagen_generator_assignment":[1,0],"goal":5,"start":4,"action_noise":0.1,"location_history":"[4,5]","action_history":"[1]","mutagen_history":"[0]","location_rts":"[7234]","trial_type":"fractal-mutation","trial_index":68,"time_elapsed":1937474,"internal_node_id":"0.0-5.0-14.0"},{"group":"square cycles (cube, non-group)","fractal_assignment":["../images/grn_red.png","../images/org_blu.png","../images/gry_blk.png","../images/cyn_red.png","../images/blu_wht.png","../images/pnk_blu.png","../images/ylw_pnk.png","../images/ylw_slt.png"],"mutagen_generator_assignment":[1,0],"goal":4,"start":5,"action_noise":0.1,"location_history":"[5,4]","action_history":"[0]","mutagen_history":"[1]","location_rts":"[12846]","trial_type":"fractal-mutation","trial_index":69,"time_elapsed":1954911,"internal_node_id":"0.0-5.0-15.0"},{"group":"square cycles (cube, non-group)","fractal_assignment":["../images/grn_red.png","../images/org_blu.png","../images/gry_blk.png","../images/cyn_red.png","../images/blu_wht.png","../images/pnk_blu.png","../images/ylw_pnk.png","../images/ylw_slt.png"],"mutagen_generator_assignment":[1,0],"goal":0,"start":4,"action_noise":0.1,"location_history":"[4,5,1,0]","action_history":"[1,1,1]","mutagen_history":"[0,0,0]","location_rts":"[697,869,673]","trial_type":"fractal-mutation","trial_index":70,"time_elapsed":1963898,"internal_node_id":"0.0-5.0-16.0"},{"group":"square cycles (cube, non-group)","fractal_assignment":["../images/grn_red.png","../images/org_blu.png","../images/gry_blk.png","../images/cyn_red.png","../images/blu_wht.png","../images/pnk_blu.png","../images/ylw_pnk.png","../images/ylw_slt.png"],"mutagen_generator_assignment":[1,0],"goal":7,"start":0,"action_noise":0.1,"location_history":"[0,1,2,3,0,1,2,3,2,6,5,1,2,3,2,3,2,6,5,1,0,1,0,1,2,6,5,1,0,1,0,1,0,1,2,3,2,3,2,6,7]","action_history":"[0,0,0,0,0,0,0,1,1,0,1,0,0,1,0,1,1,0,0,0,0,1,0,0,1,0,0,1,0,1,0,1,1,0,1,1,0,1,0,1]","mutagen_history":"[1,1,1,1,1,1,1,0,0,1,0,1,1,0,1,0,0,1,1,1,1,0,1,1,0,1,1,0,1,0,1,0,0,1,0,0,1,0,1,0]","location_rts":"[722,961,1558,969,1603,1504,895,654,1730,577,526,769,4963,4420,921,395,1234,1375,1414,751,1249,25198,1637,321,572,537,603,560,609,676,571,258,815,780,1032,728,470,577,738,985]","trial_type":"fractal-mutation","trial_index":71,"time_elapsed":2077551,"internal_node_id":"0.0-5.0-17.0"},{"group":"square cycles (cube, non-group)","fractal_assignment":["../images/grn_red.png","../images/org_blu.png","../images/gry_blk.png","../images/cyn_red.png","../images/blu_wht.png","../images/pnk_blu.png","../images/ylw_pnk.png","../images/ylw_slt.png"],"mutagen_generator_assignment":[1,0],"goal":2,"start":7,"action_noise":0.1,"location_history":"[7,6,7,6,5,1,2]","action_history":"[0,1,0,0,1,0]","mutagen_history":"[1,0,1,1,0,1]","location_rts":"[1155,1209,644,845,1053,906]","trial_type":"fractal-mutation","trial_index":72,"time_elapsed":2093373,"internal_node_id":"0.0-5.0-18.0"},{"group":"square cycles (cube, non-group)","fractal_assignment":["../images/grn_red.png","../images/org_blu.png","../images/gry_blk.png","../images/cyn_red.png","../images/blu_wht.png","../images/pnk_blu.png","../images/ylw_pnk.png","../images/ylw_slt.png"],"mutagen_generator_assignment":[1,0],"goal":1,"start":2,"action_noise":0.1,"location_history":"[2,6,7,6,5,1]","action_history":"[1,1,0,0,1]","mutagen_history":"[0,0,1,1,0]","location_rts":"[2027,1033,518,866,565]","trial_type":"fractal-mutation","trial_index":73,"time_elapsed":2107302,"internal_node_id":"0.0-5.0-19.0"},{"group":"square cycles (cube, non-group)","fractal_assignment":["../images/grn_red.png","../images/org_blu.png","../images/gry_blk.png","../images/cyn_red.png","../images/blu_wht.png","../images/pnk_blu.png","../images/ylw_pnk.png","../images/ylw_slt.png"],"mutagen_generator_assignment":[1,0],"goal":3,"start":1,"action_noise":0.1,"location_history":"[1,0,4,5,4,5,4,5,4,5,1,0,1,0,1,2,6,5,1,0,4,7,3]","action_history":"[1,0,1,0,1,0,1,0,1,0,1,0,1,0,0,1,0,1,0,1,0,1]","mutagen_history":"[0,1,0,1,0,1,0,1,0,1,0,1,0,1,1,0,1,0,1,0,1,0]","location_rts":"[666,628,608,1102,1253,1190,600,598,972,974,1018,953,934,652,1183,565,925,1712,537,1528,650,741]","trial_type":"fractal-mutation","trial_index":74,"time_elapsed":2154555,"internal_node_id":"0.0-5.0-20.0"},{"group":"square cycles (cube, non-group)","fractal_assignment":["../images/grn_red.png","../images/org_blu.png","../images/gry_blk.png","../images/cyn_red.png","../images/blu_wht.png","../images/pnk_blu.png","../images/ylw_pnk.png","../images/ylw_slt.png"],"mutagen_generator_assignment":[1,0],"goal":6,"start":3,"action_noise":0.1,"location_history":"[3,2,3,2,3,0,1,0,1,0,1,2,3,0,4,5,4,5,4,5,4,5,4,5,4,7,6]","action_history":"[1,0,1,0,1,0,1,0,1,0,0,1,0,1,1,0,1,0,1,0,1,0,1,0,1,0]","mutagen_history":"[0,1,0,1,0,1,0,1,0,1,1,0,1,0,0,1,0,1,0,1,0,1,0,1,0,1]","location_rts":"[5522,600,1079,1135,598,604,623,648,615,688,997,1726,914,600,868,669,1635,912,912,694,829,997,454,503,686,523]","trial_type":"fractal-mutation","trial_index":75,"time_elapsed":2212204,"internal_node_id":"0.0-5.0-21.0"},{"group":"square cycles (cube, non-group)","fractal_assignment":["../images/grn_red.png","../images/org_blu.png","../images/gry_blk.png","../images/cyn_red.png","../images/blu_wht.png","../images/pnk_blu.png","../images/ylw_pnk.png","../images/ylw_slt.png"],"mutagen_generator_assignment":[1,0],"goal":5,"start":6,"action_noise":0.1,"location_history":"[6,5]","action_history":"[0]","mutagen_history":"[1]","location_rts":"[1111]","trial_type":"fractal-mutation","trial_index":76,"time_elapsed":2217912,"internal_node_id":"0.0-5.0-22.0"},{"group":"square cycles (cube, non-group)","fractal_assignment":["../images/grn_red.png","../images/org_blu.png","../images/gry_blk.png","../images/cyn_red.png","../images/blu_wht.png","../images/pnk_blu.png","../images/ylw_pnk.png","../images/ylw_slt.png"],"mutagen_generator_assignment":[1,0],"goal":3,"start":5,"action_noise":0.1,"location_history":"[5,1,2,6,5,1,0,1,2,3]","action_history":"[1,0,1,0,1,0,1,0,0]","mutagen_history":"[0,1,0,1,0,1,0,1,1]","location_rts":"[621,974,882,1105,1321,873,1308,675,667]","trial_type":"fractal-mutation","trial_index":77,"time_elapsed":2239584,"internal_node_id":"0.0-5.0-23.0"},{"group":"square cycles (cube, non-group)","fractal_assignment":["../images/grn_red.png","../images/org_blu.png","../images/gry_blk.png","../images/cyn_red.png","../images/blu_wht.png","../images/pnk_blu.png","../images/ylw_pnk.png","../images/ylw_slt.png"],"mutagen_generator_assignment":[1,0],"goal":0,"start":3,"action_noise":0.1,"location_history":"[3,0]","action_history":"[0]","mutagen_history":"[1]","location_rts":"[707]","trial_type":"fractal-mutation","trial_index":78,"time_elapsed":2244880,"internal_node_id":"0.0-5.0-24.0"},{"group":"square cycles (cube, non-group)","fractal_assignment":["../images/grn_red.png","../images/org_blu.png","../images/gry_blk.png","../images/cyn_red.png","../images/blu_wht.png","../images/pnk_blu.png","../images/ylw_pnk.png","../images/ylw_slt.png"],"mutagen_generator_assignment":[1,0],"goal":7,"start":0,"action_noise":0.1,"location_history":"[0,4,5,1,0,4,7]","action_history":"[1,1,1,1,1,0]","mutagen_history":"[0,0,0,0,0,1]","location_rts":"[960,814,702,1148,954,1140]","trial_type":"fractal-mutation","trial_index":79,"time_elapsed":2260585,"internal_node_id":"0.0-5.0-25.0"},{"group":"square cycles (cube, non-group)","fractal_assignment":["../images/grn_red.png","../images/org_blu.png","../images/gry_blk.png","../images/cyn_red.png","../images/blu_wht.png","../images/pnk_blu.png","../images/ylw_pnk.png","../images/ylw_slt.png"],"mutagen_generator_assignment":[1,0],"goal":2,"start":7,"action_noise":0.1,"location_history":"[7,6,7,3,2]","action_history":"[0,1,1,0]","mutagen_history":"[1,0,0,1]","location_rts":"[979,650,578,622]","trial_type":"fractal-mutation","trial_index":80,"time_elapsed":2271262,"internal_node_id":"0.0-5.0-26.0"},{"group":"square cycles (cube, non-group)","fractal_assignment":["../images/grn_red.png","../images/org_blu.png","../images/gry_blk.png","../images/cyn_red.png","../images/blu_wht.png","../images/pnk_blu.png","../images/ylw_pnk.png","../images/ylw_slt.png"],"mutagen_generator_assignment":[1,0],"goal":1,"start":2,"action_noise":0.1,"location_history":"[2,6,5,4,7,6,7,3,0,4,7,3,0,4,7,3,0,4,7,3,0,4,7,3,0,4,5,4,5,4,5,4,5,4,5,4,5,4,5,4,5,4,5,4,5,4,5,4,5,4,5,4,5,4,5,4,5,4,5,4,5,4,5,4,5,4,5,4,7,6,7,6,7,3,0,1]","action_history":"[1,0,0,0,1,1,1,0,1,0,1,0,1,0,1,0,1,0,1,0,1,0,1,0,1,1,0,1,0,1,0,1,0,1,0,1,0,1,0,1,0,1,0,1,0,1,0,1,0,1,0,1,0,1,0,1,0,1,0,1,0,1,0,1,0,1,0,1,0,1,0,1,1,0,0]","mutagen_history":"[0,1,1,1,0,0,0,1,0,1,0,1,0,1,0,1,0,1,0,1,0,1,0,1,0,0,1,0,1,0,1,0,1,0,1,0,1,0,1,0,1,0,1,0,1,0,1,0,1,0,1,0,1,0,1,0,1,0,1,0,1,0,1,0,1,0,1,0,1,0,1,0,0,1,1]","location_rts":"[537,610,846,1290,1049,1053,1198,890,2332,1295,1040,1247,1306,480,570,593,2410,532,541,869,765,578,527,571,425,706,307,477,986,730,513,475,496,603,136,467,483,480,639,1216,680,18857,200,897,520,1057,738,1911,443,1114,511,555,441,678,453,554,543,738,530,586,653,895,1074,1072,676,330,1592,623,850,931,1293,999,723,652,622]","trial_type":"fractal-mutation","trial_index":81,"time_elapsed":2433186,"internal_node_id":"0.0-5.0-27.0"},{"group":"square cycles (cube, non-group)","fractal_assignment":["../images/grn_red.png","../images/org_blu.png","../images/gry_blk.png","../images/cyn_red.png","../images/blu_wht.png","../images/pnk_blu.png","../images/ylw_pnk.png","../images/ylw_slt.png"],"mutagen_generator_assignment":[1,0],"goal":5,"start":1,"action_noise":0.1,"location_history":"[1,0,1,0,1,0,1,2,3,2,3,2,3,2,3,2,3,2,3,2,3,2,3,2,3,0,4,7,3,0,1,0,1,0,1,0,1,2,3,0,4,5]","action_history":"[1,0,1,1,1,0,1,0,1,0,1,0,1,0,1,0,1,0,1,0,1,0,1,0,0,1,0,1,1,0,1,0,1,0,0,0,0,0,0,1,1]","mutagen_history":"[0,1,0,0,0,1,0,1,0,1,0,1,0,1,0,1,0,1,0,1,0,1,0,1,1,0,1,0,0,1,0,1,0,1,1,1,1,1,1,0,0]","location_rts":"[1326,959,940,906,822,851,735,884,624,931,1131,586,895,560,879,864,641,546,804,708,722,918,534,585,848,842,733,613,1374,982,2124,1134,686,492,494,562,752,759,669,863,606]","trial_type":"fractal-mutation","trial_index":82,"time_elapsed":2514942,"internal_node_id":"0.0-5.0-28.0"},{"group":"square cycles (cube, non-group)","fractal_assignment":["../images/grn_red.png","../images/org_blu.png","../images/gry_blk.png","../images/cyn_red.png","../images/blu_wht.png","../images/pnk_blu.png","../images/ylw_pnk.png","../images/ylw_slt.png"],"mutagen_generator_assignment":[1,0],"goal":4,"start":5,"action_noise":0.1,"location_history":"[5,1,2,6,5,1,2,6,7,6,5,1,0,1,0,4]","action_history":"[1,0,1,0,1,0,1,1,0,0,1,0,0,1,1]","mutagen_history":"[0,1,0,1,0,1,0,0,1,1,0,1,1,0,0]","location_rts":"[10357,590,717,1024,35590,464,1142,1017,1229,1784,1030,593,1015,646,626]","trial_type":"fractal-mutation","trial_index":83,"time_elapsed":2592515,"internal_node_id":"0.0-5.0-29.0"},{"group":"square cycles (cube, non-group)","fractal_assignment":["../images/grn_red.png","../images/org_blu.png","../images/gry_blk.png","../images/cyn_red.png","../images/blu_wht.png","../images/pnk_blu.png","../images/ylw_pnk.png","../images/ylw_slt.png"],"mutagen_generator_assignment":[1,0],"goal":6,"start":4,"action_noise":0.1,"location_history":"[4,7,6]","action_history":"[0,0]","mutagen_history":"[1,1]","location_rts":"[881,486]","trial_type":"fractal-mutation","trial_index":84,"time_elapsed":2599560,"internal_node_id":"0.0-5.0-30.0"},{"group":"square cycles (cube, non-group)","fractal_assignment":["../images/grn_red.png","../images/org_blu.png","../images/gry_blk.png","../images/cyn_red.png","../images/blu_wht.png","../images/pnk_blu.png","../images/ylw_pnk.png","../images/ylw_slt.png"],"mutagen_generator_assignment":[1,0],"goal":4,"start":6,"action_noise":0.1,"location_history":"[6,7,3,2,6,7,6,5,1,2,6,7,6,7,3,0,4]","action_history":"[1,1,1,1,1,0,0,1,0,1,1,0,0,1,0,1]","mutagen_history":"[0,0,0,0,0,1,1,0,1,0,0,1,1,0,1,0]","location_rts":"[719,564,1170,908,859,569,782,949,571,753,785,525,838,856,510,601]","trial_type":"fractal-mutation","trial_index":85,"time_elapsed":2632347,"internal_node_id":"0.0-5.0-31.0"},{"group":"square cycles (cube, non-group)","fractal_assignment":["../images/grn_red.png","../images/org_blu.png","../images/gry_blk.png","../images/cyn_red.png","../images/blu_wht.png","../images/pnk_blu.png","../images/ylw_pnk.png","../images/ylw_slt.png"],"mutagen_generator_assignment":[1,0],"goal":2,"start":4,"action_noise":0.1,"location_history":"[4,7,6,7,6,7,6,5,4,7,3,2]","action_history":"[0,1,1,0,1,0,0,0,0,1,1]","mutagen_history":"[1,0,0,1,0,1,1,1,1,0,0]","location_rts":"[962,1536,866,1043,1515,2150,738,722,902,739,756]","trial_type":"fractal-mutation","trial_index":86,"time_elapsed":2659696,"internal_node_id":"0.0-5.0-32.0"},{"group":"square cycles (cube, non-group)","fractal_assignment":["../images/grn_red.png","../images/org_blu.png","../images/gry_blk.png","../images/cyn_red.png","../images/blu_wht.png","../images/pnk_blu.png","../images/ylw_pnk.png","../images/ylw_slt.png"],"mutagen_generator_assignment":[1,0],"goal":0,"start":2,"action_noise":0.1,"location_history":"[2,3,0]","action_history":"[1,0]","mutagen_history":"[0,1]","location_rts":"[8458,562]","trial_type":"fractal-mutation","trial_index":87,"time_elapsed":2674380,"internal_node_id":"0.0-5.0-33.0"},{"group":"square cycles (cube, non-group)","fractal_assignment":["../images/grn_red.png","../images/org_blu.png","../images/gry_blk.png","../images/cyn_red.png","../images/blu_wht.png","../images/pnk_blu.png","../images/ylw_pnk.png","../images/ylw_slt.png"],"mutagen_generator_assignment":[1,0],"goal":5,"start":0,"action_noise":0.1,"location_history":"[0,4,7,3,0,1,2,3,2,6,5]","action_history":"[1,0,1,0,0,0,0,1,1,0]","mutagen_history":"[0,1,0,1,1,1,1,0,0,1]","location_rts":"[590,510,643,658,538,617,527,504,956,921]","trial_type":"fractal-mutation","trial_index":88,"time_elapsed":2695176,"internal_node_id":"0.0-5.0-34.0"},{"group":"square cycles (cube, non-group)","fractal_assignment":["../images/grn_red.png","../images/org_blu.png","../images/gry_blk.png","../images/cyn_red.png","../images/blu_wht.png","../images/pnk_blu.png","../images/ylw_pnk.png","../images/ylw_slt.png"],"mutagen_generator_assignment":[1,0],"goal":1,"start":5,"action_noise":0.1,"location_history":"[5,1]","action_history":"[1]","mutagen_history":"[0]","location_rts":"[756]","trial_type":"fractal-mutation","trial_index":89,"time_elapsed":2700523,"internal_node_id":"0.0-5.0-35.0"},{"group":"square cycles (cube, non-group)","fractal_assignment":["../images/grn_red.png","../images/org_blu.png","../images/gry_blk.png","../images/cyn_red.png","../images/blu_wht.png","../images/pnk_blu.png","../images/ylw_pnk.png","../images/ylw_slt.png"],"mutagen_generator_assignment":[1,0],"goal":7,"start":1,"action_noise":0.1,"location_history":"[1,0,1,0,1,0,4,5,1,2,3,2,3,2,3,2,6,5,1,0,4,5,1,2,3,0,4,7]","action_history":"[1,0,1,0,1,1,1,1,0,0,1,0,1,0,1,1,1,1,1,1,1,1,0,1,0,1,0]","mutagen_history":"[0,1,0,1,0,0,0,0,1,1,0,1,0,1,0,0,0,0,0,0,0,0,1,0,1,0,1]","location_rts":"[1055,1157,479,460,526,599,734,619,771,1377,14560,1296,1178,1060,924,553,547,1432,861,1063,17555,2089,62,498,344,299,825]","trial_type":"fractal-mutation","trial_index":90,"time_elapsed":2786146,"internal_node_id":"0.0-5.0-36.0"},{"group":"square cycles (cube, non-group)","fractal_assignment":["../images/grn_red.png","../images/org_blu.png","../images/gry_blk.png","../images/cyn_red.png","../images/blu_wht.png","../images/pnk_blu.png","../images/ylw_pnk.png","../images/ylw_slt.png"],"mutagen_generator_assignment":[1,0],"goal":3,"start":7,"action_noise":0.1,"location_history":"[7,6,7,3]","action_history":"[0,0,1]","mutagen_history":"[1,1,0]","location_rts":"[738,643,540]","trial_type":"fractal-mutation","trial_index":91,"time_elapsed":2794821,"internal_node_id":"0.0-5.0-37.0"},{"group":"square cycles (cube, non-group)","fractal_assignment":["../images/grn_red.png","../images/org_blu.png","../images/gry_blk.png","../images/cyn_red.png","../images/blu_wht.png","../images/pnk_blu.png","../images/ylw_pnk.png","../images/ylw_slt.png"],"mutagen_generator_assignment":[1,0],"goal":6,"start":3,"action_noise":0.1,"location_history":"[3,0,1,2,3,0,1,2,3,0,1,0,1,0,4,7,6]","action_history":"[0,0,0,0,0,0,0,0,0,0,1,0,1,1,0,0]","mutagen_history":"[1,1,1,1,1,1,1,1,1,1,0,1,0,0,1,1]","location_rts":"[818,665,743,601,634,851,797,608,581,617,551,1109,634,569,556,523]","trial_type":"fractal-mutation","trial_index":92,"time_elapsed":2826535,"internal_node_id":"0.0-5.0-38.0"},{"group":"square cycles (cube, non-group)","fractal_assignment":["../images/grn_red.png","../images/org_blu.png","../images/gry_blk.png","../images/cyn_red.png","../images/blu_wht.png","../images/pnk_blu.png","../images/ylw_pnk.png","../images/ylw_slt.png"],"mutagen_generator_assignment":[1,0],"goal":2,"start":6,"action_noise":0.1,"location_history":"[6,5,1,0,1,0,1,0,1,0,1,0,1,2]","action_history":"[0,1,1,0,1,0,1,0,1,0,1,0,1]","mutagen_history":"[1,0,0,1,0,1,0,1,0,1,0,1,0]","location_rts":"[827,894,632,548,20922,425,572,603,881,643,2147,832,784]","trial_type":"fractal-mutation","trial_index":93,"time_elapsed":2874831,"internal_node_id":"0.0-5.0-39.0"},{"group":"square cycles (cube, non-group)","fractal_assignment":["../images/grn_red.png","../images/org_blu.png","../images/gry_blk.png","../images/cyn_red.png","../images/blu_wht.png","../images/pnk_blu.png","../images/ylw_pnk.png","../images/ylw_slt.png"],"mutagen_generator_assignment":[1,0],"goal":1,"start":2,"action_noise":0.1,"location_history":"[2,6,5,1]","action_history":"[1,0,0]","mutagen_history":"[0,1,1]","location_rts":"[6138,688,832]","trial_type":"fractal-mutation","trial_index":94,"time_elapsed":2889248,"internal_node_id":"0.0-5.0-40.0"},{"group":"square cycles (cube, non-group)","fractal_assignment":["../images/grn_red.png","../images/org_blu.png","../images/gry_blk.png","../images/cyn_red.png","../images/blu_wht.png","../images/pnk_blu.png","../images/ylw_pnk.png","../images/ylw_slt.png"],"mutagen_generator_assignment":[1,0],"goal":0,"start":1,"action_noise":0.1,"location_history":"[1,0]","action_history":"[1]","mutagen_history":"[0]","location_rts":"[34586]","trial_type":"fractal-mutation","trial_index":95,"time_elapsed":2928429,"internal_node_id":"0.0-5.0-41.0"},{"group":"square cycles (cube, non-group)","fractal_assignment":["../images/grn_red.png","../images/org_blu.png","../images/gry_blk.png","../images/cyn_red.png","../images/blu_wht.png","../images/pnk_blu.png","../images/ylw_pnk.png","../images/ylw_slt.png"],"mutagen_generator_assignment":[1,0],"goal":4,"start":0,"action_noise":0.1,"location_history":"[0,1,0,1,2,6,5,4]","action_history":"[0,1,0,0,1,0,0]","mutagen_history":"[1,0,1,1,0,1,1]","location_rts":"[1205,1505,728,847,667,575,684]","trial_type":"fractal-mutation","trial_index":96,"time_elapsed":2945741,"internal_node_id":"0.0-5.0-42.0"},{"group":"square cycles (cube, non-group)","fractal_assignment":["../images/grn_red.png","../images/org_blu.png","../images/gry_blk.png","../images/cyn_red.png","../images/blu_wht.png","../images/pnk_blu.png","../images/ylw_pnk.png","../images/ylw_slt.png"],"mutagen_generator_assignment":[1,0],"goal":6,"start":4,"action_noise":0.1,"location_history":"[4,7,3,0,1,2,6]","action_history":"[0,1,0,0,0,1]","mutagen_history":"[1,0,1,1,1,0]","location_rts":"[1547,984,908,1355,2691,451]","trial_type":"fractal-mutation","trial_index":97,"time_elapsed":2963679,"internal_node_id":"0.0-5.0-43.0"},{"group":"square cycles (cube, non-group)","fractal_assignment":["../images/grn_red.png","../images/org_blu.png","../images/gry_blk.png","../images/cyn_red.png","../images/blu_wht.png","../images/pnk_blu.png","../images/ylw_pnk.png","../images/ylw_slt.png"],"mutagen_generator_assignment":[1,0],"goal":3,"start":6,"action_noise":0.1,"location_history":"[6,5,1,2,6,7,3]","action_history":"[0,1,0,1,1,1]","mutagen_history":"[1,0,1,0,0,0]","location_rts":"[731,690,917,728,855,865]","trial_type":"fractal-mutation","trial_index":98,"time_elapsed":2978494,"internal_node_id":"0.0-5.0-44.0"},{"group":"square cycles (cube, non-group)","fractal_assignment":["../images/grn_red.png","../images/org_blu.png","../images/gry_blk.png","../images/cyn_red.png","../images/blu_wht.png","../images/pnk_blu.png","../images/ylw_pnk.png","../images/ylw_slt.png"],"mutagen_generator_assignment":[1,0],"goal":7,"start":3,"action_noise":0.1,"location_history":"[3,2,3,2,3,0,1,0,1,0,1,2,6,7]","action_history":"[1,0,1,0,1,0,1,0,1,0,0,1,0]","mutagen_history":"[0,1,0,1,0,1,0,1,0,1,1,0,1]","location_rts":"[17127,1034,2119,762,10075,1114,2853,774,12441,754,863,475,1025]","trial_type":"fractal-mutation","trial_index":99,"time_elapsed":3047475,"internal_node_id":"0.0-5.0-45.0"},{"group":"square cycles (cube, non-group)","fractal_assignment":["../images/grn_red.png","../images/org_blu.png","../images/gry_blk.png","../images/cyn_red.png","../images/blu_wht.png","../images/pnk_blu.png","../images/ylw_pnk.png","../images/ylw_slt.png"],"mutagen_generator_assignment":[1,0],"goal":5,"start":7,"action_noise":0.1,"location_history":"[7,3,0,4,5]","action_history":"[1,0,1,1]","mutagen_history":"[0,1,0,0]","location_rts":"[713,566,568,607]","trial_type":"fractal-mutation","trial_index":100,"time_elapsed":3057768,"internal_node_id":"0.0-5.0-46.0"},{"group":"square cycles (cube, non-group)","fractal_assignment":["../images/grn_red.png","../images/org_blu.png","../images/gry_blk.png","../images/cyn_red.png","../images/blu_wht.png","../images/pnk_blu.png","../images/ylw_pnk.png","../images/ylw_slt.png"],"mutagen_generator_assignment":[1,0],"goal":1,"start":5,"action_noise":0.1,"location_history":"[5,4,7,6,5,4,7,6,5,1]","action_history":"[0,0,0,0,0,0,0,0,1]","mutagen_history":"[1,1,1,1,1,1,1,1,0]","location_rts":"[681,917,662,1309,1403,3136,1898,1097,900]","trial_type":"fractal-mutation","trial_index":101,"time_elapsed":3083019,"internal_node_id":"0.0-5.0-47.0"},{"group":"square cycles (cube, non-group)","fractal_assignment":["../images/grn_red.png","../images/org_blu.png","../images/gry_blk.png","../images/cyn_red.png","../images/blu_wht.png","../images/pnk_blu.png","../images/ylw_pnk.png","../images/ylw_slt.png"],"mutagen_generator_assignment":[1,0],"goal":6,"start":1,"action_noise":0.1,"location_history":"[1,2,3,2,6]","action_history":"[0,0,1,1]","mutagen_history":"[1,1,0,0]","location_rts":"[855,688,2102,1182]","trial_type":"fractal-mutation","trial_index":102,"time_elapsed":3095695,"internal_node_id":"0.0-5.0-48.0"},{"group":"square cycles (cube, non-group)","fractal_assignment":["../images/grn_red.png","../images/org_blu.png","../images/gry_blk.png","../images/cyn_red.png","../images/blu_wht.png","../images/pnk_blu.png","../images/ylw_pnk.png","../images/ylw_slt.png"],"mutagen_generator_assignment":[1,0],"goal":0,"start":6,"action_noise":0.1,"location_history":"[6,5,4,5,1,0]","action_history":"[0,0,1,1,1]","mutagen_history":"[1,1,0,0,0]","location_rts":"[711,898,837,1521,1150]","trial_type":"fractal-mutation","trial_index":103,"time_elapsed":3109741,"internal_node_id":"0.0-5.0-49.0"},{"view_history":"[{\"page_index\":0,\"viewing_time\":8268}]","rt":8268,"trial_type":"instructions","trial_index":104,"time_elapsed":3119013,"internal_node_id":"0.0-6.0"},{"rt":61526,"responses":"{\"Q0\":\"None Thank You.\"}","trial_type":"survey-text","trial_index":105,"time_elapsed":3181544,"internal_node_id":"0.0-7.0"}]