[{"view_history":"[{\"page_index\":0,\"viewing_time\":1179095},{\"page_index\":1,\"viewing_time\":5565}]","rt":1184660,"trial_type":"instructions","trial_index":0,"time_elapsed":1184661,"internal_node_id":"0.0-0.0"},{"view_history":"[{\"page_index\":0,\"viewing_time\":27334},{\"page_index\":1,\"viewing_time\":8336}]","rt":35671,"trial_type":"instructions","trial_index":1,"time_elapsed":1221335,"internal_node_id":"0.0-1.0"},{"group":"tri cycles (cube, non-group)","room_assignment":["blue","green","brown","grey","purple","red","pink","yellow"],"door_color_assignment":["black","white"],"door_generator_assignment":[0,1],"goal":6,"start":3,"action_noise":0.1,"location_history":"[3,4,7,3,4,0,3,4,7,6]","action_history":"[1,0,1,1,1,1,0,0,0]","door_history":"[1,0,1,1,1,1,0,0,0]","location_rts":"[2046,1338,768,342,316,327,690,2211,388]","trial_type":"two-door-navigation","trial_index":2,"time_elapsed":1242458,"internal_node_id":"0.0-2.0-0.0"},{"group":"tri cycles (cube, non-group)","room_assignment":["blue","green","brown","grey","purple","red","pink","yellow"],"door_color_assignment":["black","white"],"door_generator_assignment":[0,1],"goal":1,"start":6,"action_noise":0.1,"location_history":"[6,5,1]","action_history":"[1,1]","door_history":"[1,1]","location_rts":"[1978,993]","trial_type":"two-door-navigation","trial_index":3,"time_elapsed":1250977,"internal_node_id":"0.0-2.0-1.0"},{"group":"tri cycles (cube, non-group)","room_assignment":["blue","green","brown","grey","purple","red","pink","yellow"],"door_color_assignment":["black","white"],"door_generator_assignment":[0,1],"goal":2,"start":1,"action_noise":0.1,"location_history":"[1,0,2]","action_history":"[0,0]","door_history":"[0,0]","location_rts":"[2112,1053]","trial_type":"two-door-navigation","trial_index":4,"time_elapsed":1259683,"internal_node_id":"0.0-2.0-2.0"},{"group":"tri cycles (cube, non-group)","room_assignment":["blue","green","brown","grey","purple","red","pink","yellow"],"door_color_assignment":["black","white"],"door_generator_assignment":[0,1],"goal":0,"start":2,"action_noise":0.1,"location_history":"[2,6,5,2,6,4,0]","action_history":"[1,1,1,1,1,1]","door_history":"[1,1,1,1,1,1]","location_rts":"[1213,474,505,444,456,333]","trial_type":"two-door-navigation","trial_index":5,"time_elapsed":1272735,"internal_node_id":"0.0-2.0-3.0"},{"group":"tri cycles (cube, non-group)","room_assignment":["blue","green","brown","grey","purple","red","pink","yellow"],"door_color_assignment":["black","white"],"door_generator_assignment":[0,1],"goal":7,"start":0,"action_noise":0.1,"location_history":"[0,3,4,7]","action_history":"[1,1,1]","door_history":"[1,1,1]","location_rts":"[2796,503,483]","trial_type":"two-door-navigation","trial_index":6,"time_elapsed":1283082,"internal_node_id":"0.0-2.0-4.0"},{"group":"tri cycles (cube, non-group)","room_assignment":["blue","green","brown","grey","purple","red","pink","yellow"],"door_color_assignment":["black","white"],"door_generator_assignment":[0,1],"goal":5,"start":7,"action_noise":0.1,"location_history":"[7,3,4,0,2,6,5]","action_history":"[1,1,1,1,1,1]","door_history":"[1,1,1,1,1,1]","location_rts":"[1525,350,366,324,417,459]","trial_type":"two-door-navigation","trial_index":7,"time_elapsed":1296151,"internal_node_id":"0.0-2.0-5.0"},{"group":"tri cycles (cube, non-group)","room_assignment":["blue","green","brown","grey","purple","red","pink","yellow"],"door_color_assignment":["black","white"],"door_generator_assignment":[0,1],"goal":4,"start":5,"action_noise":0.1,"location_history":"[5,2,6,5,1,0,2,6,4]","action_history":"[1,1,1,0,0,0,1,0]","door_history":"[1,1,1,0,0,0,1,0]","location_rts":"[1207,732,640,999,1297,355,368,358]","trial_type":"two-door-navigation","trial_index":8,"time_elapsed":1313766,"internal_node_id":"0.0-2.0-6.0"},{"group":"tri cycles (cube, non-group)","room_assignment":["blue","green","brown","grey","purple","red","pink","yellow"],"door_color_assignment":["black","white"],"door_generator_assignment":[0,1],"goal":2,"start":4,"action_noise":0.1,"location_history":"[4,0,2]","action_history":"[1,0]","door_history":"[1,0]","location_rts":"[8382,987]","trial_type":"two-door-navigation","trial_index":9,"time_elapsed":1328679,"internal_node_id":"0.0-2.0-7.0"},{"group":"tri cycles (cube, non-group)","room_assignment":["blue","green","brown","grey","purple","red","pink","yellow"],"door_color_assignment":["black","white"],"door_generator_assignment":[0,1],"goal":3,"start":2,"action_noise":0.1,"location_history":"[2,6,4,7,6,4,7,6,4,0,3]","action_history":"[1,0,0,0,0,0,0,0,1,1]","door_history":"[1,0,0,0,0,0,0,0,1,1]","location_rts":"[1010,1348,349,441,414,308,366,457,661,295]","trial_type":"two-door-navigation","trial_index":10,"time_elapsed":1348034,"internal_node_id":"0.0-2.0-8.0"},{"group":"tri cycles (cube, non-group)","room_assignment":["blue","green","brown","grey","purple","red","pink","yellow"],"door_color_assignment":["black","white"],"door_generator_assignment":[0,1],"goal":7,"start":3,"action_noise":0.1,"location_history":"[3,4,0,3,4,7]","action_history":"[0,1,1,1,0]","door_history":"[0,1,1,1,0]","location_rts":"[926,557,1144,319,70]","trial_type":"two-door-navigation","trial_index":11,"time_elapsed":1359652,"internal_node_id":"0.0-2.0-9.0"},{"group":"tri cycles (cube, non-group)","room_assignment":["blue","green","brown","grey","purple","red","pink","yellow"],"door_color_assignment":["black","white"],"door_generator_assignment":[0,1],"goal":0,"start":7,"action_noise":0.1,"location_history":"[7,3,4,0]","action_history":"[1,1,1]","door_history":"[1,1,1]","location_rts":"[1782,390,424]","trial_type":"two-door-navigation","trial_index":12,"time_elapsed":1368816,"internal_node_id":"0.0-2.0-10.0"},{"group":"tri cycles (cube, non-group)","room_assignment":["blue","green","brown","grey","purple","red","pink","yellow"],"door_color_assignment":["black","white"],"door_generator_assignment":[0,1],"goal":1,"start":0,"action_noise":0.1,"location_history":"[0,2,6,5,2,6,4,0,3,4,0,3,4,7,3,4,0,3,4,0,3,4,0,2,6,4,0,3,7,6,4,7,6,4,7,6,4,0,3,4,0,2,1]","action_history":"[0,1,1,1,1,0,1,1,1,1,1,1,0,1,1,1,1,1,1,1,1,1,0,1,1,1,1,1,0,0,0,0,0,0,0,0,1,1,1,1,1,1]","door_history":"[0,1,1,1,1,0,1,1,1,1,1,1,0,1,1,1,1,1,1,1,1,1,0,1,1,1,1,1,0,0,0,0,0,0,0,0,1,1,1,1,1,1]","location_rts":"[2138,282,348,388,2943,355,358,342,685,3400,2287,989,768,285,335,495,374,355,511,356,364,567,505,419,317,287,350,380,1003,419,333,272,294,357,301,304,1149,518,388,187,1733,577]","trial_type":"two-door-navigation","trial_index":13,"time_elapsed":1444211,"internal_node_id":"0.0-2.0-11.0"},{"group":"tri cycles (cube, non-group)","room_assignment":["blue","green","brown","grey","purple","red","pink","yellow"],"door_color_assignment":["black","white"],"door_generator_assignment":[0,1],"goal":6,"start":1,"action_noise":0.1,"location_history":"[1,0,3,7,6]","action_history":"[0,1,1,1]","door_history":"[0,1,1,1]","location_rts":"[1181,169,24,225]","trial_type":"two-door-navigation","trial_index":14,"time_elapsed":1453393,"internal_node_id":"0.0-2.0-12.0"},{"group":"tri cycles (cube, non-group)","room_assignment":["blue","green","brown","grey","purple","red","pink","yellow"],"door_color_assignment":["black","white"],"door_generator_assignment":[0,1],"goal":4,"start":6,"action_noise":0.1,"location_history":"[6,4]","action_history":"[0]","door_history":"[0]","location_rts":"[1507]","trial_type":"two-door-navigation","trial_index":15,"time_elapsed":1459424,"internal_node_id":"0.0-2.0-13.0"},{"group":"tri cycles (cube, non-group)","room_assignment":["blue","green","brown","grey","purple","red","pink","yellow"],"door_color_assignment":["black","white"],"door_generator_assignment":[0,1],"goal":5,"start":4,"action_noise":0.1,"location_history":"[4,7,3,4,0,2,6,5]","action_history":"[1,1,1,1,0,1,1]","door_history":"[1,1,1,1,0,1,1]","location_rts":"[1813,247,1307,732,1890,885,537]","trial_type":"two-door-navigation","trial_index":16,"time_elapsed":1477482,"internal_node_id":"0.0-2.0-14.0"},{"group":"tri cycles (cube, non-group)","room_assignment":["blue","green","brown","grey","purple","red","pink","yellow"],"door_color_assignment":["black","white"],"door_generator_assignment":[0,1],"goal":4,"start":5,"action_noise":0.1,"location_history":"[5,2,1,5,1,0,2,6,4]","action_history":"[1,0,0,0,0,0,1,0]","door_history":"[1,0,0,0,0,0,1,0]","location_rts":"[3619,320,334,326,339,350,948,195]","trial_type":"two-door-navigation","trial_index":17,"time_elapsed":1495578,"internal_node_id":"0.0-2.0-15.0"},{"group":"tri cycles (cube, non-group)","room_assignment":["blue","green","brown","grey","purple","red","pink","yellow"],"door_color_assignment":["black","white"],"door_generator_assignment":[0,1],"goal":0,"start":4,"action_noise":0.1,"location_history":"[4,0]","action_history":"[1]","door_history":"[1]","location_rts":"[2575]","trial_type":"two-door-navigation","trial_index":18,"time_elapsed":1502674,"internal_node_id":"0.0-2.0-16.0"},{"group":"tri cycles (cube, non-group)","room_assignment":["blue","green","brown","grey","purple","red","pink","yellow"],"door_color_assignment":["black","white"],"door_generator_assignment":[0,1],"goal":7,"start":0,"action_noise":0.1,"location_history":"[0,3,7]","action_history":"[0,0]","door_history":"[0,0]","location_rts":"[44195,482]","trial_type":"two-door-navigation","trial_index":19,"time_elapsed":1552896,"internal_node_id":"0.0-2.0-17.0"},{"group":"tri cycles (cube, non-group)","room_assignment":["blue","green","brown","grey","purple","red","pink","yellow"],"door_color_assignment":["black","white"],"door_generator_assignment":[0,1],"goal":2,"start":7,"action_noise":0.1,"location_history":"[7,3,7,6,4,7,3,7,6,4,0,2]","action_history":"[1,0,0,0,0,1,0,0,0,1,0]","door_history":"[1,0,0,0,0,1,0,0,0,1,0]","location_rts":"[1453,460,355,507,691,200,1090,395,514,497,382]","trial_type":"two-door-navigation","trial_index":20,"time_elapsed":1574168,"internal_node_id":"0.0-2.0-18.0"},{"group":"tri cycles (cube, non-group)","room_assignment":["blue","green","brown","grey","purple","red","pink","yellow"],"door_color_assignment":["black","white"],"door_generator_assignment":[0,1],"goal":1,"start":2,"action_noise":0.1,"location_history":"[2,6,4,7,6,4,7,6,4,7,3,7,6,4,7,3,4,0,3,4,0,3,7,3,4,0,2,1]","action_history":"[1,0,0,0,0,1,0,0,0,1,0,0,0,0,1,1,1,1,1,1,1,0,1,1,1,0,0]","door_history":"[1,0,0,0,0,1,0,0,0,1,0,0,0,0,1,1,1,1,1,1,1,0,1,1,1,0,0]","location_rts":"[1188,288,310,349,357,342,355,363,335,280,344,436,333,336,613,318,278,324,317,349,435,842,665,474,343,248,297]","trial_type":"two-door-navigation","trial_index":21,"time_elapsed":1616350,"internal_node_id":"0.0-2.0-19.0"},{"group":"tri cycles (cube, non-group)","room_assignment":["blue","green","brown","grey","purple","red","pink","yellow"],"door_color_assignment":["black","white"],"door_generator_assignment":[0,1],"goal":3,"start":1,"action_noise":0.1,"location_history":"[1,5,1,0,2,1,5,1,0,2,6,4,7,6,4,7,6,4,7,3]","action_history":"[1,0,0,0,0,1,0,0,0,1,0,0,0,0,0,0,0,0,1]","door_history":"[1,0,0,0,0,1,0,0,0,1,0,0,0,0,0,0,0,0,1]","location_rts":"[1183,656,293,441,606,44,138,23,60,239,124,85,46,47,63,52,50,84,139]","trial_type":"two-door-navigation","trial_index":22,"time_elapsed":1643622,"internal_node_id":"0.0-2.0-20.0"},{"group":"tri cycles (cube, non-group)","room_assignment":["blue","green","brown","grey","purple","red","pink","yellow"],"door_color_assignment":["black","white"],"door_generator_assignment":[0,1],"goal":6,"start":3,"action_noise":0.1,"location_history":"[3,4,7,6]","action_history":"[1,0,0]","door_history":"[1,0,0]","location_rts":"[979,156,364]","trial_type":"two-door-navigation","trial_index":23,"time_elapsed":1651684,"internal_node_id":"0.0-2.0-21.0"},{"group":"tri cycles (cube, non-group)","room_assignment":["blue","green","brown","grey","purple","red","pink","yellow"],"door_color_assignment":["black","white"],"door_generator_assignment":[0,1],"goal":5,"start":6,"action_noise":0.1,"location_history":"[6,5]","action_history":"[1]","door_history":"[1]","location_rts":"[887]","trial_type":"two-door-navigation","trial_index":24,"time_elapsed":1657091,"internal_node_id":"0.0-2.0-22.0"},{"group":"tri cycles (cube, non-group)","room_assignment":["blue","green","brown","grey","purple","red","pink","yellow"],"door_color_assignment":["black","white"],"door_generator_assignment":[0,1],"goal":3,"start":5,"action_noise":0.1,"location_history":"[5,2,1,5,1,0,2,6,4,7,3]","action_history":"[1,0,0,0,0,0,1,0,0,0]","door_history":"[1,0,0,0,0,0,1,0,0,0]","location_rts":"[1130,1416,543,287,317,201,1246,1038,351,263]","trial_type":"two-door-navigation","trial_index":25,"time_elapsed":1677595,"internal_node_id":"0.0-2.0-23.0"},{"group":"tri cycles (cube, non-group)","room_assignment":["blue","green","brown","grey","purple","red","pink","yellow"],"door_color_assignment":["black","white"],"door_generator_assignment":[0,1],"goal":0,"start":3,"action_noise":0.1,"location_history":"[3,7,6,5,1,0]","action_history":"[1,0,1,0,0]","door_history":"[1,0,1,0,0]","location_rts":"[978,326,683,156,147]","trial_type":"two-door-navigation","trial_index":26,"time_elapsed":1688491,"internal_node_id":"0.0-2.0-24.0"},{"group":"tri cycles (cube, non-group)","room_assignment":["blue","green","brown","grey","purple","red","pink","yellow"],"door_color_assignment":["black","white"],"door_generator_assignment":[0,1],"goal":7,"start":0,"action_noise":0.1,"location_history":"[0,3,7]","action_history":"[1,0]","door_history":"[1,0]","location_rts":"[900,56]","trial_type":"two-door-navigation","trial_index":27,"time_elapsed":1694989,"internal_node_id":"0.0-2.0-25.0"},{"group":"tri cycles (cube, non-group)","room_assignment":["blue","green","brown","grey","purple","red","pink","yellow"],"door_color_assignment":["black","white"],"door_generator_assignment":[0,1],"goal":2,"start":7,"action_noise":0.1,"location_history":"[7,3,7,6,4,7,6,4,7,6,5,2]","action_history":"[1,0,0,0,0,0,0,0,0,1,0]","door_history":"[1,0,0,0,0,0,0,0,0,1,0]","location_rts":"[664,64,46,48,1,54,140,132,116,70,140]","trial_type":"two-door-navigation","trial_index":28,"time_elapsed":1711182,"internal_node_id":"0.0-2.0-26.0"},{"group":"tri cycles (cube, non-group)","room_assignment":["blue","green","brown","grey","purple","red","pink","yellow"],"door_color_assignment":["black","white"],"door_generator_assignment":[0,1],"goal":1,"start":2,"action_noise":0.1,"location_history":"[2,1]","action_history":"[1]","door_history":"[1]","location_rts":"[4351]","trial_type":"two-door-navigation","trial_index":29,"time_elapsed":1720057,"internal_node_id":"0.0-2.0-27.0"},{"group":"tri cycles (cube, non-group)","room_assignment":["blue","green","brown","grey","purple","red","pink","yellow"],"door_color_assignment":["black","white"],"door_generator_assignment":[0,1],"goal":5,"start":1,"action_noise":0.1,"location_history":"[1,0,2,1,0,2,1,0,2,1,0,3,7,6,4,7,6,5]","action_history":"[1,0,0,0,0,0,0,0,0,0,1,0,0,0,0,0,1]","door_history":"[1,0,0,0,0,0,0,0,0,0,1,0,0,0,0,0,1]","location_rts":"[696,149,69,78,243,99,108,122,110,255,343,125,54,78,63,46,22]","trial_type":"two-door-navigation","trial_index":30,"time_elapsed":1743560,"internal_node_id":"0.0-2.0-28.0"},{"group":"tri cycles (cube, non-group)","room_assignment":["blue","green","brown","grey","purple","red","pink","yellow"],"door_color_assignment":["black","white"],"door_generator_assignment":[0,1],"goal":4,"start":5,"action_noise":0.1,"location_history":"[5,2,1,0,3,4]","action_history":"[1,0,0,0,1]","door_history":"[1,0,0,0,1]","location_rts":"[1234,63,170,60,38]","trial_type":"two-door-navigation","trial_index":31,"time_elapsed":1753729,"internal_node_id":"0.0-2.0-29.0"},{"group":"tri cycles (cube, non-group)","room_assignment":["blue","green","brown","grey","purple","red","pink","yellow"],"door_color_assignment":["black","white"],"door_generator_assignment":[0,1],"goal":6,"start":4,"action_noise":0.1,"location_history":"[4,7,6]","action_history":"[0,0]","door_history":"[0,0]","location_rts":"[1391,381]","trial_type":"two-door-navigation","trial_index":32,"time_elapsed":1761046,"internal_node_id":"0.0-2.0-30.0"},{"group":"tri cycles (cube, non-group)","room_assignment":["blue","green","brown","grey","purple","red","pink","yellow"],"door_color_assignment":["black","white"],"door_generator_assignment":[0,1],"goal":4,"start":6,"action_noise":0.1,"location_history":"[6,5,2,6,5,2,1,0,2,1,5,2,1,0,2,6,4]","action_history":"[1,1,0,0,0,0,0,0,0,1,0,0,0,0,1,0]","door_history":"[1,1,0,0,0,0,0,0,0,1,0,0,0,0,1,0]","location_rts":"[1288,925,139,63,352,29,31,54,139,271,144,86,22,24,62,124]","trial_type":"two-door-navigation","trial_index":33,"time_elapsed":1784629,"internal_node_id":"0.0-2.0-31.0"},{"group":"tri cycles (cube, non-group)","room_assignment":["blue","green","brown","grey","purple","red","pink","yellow"],"door_color_assignment":["black","white"],"door_generator_assignment":[0,1],"goal":2,"start":4,"action_noise":0.1,"location_history":"[4,0,2]","action_history":"[1,0]","door_history":"[1,0]","location_rts":"[1290,177]","trial_type":"two-door-navigation","trial_index":34,"time_elapsed":1791641,"internal_node_id":"0.0-2.0-32.0"},{"group":"tri cycles (cube, non-group)","room_assignment":["blue","green","brown","grey","purple","red","pink","yellow"],"door_color_assignment":["black","white"],"door_generator_assignment":[0,1],"goal":0,"start":2,"action_noise":0.1,"location_history":"[2,6,4,0]","action_history":"[1,0,0]","door_history":"[1,0,0]","location_rts":"[1749,23,147]","trial_type":"two-door-navigation","trial_index":35,"time_elapsed":1800124,"internal_node_id":"0.0-2.0-33.0"},{"group":"tri cycles (cube, non-group)","room_assignment":["blue","green","brown","grey","purple","red","pink","yellow"],"door_color_assignment":["black","white"],"door_generator_assignment":[0,1],"goal":5,"start":0,"action_noise":0.1,"location_history":"[0,3,7,6,4,7,6,4,0,2,1,0,3,7,6,5]","action_history":"[1,0,0,0,0,0,0,1,0,0,0,1,0,0,1]","door_history":"[1,0,0,0,0,0,0,1,0,0,0,1,0,0,1]","location_rts":"[1002,357,171,116,1168,114,75,210,92,125,77,526,105,101,591]","trial_type":"two-door-navigation","trial_index":36,"time_elapsed":1823761,"internal_node_id":"0.0-2.0-34.0"},{"group":"tri cycles (cube, non-group)","room_assignment":["blue","green","brown","grey","purple","red","pink","yellow"],"door_color_assignment":["black","white"],"door_generator_assignment":[0,1],"goal":1,"start":5,"action_noise":0.1,"location_history":"[5,2,1]","action_history":"[1,0]","door_history":"[1,0]","location_rts":"[2393,186]","trial_type":"two-door-navigation","trial_index":37,"time_elapsed":1831884,"internal_node_id":"0.0-2.0-35.0"},{"group":"tri cycles (cube, non-group)","room_assignment":["blue","green","brown","grey","purple","red","pink","yellow"],"door_color_assignment":["black","white"],"door_generator_assignment":[0,1],"goal":7,"start":1,"action_noise":0.1,"location_history":"[1,5,1,0,2,1,0,3,7]","action_history":"[1,0,0,0,0,0,1,0]","door_history":"[1,0,0,0,0,0,1,0]","location_rts":"[1793,77,71,82,110,91,137,184]","trial_type":"two-door-navigation","trial_index":38,"time_elapsed":1846105,"internal_node_id":"0.0-2.0-36.0"},{"group":"tri cycles (cube, non-group)","room_assignment":["blue","green","brown","grey","purple","red","pink","yellow"],"door_color_assignment":["black","white"],"door_generator_assignment":[0,1],"goal":3,"start":7,"action_noise":0.1,"location_history":"[7,3]","action_history":"[1]","door_history":"[1]","location_rts":"[2022]","trial_type":"two-door-navigation","trial_index":39,"time_elapsed":1852649,"internal_node_id":"0.0-2.0-37.0"},{"group":"tri cycles (cube, non-group)","room_assignment":["blue","green","brown","grey","purple","red","pink","yellow"],"door_color_assignment":["black","white"],"door_generator_assignment":[0,1],"goal":6,"start":3,"action_noise":0.1,"location_history":"[3,7,6]","action_history":"[0,0]","door_history":"[0,0]","location_rts":"[3955,53]","trial_type":"two-door-navigation","trial_index":40,"time_elapsed":1862200,"internal_node_id":"0.0-2.0-38.0"},{"group":"tri cycles (cube, non-group)","room_assignment":["blue","green","brown","grey","purple","red","pink","yellow"],"door_color_assignment":["black","white"],"door_generator_assignment":[0,1],"goal":2,"start":6,"action_noise":0.1,"location_history":"[6,5,1,0,2]","action_history":"[1,0,0,0]","door_history":"[1,0,0,0]","location_rts":"[1733,434,0,95]","trial_type":"two-door-navigation","trial_index":41,"time_elapsed":1872049,"internal_node_id":"0.0-2.0-39.0"},{"group":"tri cycles (cube, non-group)","room_assignment":["blue","green","brown","grey","purple","red","pink","yellow"],"door_color_assignment":["black","white"],"door_generator_assignment":[0,1],"goal":1,"start":2,"action_noise":0.1,"location_history":"[2,6,4,7,6,5,1]","action_history":"[1,0,0,0,0,0]","door_history":"[1,0,0,0,0,0]","location_rts":"[9406,12,102,29,995,390]","trial_type":"two-door-navigation","trial_index":42,"time_elapsed":1892611,"internal_node_id":"0.0-2.0-40.0"},{"group":"tri cycles (cube, non-group)","room_assignment":["blue","green","brown","grey","purple","red","pink","yellow"],"door_color_assignment":["black","white"],"door_generator_assignment":[0,1],"goal":0,"start":1,"action_noise":0.1,"location_history":"[1,5,1,0]","action_history":"[1,0,0]","door_history":"[1,0,0]","location_rts":"[1062,114,132]","trial_type":"two-door-navigation","trial_index":43,"time_elapsed":1900485,"internal_node_id":"0.0-2.0-41.0"},{"group":"tri cycles (cube, non-group)","room_assignment":["blue","green","brown","grey","purple","red","pink","yellow"],"door_color_assignment":["black","white"],"door_generator_assignment":[0,1],"goal":4,"start":0,"action_noise":0.1,"location_history":"[0,3,7,6,4]","action_history":"[1,0,0,0]","door_history":"[1,0,0,0]","location_rts":"[1516,186,162,130]","trial_type":"two-door-navigation","trial_index":44,"time_elapsed":1910065,"internal_node_id":"0.0-2.0-42.0"},{"group":"tri cycles (cube, non-group)","room_assignment":["blue","green","brown","grey","purple","red","pink","yellow"],"door_color_assignment":["black","white"],"door_generator_assignment":[0,1],"goal":6,"start":4,"action_noise":0.1,"location_history":"[4,7,6]","action_history":"[0,0]","door_history":"[0,0]","location_rts":"[1369,503]","trial_type":"two-door-navigation","trial_index":45,"time_elapsed":1917481,"internal_node_id":"0.0-2.0-43.0"},{"group":"tri cycles (cube, non-group)","room_assignment":["blue","green","brown","grey","purple","red","pink","yellow"],"door_color_assignment":["black","white"],"door_generator_assignment":[0,1],"goal":3,"start":6,"action_noise":0.1,"location_history":"[6,5,1,0,2,1,0,2,6,4,7,6,4,7,6,4,7,6,4,0,2,6,4,0,3]","action_history":"[1,0,0,0,0,0,0,1,0,0,0,0,0,1,0,0,0,0,1,0,0,0,0,1]","door_history":"[1,0,0,0,0,0,0,1,0,0,0,0,0,1,0,0,0,0,1,0,0,0,0,1]","location_rts":"[1192,184,141,92,185,880,348,728,367,156,5,98,15,8,178,99,39,67,147,186,77,133,154,350]","trial_type":"two-door-navigation","trial_index":46,"time_elapsed":1951307,"internal_node_id":"0.0-2.0-44.0"},{"group":"tri cycles (cube, non-group)","room_assignment":["blue","green","brown","grey","purple","red","pink","yellow"],"door_color_assignment":["black","white"],"door_generator_assignment":[0,1],"goal":7,"start":3,"action_noise":0.1,"location_history":"[3,4,7]","action_history":"[1,0]","door_history":"[1,0]","location_rts":"[4605,170]","trial_type":"two-door-navigation","trial_index":47,"time_elapsed":1961625,"internal_node_id":"0.0-2.0-45.0"},{"group":"tri cycles (cube, non-group)","room_assignment":["blue","green","brown","grey","purple","red","pink","yellow"],"door_color_assignment":["black","white"],"door_generator_assignment":[0,1],"goal":5,"start":7,"action_noise":0.1,"location_history":"[7,3,7,6,4,7,6,5]","action_history":"[1,0,0,0,0,0,1]","door_history":"[1,0,0,0,0,0,1]","location_rts":"[5290,93,96,581,57,62,434]","trial_type":"two-door-navigation","trial_index":48,"time_elapsed":1978880,"internal_node_id":"0.0-2.0-46.0"},{"group":"tri cycles (cube, non-group)","room_assignment":["blue","green","brown","grey","purple","red","pink","yellow"],"door_color_assignment":["black","white"],"door_generator_assignment":[0,1],"goal":1,"start":5,"action_noise":0.1,"location_history":"[5,1]","action_history":"[1]","door_history":"[1]","location_rts":"[1433]","trial_type":"two-door-navigation","trial_index":49,"time_elapsed":1984835,"internal_node_id":"0.0-2.0-47.0"},{"group":"tri cycles (cube, non-group)","room_assignment":["blue","green","brown","grey","purple","red","pink","yellow"],"door_color_assignment":["black","white"],"door_generator_assignment":[0,1],"goal":6,"start":1,"action_noise":0.1,"location_history":"[1,5,1,0,2,1,0,2,1,5,1,5,2,1,0,3,7,6]","action_history":"[1,0,0,0,0,0,0,0,1,0,0,1,0,0,1,0,0]","door_history":"[1,0,0,0,0,0,0,0,1,0,0,1,0,0,1,0,0]","location_rts":"[3539,638,1168,53,379,364,769,632,840,172,341,824,577,318,429,64,101]","trial_type":"two-door-navigation","trial_index":50,"time_elapsed":2016890,"internal_node_id":"0.0-2.0-48.0"},{"group":"tri cycles (cube, non-group)","room_assignment":["blue","green","brown","grey","purple","red","pink","yellow"],"door_color_assignment":["black","white"],"door_generator_assignment":[0,1],"goal":0,"start":6,"action_noise":0.1,"location_history":"[6,5,1,0]","action_history":"[0,0,0]","door_history":"[0,0,0]","location_rts":"[1959,378,396]","trial_type":"two-door-navigation","trial_index":51,"time_elapsed":2026190,"internal_node_id":"0.0-2.0-49.0"},{"view_history":"[{\"page_index\":0,\"viewing_time\":6318}]","rt":6318,"trial_type":"instructions","trial_index":52,"time_elapsed":2033508,"internal_node_id":"0.0-3.0"},{"view_history":"[{\"page_index\":0,\"viewing_time\":1475},{\"page_index\":1,\"viewing_time\":3190}]","rt":4665,"trial_type":"instructions","trial_index":53,"time_elapsed":2039174,"internal_node_id":"0.0-4.0"},{"group":"tri cycles (cube, non-group)","fractal_assignment":["../images/grn_red.png","../images/ylw_slt.png","../images/pnk_blu.png","../images/blu_wht.png","../images/cyn_red.png","../images/ylw_pnk.png","../images/org_blu.png","../images/gry_blk.png"],"mutagen_generator_assignment":[0,1],"goal":6,"start":3,"action_noise":0.1,"location_history":"[3,7,3,4,0,3,4,0,2,6]","action_history":"[0,1,1,1,1,1,0,0,1]","mutagen_history":"[0,1,1,1,1,1,0,0,1]","location_rts":"[13840,1175,748,830,740,338,467,249,674]","trial_type":"fractal-mutation","trial_index":54,"time_elapsed":2071038,"internal_node_id":"0.0-5.0-0.0"},{"group":"tri cycles (cube, non-group)","fractal_assignment":["../images/grn_red.png","../images/ylw_slt.png","../images/pnk_blu.png","../images/blu_wht.png","../images/cyn_red.png","../images/ylw_pnk.png","../images/org_blu.png","../images/gry_blk.png"],"mutagen_generator_assignment":[0,1],"goal":1,"start":6,"action_noise":0.1,"location_history":"[6,5,2,1]","action_history":"[0,1,0]","mutagen_history":"[0,1,0]","location_rts":"[1085,986,567]","trial_type":"fractal-mutation","trial_index":55,"time_elapsed":2080266,"internal_node_id":"0.0-5.0-1.0"},{"group":"tri cycles (cube, non-group)","fractal_assignment":["../images/grn_red.png","../images/ylw_slt.png","../images/pnk_blu.png","../images/blu_wht.png","../images/cyn_red.png","../images/ylw_pnk.png","../images/org_blu.png","../images/gry_blk.png"],"mutagen_generator_assignment":[0,1],"goal":2,"start":1,"action_noise":0.1,"location_history":"[1,0,2]","action_history":"[0,0]","mutagen_history":"[0,0]","location_rts":"[578,80]","trial_type":"fractal-mutation","trial_index":56,"time_elapsed":2086477,"internal_node_id":"0.0-5.0-2.0"},{"group":"tri cycles (cube, non-group)","fractal_assignment":["../images/grn_red.png","../images/ylw_slt.png","../images/pnk_blu.png","../images/blu_wht.png","../images/cyn_red.png","../images/ylw_pnk.png","../images/org_blu.png","../images/gry_blk.png"],"mutagen_generator_assignment":[0,1],"goal":0,"start":2,"action_noise":0.1,"location_history":"[2,1,0]","action_history":"[0,0]","mutagen_history":"[0,0]","location_rts":"[679,448]","trial_type":"fractal-mutation","trial_index":57,"time_elapsed":2093153,"internal_node_id":"0.0-5.0-3.0"},{"group":"tri cycles (cube, non-group)","fractal_assignment":["../images/grn_red.png","../images/ylw_slt.png","../images/pnk_blu.png","../images/blu_wht.png","../images/cyn_red.png","../images/ylw_pnk.png","../images/org_blu.png","../images/gry_blk.png"],"mutagen_generator_assignment":[0,1],"goal":7,"start":0,"action_noise":0.1,"location_history":"[0,2,6,4,0,2,1,5,1,0,3,4,0,3,4,7]","action_history":"[0,1,0,1,0,0,1,0,0,1,0,1,1,1,0]","mutagen_history":"[0,1,0,1,0,0,1,0,0,1,0,1,1,1,0]","location_rts":"[82,129,41,169,382,146,34,326,34,43,201,82,360,551,697]","trial_type":"fractal-mutation","trial_index":58,"time_elapsed":2115329,"internal_node_id":"0.0-5.0-4.0"},{"group":"tri cycles (cube, non-group)","fractal_assignment":["../images/grn_red.png","../images/ylw_slt.png","../images/pnk_blu.png","../images/blu_wht.png","../images/cyn_red.png","../images/ylw_pnk.png","../images/org_blu.png","../images/gry_blk.png"],"mutagen_generator_assignment":[0,1],"goal":5,"start":7,"action_noise":0.1,"location_history":"[7,6,4,0,2,1,0,2,6,4,0,3,7,3,7,3,7,6,4,7,3,4,7,6,5]","action_history":"[0,0,1,0,0,1,0,1,0,1,0,0,1,0,1,0,0,1,0,0,1,0,1,1]","mutagen_history":"[0,0,1,0,0,1,0,1,0,1,0,0,1,0,1,0,0,1,0,0,1,0,1,1]","location_rts":"[667,290,114,81,163,121,60,106,40,154,553,130,58,329,152,309,59,96,483,11,66,6097,87,183]","trial_type":"fractal-mutation","trial_index":59,"time_elapsed":2154067,"internal_node_id":"0.0-5.0-5.0"},{"group":"tri cycles (cube, non-group)","fractal_assignment":["../images/grn_red.png","../images/ylw_slt.png","../images/pnk_blu.png","../images/blu_wht.png","../images/cyn_red.png","../images/ylw_pnk.png","../images/org_blu.png","../images/gry_blk.png"],"mutagen_generator_assignment":[0,1],"goal":4,"start":5,"action_noise":0.1,"location_history":"[5,1,0,2,1,0,2,1,5,1,0,3,7,6,5,1,0,3,7,6,5,2,1,0,3,7,6,5,2,6,4]","action_history":"[0,1,0,0,1,0,0,1,0,0,1,0,0,1,0,0,1,0,0,1,1,0,0,1,1,0,1,1,1,0]","mutagen_history":"[0,1,0,0,1,0,0,1,0,0,1,0,0,1,0,0,1,0,0,1,1,0,0,1,1,0,1,1,1,0]","location_rts":"[753,49,456,171,162,130,114,193,114,74,65,303,81,51,639,114,153,122,41,216,43,35,67,89,38,101,82,481,498,18]","trial_type":"fractal-mutation","trial_index":60,"time_elapsed":2193746,"internal_node_id":"0.0-5.0-6.0"},{"group":"tri cycles (cube, non-group)","fractal_assignment":["../images/grn_red.png","../images/ylw_slt.png","../images/pnk_blu.png","../images/blu_wht.png","../images/cyn_red.png","../images/ylw_pnk.png","../images/org_blu.png","../images/gry_blk.png"],"mutagen_generator_assignment":[0,1],"goal":2,"start":4,"action_noise":0.1,"location_history":"[4,0,3,7,3,7,6,5,2]","action_history":"[1,1,0,1,1,0,1,1]","mutagen_history":"[1,1,0,1,1,0,1,1]","location_rts":"[19,13,28,3,199,146,73,8]","trial_type":"fractal-mutation","trial_index":61,"time_elapsed":2205971,"internal_node_id":"0.0-5.0-7.0"},{"group":"tri cycles (cube, non-group)","fractal_assignment":["../images/grn_red.png","../images/ylw_slt.png","../images/pnk_blu.png","../images/blu_wht.png","../images/cyn_red.png","../images/ylw_pnk.png","../images/org_blu.png","../images/gry_blk.png"],"mutagen_generator_assignment":[0,1],"goal":3,"start":2,"action_noise":0.1,"location_history":"[2,6,5,1,0,2,6,5,2,6,5,1,0,2,1,5,2,1,5,1,0,3]","action_history":"[1,1,0,0,0,0,1,0,1,0,0,1,0,0,1,0,0,1,0,0,0]","mutagen_history":"[1,1,0,0,0,0,1,0,1,0,0,1,0,0,1,0,0,1,0,0,0]","location_rts":"[33,120,57,18,62,192,161,189,105,105,39,221,42,234,184,80,96,46,229,97,130]","trial_type":"fractal-mutation","trial_index":62,"time_elapsed":2233432,"internal_node_id":"0.0-5.0-8.0"},{"group":"tri cycles (cube, non-group)","fractal_assignment":["../images/grn_red.png","../images/ylw_slt.png","../images/pnk_blu.png","../images/blu_wht.png","../images/cyn_red.png","../images/ylw_pnk.png","../images/org_blu.png","../images/gry_blk.png"],"mutagen_generator_assignment":[0,1],"goal":7,"start":3,"action_noise":0.1,"location_history":"[3,4,0,3,7]","action_history":"[0,0,1,1]","mutagen_history":"[0,0,1,1]","location_rts":"[219,67,16,17]","trial_type":"fractal-mutation","trial_index":63,"time_elapsed":2241348,"internal_node_id":"0.0-5.0-9.0"},{"group":"tri cycles (cube, non-group)","fractal_assignment":["../images/grn_red.png","../images/ylw_slt.png","../images/pnk_blu.png","../images/blu_wht.png","../images/cyn_red.png","../images/ylw_pnk.png","../images/org_blu.png","../images/gry_blk.png"],"mutagen_generator_assignment":[0,1],"goal":0,"start":7,"action_noise":0.1,"location_history":"[7,6,4,0]","action_history":"[0,0,1]","mutagen_history":"[0,0,1]","location_rts":"[149,57,161]","trial_type":"fractal-mutation","trial_index":64,"time_elapsed":2248290,"internal_node_id":"0.0-5.0-10.0"},{"group":"tri cycles (cube, non-group)","fractal_assignment":["../images/grn_red.png","../images/ylw_slt.png","../images/pnk_blu.png","../images/blu_wht.png","../images/cyn_red.png","../images/ylw_pnk.png","../images/org_blu.png","../images/gry_blk.png"],"mutagen_generator_assignment":[0,1],"goal":1,"start":0,"action_noise":0.1,"location_history":"[0,2,1]","action_history":"[0,0]","mutagen_history":"[0,0]","location_rts":"[200,58]","trial_type":"fractal-mutation","trial_index":65,"time_elapsed":2254097,"internal_node_id":"0.0-5.0-11.0"},{"group":"tri cycles (cube, non-group)","fractal_assignment":["../images/grn_red.png","../images/ylw_slt.png","../images/pnk_blu.png","../images/blu_wht.png","../images/cyn_red.png","../images/ylw_pnk.png","../images/org_blu.png","../images/gry_blk.png"],"mutagen_generator_assignment":[0,1],"goal":6,"start":1,"action_noise":0.1,"location_history":"[1,0,2,6]","action_history":"[0,0,1]","mutagen_history":"[0,0,1]","location_rts":"[129,73,27]","trial_type":"fractal-mutation","trial_index":66,"time_elapsed":2260900,"internal_node_id":"0.0-5.0-12.0"},{"group":"tri cycles (cube, non-group)","fractal_assignment":["../images/grn_red.png","../images/ylw_slt.png","../images/pnk_blu.png","../images/blu_wht.png","../images/cyn_red.png","../images/ylw_pnk.png","../images/org_blu.png","../images/gry_blk.png"],"mutagen_generator_assignment":[0,1],"goal":4,"start":6,"action_noise":0.1,"location_history":"[6,5,2,1,0,2,6,4]","action_history":"[0,1,1,0,0,1,0]","mutagen_history":"[0,1,1,0,0,1,0]","location_rts":"[150,168,18,174,441,146,8]","trial_type":"fractal-mutation","trial_index":67,"time_elapsed":2272671,"internal_node_id":"0.0-5.0-13.0"},{"group":"tri cycles (cube, non-group)","fractal_assignment":["../images/grn_red.png","../images/ylw_slt.png","../images/pnk_blu.png","../images/blu_wht.png","../images/cyn_red.png","../images/ylw_pnk.png","../images/org_blu.png","../images/gry_blk.png"],"mutagen_generator_assignment":[0,1],"goal":5,"start":4,"action_noise":0.1,"location_history":"[4,7,6,5]","action_history":"[0,0,1]","mutagen_history":"[0,0,1]","location_rts":"[75,76,185]","trial_type":"fractal-mutation","trial_index":68,"time_elapsed":2279595,"internal_node_id":"0.0-5.0-14.0"},{"group":"tri cycles (cube, non-group)","fractal_assignment":["../images/grn_red.png","../images/ylw_slt.png","../images/pnk_blu.png","../images/blu_wht.png","../images/cyn_red.png","../images/ylw_pnk.png","../images/org_blu.png","../images/gry_blk.png"],"mutagen_generator_assignment":[0,1],"goal":4,"start":5,"action_noise":0.1,"location_history":"[5,1,5,2,1,0,2,6,4]","action_history":"[0,0,1,0,0,1,0,0]","mutagen_history":"[0,0,1,0,0,1,0,0]","location_rts":"[39,66,123,17,42,50,17,81]","trial_type":"fractal-mutation","trial_index":69,"time_elapsed":2291738,"internal_node_id":"0.0-5.0-15.0"},{"group":"tri cycles (cube, non-group)","fractal_assignment":["../images/grn_red.png","../images/ylw_slt.png","../images/pnk_blu.png","../images/blu_wht.png","../images/cyn_red.png","../images/ylw_pnk.png","../images/org_blu.png","../images/gry_blk.png"],"mutagen_generator_assignment":[0,1],"goal":0,"start":4,"action_noise":0.1,"location_history":"[4,7,6,5,1,0]","action_history":"[0,0,1,0,0]","mutagen_history":"[0,0,1,0,0]","location_rts":"[3497,154,75,175,171]","trial_type":"fractal-mutation","trial_index":70,"time_elapsed":2304424,"internal_node_id":"0.0-5.0-16.0"},{"group":"tri cycles (cube, non-group)","fractal_assignment":["../images/grn_red.png","../images/ylw_slt.png","../images/pnk_blu.png","../images/blu_wht.png","../images/cyn_red.png","../images/ylw_pnk.png","../images/org_blu.png","../images/gry_blk.png"],"mutagen_generator_assignment":[0,1],"goal":7,"start":0,"action_noise":0.1,"location_history":"[0,2,1,0,2,6,5,1,0,3,7]","action_history":"[0,0,1,0,0,1,0,0,1,0]","mutagen_history":"[0,0,1,0,0,1,0,0,1,0]","location_rts":"[202,75,131,29,98,169,87,58,64,134]","trial_type":"fractal-mutation","trial_index":71,"time_elapsed":2319238,"internal_node_id":"0.0-5.0-17.0"},{"group":"tri cycles (cube, non-group)","fractal_assignment":["../images/grn_red.png","../images/ylw_slt.png","../images/pnk_blu.png","../images/blu_wht.png","../images/cyn_red.png","../images/ylw_pnk.png","../images/org_blu.png","../images/gry_blk.png"],"mutagen_generator_assignment":[0,1],"goal":2,"start":7,"action_noise":0.1,"location_history":"[7,3,7,3,7,6,5,1,0,3,7,6,5,2]","action_history":"[0,0,1,0,0,1,0,0,1,0,0,1,0]","mutagen_history":"[0,0,1,0,0,1,0,0,1,0,0,1,0]","location_rts":"[108,66,131,118,25,154,82,90,43,76,58,135,171]","trial_type":"fractal-mutation","trial_index":72,"time_elapsed":2337302,"internal_node_id":"0.0-5.0-18.0"},{"group":"tri cycles (cube, non-group)","fractal_assignment":["../images/grn_red.png","../images/ylw_slt.png","../images/pnk_blu.png","../images/blu_wht.png","../images/cyn_red.png","../images/ylw_pnk.png","../images/org_blu.png","../images/gry_blk.png"],"mutagen_generator_assignment":[0,1],"goal":1,"start":2,"action_noise":0.1,"location_history":"[2,1]","action_history":"[0]","mutagen_history":"[0]","location_rts":"[12]","trial_type":"fractal-mutation","trial_index":73,"time_elapsed":2341841,"internal_node_id":"0.0-5.0-19.0"},{"group":"tri cycles (cube, non-group)","fractal_assignment":["../images/grn_red.png","../images/ylw_slt.png","../images/pnk_blu.png","../images/blu_wht.png","../images/cyn_red.png","../images/ylw_pnk.png","../images/org_blu.png","../images/gry_blk.png"],"mutagen_generator_assignment":[0,1],"goal":3,"start":1,"action_noise":0.1,"location_history":"[1,5,1,5,2,1,5,1,0,3]","action_history":"[0,0,1,0,0,1,0,0,1]","mutagen_history":"[0,0,1,0,0,1,0,0,1]","location_rts":"[129,312,98,206,83,66,128,43,155]","trial_type":"fractal-mutation","trial_index":74,"time_elapsed":2355771,"internal_node_id":"0.0-5.0-20.0"},{"group":"tri cycles (cube, non-group)","fractal_assignment":["../images/grn_red.png","../images/ylw_slt.png","../images/pnk_blu.png","../images/blu_wht.png","../images/cyn_red.png","../images/ylw_pnk.png","../images/org_blu.png","../images/gry_blk.png"],"mutagen_generator_assignment":[0,1],"goal":6,"start":3,"action_noise":0.1,"location_history":"[3,7,6]","action_history":"[0,0]","mutagen_history":"[0,0]","location_rts":"[222,122]","trial_type":"fractal-mutation","trial_index":75,"time_elapsed":2361665,"internal_node_id":"0.0-5.0-21.0"},{"group":"tri cycles (cube, non-group)","fractal_assignment":["../images/grn_red.png","../images/ylw_slt.png","../images/pnk_blu.png","../images/blu_wht.png","../images/cyn_red.png","../images/ylw_pnk.png","../images/org_blu.png","../images/gry_blk.png"],"mutagen_generator_assignment":[0,1],"goal":5,"start":6,"action_noise":0.1,"location_history":"[6,4,7,3,7,6,5]","action_history":"[0,0,1,0,0,1]","mutagen_history":"[0,0,1,0,0,1]","location_rts":"[224,82,74,330,25,170]","trial_type":"fractal-mutation","trial_index":76,"time_elapsed":2372234,"internal_node_id":"0.0-5.0-22.0"},{"group":"tri cycles (cube, non-group)","fractal_assignment":["../images/grn_red.png","../images/ylw_slt.png","../images/pnk_blu.png","../images/blu_wht.png","../images/cyn_red.png","../images/ylw_pnk.png","../images/org_blu.png","../images/gry_blk.png"],"mutagen_generator_assignment":[0,1],"goal":3,"start":5,"action_noise":0.1,"location_history":"[5,1,0,3]","action_history":"[0,0,1]","mutagen_history":"[0,0,1]","location_rts":"[175,7,178]","trial_type":"fractal-mutation","trial_index":77,"time_elapsed":2379170,"internal_node_id":"0.0-5.0-23.0"},{"group":"tri cycles (cube, non-group)","fractal_assignment":["../images/grn_red.png","../images/ylw_slt.png","../images/pnk_blu.png","../images/blu_wht.png","../images/cyn_red.png","../images/ylw_pnk.png","../images/org_blu.png","../images/gry_blk.png"],"mutagen_generator_assignment":[0,1],"goal":0,"start":3,"action_noise":0.1,"location_history":"[3,7,6,5,1,0]","action_history":"[0,0,1,0,0]","mutagen_history":"[0,0,1,0,0]","location_rts":"[8,39,33,17,186]","trial_type":"fractal-mutation","trial_index":78,"time_elapsed":2388073,"internal_node_id":"0.0-5.0-24.0"},{"group":"tri cycles (cube, non-group)","fractal_assignment":["../images/grn_red.png","../images/ylw_slt.png","../images/pnk_blu.png","../images/blu_wht.png","../images/cyn_red.png","../images/ylw_pnk.png","../images/org_blu.png","../images/gry_blk.png"],"mutagen_generator_assignment":[0,1],"goal":7,"start":0,"action_noise":0.1,"location_history":"[0,2,1,5,2,1,5,1,0,3,7]","action_history":"[0,0,1,0,0,1,0,0,1,0]","mutagen_history":"[0,0,1,0,0,1,0,0,1,0]","location_rts":"[104,47,56,20,73,35,8,49,186,32]","trial_type":"fractal-mutation","trial_index":79,"time_elapsed":2402431,"internal_node_id":"0.0-5.0-25.0"},{"group":"tri cycles (cube, non-group)","fractal_assignment":["../images/grn_red.png","../images/ylw_slt.png","../images/pnk_blu.png","../images/blu_wht.png","../images/cyn_red.png","../images/ylw_pnk.png","../images/org_blu.png","../images/gry_blk.png"],"mutagen_generator_assignment":[0,1],"goal":2,"start":7,"action_noise":0.1,"location_history":"[7,6,4,0,2]","action_history":"[0,0,1,0]","mutagen_history":"[0,0,1,0]","location_rts":"[178,9,82,45]","trial_type":"fractal-mutation","trial_index":80,"time_elapsed":2410343,"internal_node_id":"0.0-5.0-26.0"},{"group":"tri cycles (cube, non-group)","fractal_assignment":["../images/grn_red.png","../images/ylw_slt.png","../images/pnk_blu.png","../images/blu_wht.png","../images/cyn_red.png","../images/ylw_pnk.png","../images/org_blu.png","../images/gry_blk.png"],"mutagen_generator_assignment":[0,1],"goal":1,"start":2,"action_noise":0.1,"location_history":"[2,1]","action_history":"[0]","mutagen_history":"[0]","location_rts":"[226]","trial_type":"fractal-mutation","trial_index":81,"time_elapsed":2415096,"internal_node_id":"0.0-5.0-27.0"},{"group":"tri cycles (cube, non-group)","fractal_assignment":["../images/grn_red.png","../images/ylw_slt.png","../images/pnk_blu.png","../images/blu_wht.png","../images/cyn_red.png","../images/ylw_pnk.png","../images/org_blu.png","../images/gry_blk.png"],"mutagen_generator_assignment":[0,1],"goal":5,"start":1,"action_noise":0.1,"location_history":"[1,0,2,6,4,7,3,7,6,5]","action_history":"[0,0,1,0,0,1,0,0,1]","mutagen_history":"[0,0,1,0,0,1,0,0,1]","location_rts":"[72,215,176,21,99,65,0,145,120]","trial_type":"fractal-mutation","trial_index":82,"time_elapsed":2428744,"internal_node_id":"0.0-5.0-28.0"},{"group":"tri cycles (cube, non-group)","fractal_assignment":["../images/grn_red.png","../images/ylw_slt.png","../images/pnk_blu.png","../images/blu_wht.png","../images/cyn_red.png","../images/ylw_pnk.png","../images/org_blu.png","../images/gry_blk.png"],"mutagen_generator_assignment":[0,1],"goal":4,"start":5,"action_noise":0.1,"location_history":"[5,1,0,3,7,6,4]","action_history":"[0,0,1,0,0,1]","mutagen_history":"[0,0,1,0,0,1]","location_rts":"[113,176,107,130,152,106]","trial_type":"fractal-mutation","trial_index":83,"time_elapsed":2439167,"internal_node_id":"0.0-5.0-29.0"},{"group":"tri cycles (cube, non-group)","fractal_assignment":["../images/grn_red.png","../images/ylw_slt.png","../images/pnk_blu.png","../images/blu_wht.png","../images/cyn_red.png","../images/ylw_pnk.png","../images/org_blu.png","../images/gry_blk.png"],"mutagen_generator_assignment":[0,1],"goal":6,"start":4,"action_noise":0.1,"location_history":"[4,7,6]","action_history":"[0,0]","mutagen_history":"[0,0]","location_rts":"[81,128]","trial_type":"fractal-mutation","trial_index":84,"time_elapsed":2444927,"internal_node_id":"0.0-5.0-30.0"},{"group":"tri cycles (cube, non-group)","fractal_assignment":["../images/grn_red.png","../images/ylw_slt.png","../images/pnk_blu.png","../images/blu_wht.png","../images/cyn_red.png","../images/ylw_pnk.png","../images/org_blu.png","../images/gry_blk.png"],"mutagen_generator_assignment":[0,1],"goal":4,"start":6,"action_noise":0.1,"location_history":"[6,4]","action_history":"[0]","mutagen_history":"[0]","location_rts":"[177]","trial_type":"fractal-mutation","trial_index":85,"time_elapsed":2449631,"internal_node_id":"0.0-5.0-31.0"},{"group":"tri cycles (cube, non-group)","fractal_assignment":["../images/grn_red.png","../images/ylw_slt.png","../images/pnk_blu.png","../images/blu_wht.png","../images/cyn_red.png","../images/ylw_pnk.png","../images/org_blu.png","../images/gry_blk.png"],"mutagen_generator_assignment":[0,1],"goal":2,"start":4,"action_noise":0.1,"location_history":"[4,7,6,4,7,3,4,7,6,5,1,0,3,7,6,5,1,0,3,7,3,4,7,6,5,1,0,2]","action_history":"[0,0,1,0,0,1,0,0,1,0,0,1,0,0,1,0,0,1,0,1,1,0,0,1,0,0,1]","mutagen_history":"[0,0,1,0,0,1,0,0,1,0,0,1,0,0,1,0,0,1,0,1,1,0,0,1,0,0,1]","location_rts":"[129,123,153,28,113,139,371,226,137,22,58,152,33,58,50,149,74,242,39,155,138,8,58,114,618,34,90]","trial_type":"fractal-mutation","trial_index":86,"time_elapsed":2484316,"internal_node_id":"0.0-5.0-32.0"},{"group":"tri cycles (cube, non-group)","fractal_assignment":["../images/grn_red.png","../images/ylw_slt.png","../images/pnk_blu.png","../images/blu_wht.png","../images/cyn_red.png","../images/ylw_pnk.png","../images/org_blu.png","../images/gry_blk.png"],"mutagen_generator_assignment":[0,1],"goal":0,"start":2,"action_noise":0.1,"location_history":"[2,1,5,2,1,0]","action_history":"[0,0,1,0,0]","mutagen_history":"[0,0,1,0,0]","location_rts":"[519,81,25,74,106]","trial_type":"fractal-mutation","trial_index":87,"time_elapsed":2493735,"internal_node_id":"0.0-5.0-33.0"},{"group":"tri cycles (cube, non-group)","fractal_assignment":["../images/grn_red.png","../images/ylw_slt.png","../images/pnk_blu.png","../images/blu_wht.png","../images/cyn_red.png","../images/ylw_pnk.png","../images/org_blu.png","../images/gry_blk.png"],"mutagen_generator_assignment":[0,1],"goal":5,"start":0,"action_noise":0.1,"location_history":"[0,2,1,0,3,7,6,5]","action_history":"[0,0,1,1,0,0,1]","mutagen_history":"[0,0,1,1,0,0,1]","location_rts":"[106,75,127,23,96,90,162]","trial_type":"fractal-mutation","trial_index":88,"time_elapsed":2505089,"internal_node_id":"0.0-5.0-34.0"},{"group":"tri cycles (cube, non-group)","fractal_assignment":["../images/grn_red.png","../images/ylw_slt.png","../images/pnk_blu.png","../images/blu_wht.png","../images/cyn_red.png","../images/ylw_pnk.png","../images/org_blu.png","../images/gry_blk.png"],"mutagen_generator_assignment":[0,1],"goal":1,"start":5,"action_noise":0.1,"location_history":"[5,1]","action_history":"[0]","mutagen_history":"[0]","location_rts":"[208]","trial_type":"fractal-mutation","trial_index":89,"time_elapsed":2509825,"internal_node_id":"0.0-5.0-35.0"},{"group":"tri cycles (cube, non-group)","fractal_assignment":["../images/grn_red.png","../images/ylw_slt.png","../images/pnk_blu.png","../images/blu_wht.png","../images/cyn_red.png","../images/ylw_pnk.png","../images/org_blu.png","../images/gry_blk.png"],"mutagen_generator_assignment":[0,1],"goal":7,"start":1,"action_noise":0.1,"location_history":"[1,0,2,6,4,7]","action_history":"[0,0,1,0,0]","mutagen_history":"[0,0,1,0,0]","location_rts":"[64,105,121,216,138]","trial_type":"fractal-mutation","trial_index":90,"time_elapsed":2519087,"internal_node_id":"0.0-5.0-36.0"},{"group":"tri cycles (cube, non-group)","fractal_assignment":["../images/grn_red.png","../images/ylw_slt.png","../images/pnk_blu.png","../images/blu_wht.png","../images/cyn_red.png","../images/ylw_pnk.png","../images/org_blu.png","../images/gry_blk.png"],"mutagen_generator_assignment":[0,1],"goal":3,"start":7,"action_noise":0.1,"location_history":"[7,6,5,1,0,2,1,0,2,6,4,7,3]","action_history":"[0,1,1,0,0,0,0,0,0,0,0,1]","mutagen_history":"[0,1,1,0,0,0,0,0,0,0,0,1]","location_rts":"[91,313,297,663,155,394,338,225,178,353,528,34]","trial_type":"fractal-mutation","trial_index":91,"time_elapsed":2538441,"internal_node_id":"0.0-5.0-37.0"},{"group":"tri cycles (cube, non-group)","fractal_assignment":["../images/grn_red.png","../images/ylw_slt.png","../images/pnk_blu.png","../images/blu_wht.png","../images/cyn_red.png","../images/ylw_pnk.png","../images/org_blu.png","../images/gry_blk.png"],"mutagen_generator_assignment":[0,1],"goal":6,"start":3,"action_noise":0.1,"location_history":"[3,7,6]","action_history":"[0,0]","mutagen_history":"[0,0]","location_rts":"[431,128]","trial_type":"fractal-mutation","trial_index":92,"time_elapsed":2544550,"internal_node_id":"0.0-5.0-38.0"},{"group":"tri cycles (cube, non-group)","fractal_assignment":["../images/grn_red.png","../images/ylw_slt.png","../images/pnk_blu.png","../images/blu_wht.png","../images/cyn_red.png","../images/ylw_pnk.png","../images/org_blu.png","../images/gry_blk.png"],"mutagen_generator_assignment":[0,1],"goal":2,"start":6,"action_noise":0.1,"location_history":"[6,4,7,3,7,3,4,0,2]","action_history":"[0,0,1,0,1,1,1,0]","mutagen_history":"[0,0,1,0,1,1,1,0]","location_rts":"[114,130,28,12,83,201,8,202]","trial_type":"fractal-mutation","trial_index":93,"time_elapsed":2557031,"internal_node_id":"0.0-5.0-39.0"},{"group":"tri cycles (cube, non-group)","fractal_assignment":["../images/grn_red.png","../images/ylw_slt.png","../images/pnk_blu.png","../images/blu_wht.png","../images/cyn_red.png","../images/ylw_pnk.png","../images/org_blu.png","../images/gry_blk.png"],"mutagen_generator_assignment":[0,1],"goal":1,"start":2,"action_noise":0.1,"location_history":"[2,6,5,1]","action_history":"[1,1,0]","mutagen_history":"[1,1,0]","location_rts":"[168,38,237]","trial_type":"fractal-mutation","trial_index":94,"time_elapsed":2564054,"internal_node_id":"0.0-5.0-40.0"},{"group":"tri cycles (cube, non-group)","fractal_assignment":["../images/grn_red.png","../images/ylw_slt.png","../images/pnk_blu.png","../images/blu_wht.png","../images/cyn_red.png","../images/ylw_pnk.png","../images/org_blu.png","../images/gry_blk.png"],"mutagen_generator_assignment":[0,1],"goal":0,"start":1,"action_noise":0.1,"location_history":"[1,5,2,1,5,2,1,5,2,1,5,2,1,5,2,6,5,2,6,4,0]","action_history":"[1,1,0,1,1,0,1,1,0,1,1,0,1,1,1,0,1,1,0,1]","mutagen_history":"[1,1,0,1,1,0,1,1,0,1,1,0,1,1,1,0,1,1,0,1]","location_rts":"[49,120,178,51,118,120,200,3,6,106,144,86,307,57,223,59,751,161,544,541]","trial_type":"fractal-mutation","trial_index":95,"time_elapsed":2591932,"internal_node_id":"0.0-5.0-41.0"},{"group":"tri cycles (cube, non-group)","fractal_assignment":["../images/grn_red.png","../images/ylw_slt.png","../images/pnk_blu.png","../images/blu_wht.png","../images/cyn_red.png","../images/ylw_pnk.png","../images/org_blu.png","../images/gry_blk.png"],"mutagen_generator_assignment":[0,1],"goal":4,"start":0,"action_noise":0.1,"location_history":"[0,3,4]","action_history":"[1,1]","mutagen_history":"[1,1]","location_rts":"[204,137]","trial_type":"fractal-mutation","trial_index":96,"time_elapsed":2597838,"internal_node_id":"0.0-5.0-42.0"},{"group":"tri cycles (cube, non-group)","fractal_assignment":["../images/grn_red.png","../images/ylw_slt.png","../images/pnk_blu.png","../images/blu_wht.png","../images/cyn_red.png","../images/ylw_pnk.png","../images/org_blu.png","../images/gry_blk.png"],"mutagen_generator_assignment":[0,1],"goal":6,"start":4,"action_noise":0.1,"location_history":"[4,0,2,1,5,2,1,0,3,7,3,4,0,2,6]","action_history":"[1,1,0,1,1,0,1,1,0,1,1,1,0,1]","mutagen_history":"[1,1,0,1,1,0,1,1,0,1,1,1,0,1]","location_rts":"[129,38,147,17,81,181,27,51,4,89,80,56,4,129]","trial_type":"fractal-mutation","trial_index":97,"time_elapsed":2616735,"internal_node_id":"0.0-5.0-43.0"},{"group":"tri cycles (cube, non-group)","fractal_assignment":["../images/grn_red.png","../images/ylw_slt.png","../images/pnk_blu.png","../images/blu_wht.png","../images/cyn_red.png","../images/ylw_pnk.png","../images/org_blu.png","../images/gry_blk.png"],"mutagen_generator_assignment":[0,1],"goal":3,"start":6,"action_noise":0.1,"location_history":"[6,5,1,5,2,6,4,0,2,6,5,1,0,2,6,4,0,3]","action_history":"[1,0,1,1,1,0,1,0,1,1,1,0,1,1,0,1,0]","mutagen_history":"[1,0,1,1,1,0,1,0,1,1,1,0,1,1,0,1,0]","location_rts":"[72,74,104,106,85,137,178,228,26,80,25,45,42,45,105,345,32]","trial_type":"fractal-mutation","trial_index":98,"time_elapsed":2639399,"internal_node_id":"0.0-5.0-44.0"},{"group":"tri cycles (cube, non-group)","fractal_assignment":["../images/grn_red.png","../images/ylw_slt.png","../images/pnk_blu.png","../images/blu_wht.png","../images/cyn_red.png","../images/ylw_pnk.png","../images/org_blu.png","../images/gry_blk.png"],"mutagen_generator_assignment":[0,1],"goal":7,"start":3,"action_noise":0.1,"location_history":"[3,4,0,2,6,5,1,0,3,7]","action_history":"[1,1,0,1,1,0,1,1,0]","mutagen_history":"[1,1,0,1,1,0,1,1,0]","location_rts":"[64,17,176,222,41,164,147,37,169]","trial_type":"fractal-mutation","trial_index":99,"time_elapsed":2653175,"internal_node_id":"0.0-5.0-45.0"},{"group":"tri cycles (cube, non-group)","fractal_assignment":["../images/grn_red.png","../images/ylw_slt.png","../images/pnk_blu.png","../images/blu_wht.png","../images/cyn_red.png","../images/ylw_pnk.png","../images/org_blu.png","../images/gry_blk.png"],"mutagen_generator_assignment":[0,1],"goal":5,"start":7,"action_noise":0.1,"location_history":"[7,6,5]","action_history":"[1,1]","mutagen_history":"[1,1]","location_rts":"[192,31]","trial_type":"fractal-mutation","trial_index":100,"time_elapsed":2658950,"internal_node_id":"0.0-5.0-46.0"},{"group":"tri cycles (cube, non-group)","fractal_assignment":["../images/grn_red.png","../images/ylw_slt.png","../images/pnk_blu.png","../images/blu_wht.png","../images/cyn_red.png","../images/ylw_pnk.png","../images/org_blu.png","../images/gry_blk.png"],"mutagen_generator_assignment":[0,1],"goal":1,"start":5,"action_noise":0.1,"location_history":"[5,1]","action_history":"[1]","mutagen_history":"[1]","location_rts":"[211]","trial_type":"fractal-mutation","trial_index":101,"time_elapsed":2663689,"internal_node_id":"0.0-5.0-47.0"},{"group":"tri cycles (cube, non-group)","fractal_assignment":["../images/grn_red.png","../images/ylw_slt.png","../images/pnk_blu.png","../images/blu_wht.png","../images/cyn_red.png","../images/ylw_pnk.png","../images/org_blu.png","../images/gry_blk.png"],"mutagen_generator_assignment":[0,1],"goal":6,"start":1,"action_noise":0.1,"location_history":"[1,5,2,1,5,1,5,2,1,5,2,1,0,3,7,3,4,7,3,4,7,3,7,6]","action_history":"[1,1,0,1,1,1,1,0,1,1,0,1,1,0,1,1,0,1,1,0,1,1,0]","mutagen_history":"[1,1,0,1,1,1,1,0,1,1,0,1,1,0,1,1,0,1,1,0,1,1,0]","location_rts":"[111,3,103,146,182,65,167,207,74,9,135,186,99,17,202,17,47,143,30,174,83,47,104]","trial_type":"fractal-mutation","trial_index":102,"time_elapsed":2693149,"internal_node_id":"0.0-5.0-48.0"},{"group":"tri cycles (cube, non-group)","fractal_assignment":["../images/grn_red.png","../images/ylw_slt.png","../images/pnk_blu.png","../images/blu_wht.png","../images/cyn_red.png","../images/ylw_pnk.png","../images/org_blu.png","../images/gry_blk.png"],"mutagen_generator_assignment":[0,1],"goal":0,"start":6,"action_noise":0.1,"location_history":"[6,5,1,5,2,1,5,2,1,5,2,6,4,0]","action_history":"[1,0,1,1,0,1,1,0,1,1,1,0,1]","mutagen_history":"[1,0,1,1,0,1,1,0,1,1,1,0,1]","location_rts":"[210,206,75,62,102,378,61,78,64,100,23,153,8]","trial_type":"fractal-mutation","trial_index":103,"time_elapsed":2711549,"internal_node_id":"0.0-5.0-49.0"},{"view_history":"[{\"page_index\":0,\"viewing_time\":22053}]","rt":22053,"trial_type":"instructions","trial_index":104,"time_elapsed":2734602,"internal_node_id":"0.0-6.0"},{"rt":1158,"responses":"{\"Q0\":\"\"}","trial_type":"survey-text","trial_index":105,"time_elapsed":2736769,"internal_node_id":"0.0-7.0"}]