[{"view_history":"[{\"page_index\":0,\"viewing_time\":2460082},{\"page_index\":1,\"viewing_time\":15916}]","rt":2475998,"trial_type":"instructions","trial_index":0,"time_elapsed":2475998,"internal_node_id":"0.0-0.0"},{"view_history":"[{\"page_index\":0,\"viewing_time\":2894},{\"page_index\":1,\"viewing_time\":154527}]","rt":157421,"trial_type":"instructions","trial_index":1,"time_elapsed":2634420,"internal_node_id":"0.0-1.0"},{"group":"tri cycles (cube, non-group)","room_assignment":["green","blue","brown","yellow","grey","purple","pink","red"],"door_color_assignment":["white","black"],"door_generator_assignment":[1,0],"goal":6,"start":3,"action_noise":0.1,"location_history":"[3,7,6]","action_history":"[0,0]","door_history":"[1,1]","location_rts":"[1257,271]","trial_type":"two-door-navigation","trial_index":2,"time_elapsed":2641493,"internal_node_id":"0.0-2.0-0.0"},{"group":"tri cycles (cube, non-group)","room_assignment":["green","blue","brown","yellow","grey","purple","pink","red"],"door_color_assignment":["white","black"],"door_generator_assignment":[1,0],"goal":1,"start":6,"action_noise":0.1,"location_history":"[6,4,7,6,4,7,6,5,1]","action_history":"[0,0,0,0,0,0,1,0]","door_history":"[1,1,1,1,1,1,0,1]","location_rts":"[571,257,297,910,430,399,968,391]","trial_type":"two-door-navigation","trial_index":3,"time_elapsed":2657354,"internal_node_id":"0.0-2.0-1.0"},{"group":"tri cycles (cube, non-group)","room_assignment":["green","blue","brown","yellow","grey","purple","pink","red"],"door_color_assignment":["white","black"],"door_generator_assignment":[1,0],"goal":2,"start":1,"action_noise":0.1,"location_history":"[1,0,2]","action_history":"[0,0]","door_history":"[1,1]","location_rts":"[1081,371]","trial_type":"two-door-navigation","trial_index":4,"time_elapsed":2664340,"internal_node_id":"0.0-2.0-2.0"},{"group":"tri cycles (cube, non-group)","room_assignment":["green","blue","brown","yellow","grey","purple","pink","red"],"door_color_assignment":["white","black"],"door_generator_assignment":[1,0],"goal":0,"start":2,"action_noise":0.1,"location_history":"[2,1,0]","action_history":"[0,0]","door_history":"[1,1]","location_rts":"[391,224]","trial_type":"two-door-navigation","trial_index":5,"time_elapsed":2670492,"internal_node_id":"0.0-2.0-3.0"},{"group":"tri cycles (cube, non-group)","room_assignment":["green","blue","brown","yellow","grey","purple","pink","red"],"door_color_assignment":["white","black"],"door_generator_assignment":[1,0],"goal":7,"start":0,"action_noise":0.1,"location_history":"[0,2,1,0,2,6,5,1,0,2,1,5,1,0,2,1,0,3,4,7]","action_history":"[0,0,0,1,1,1,0,0,0,0,1,0,0,0,0,1,1,0,0]","door_history":"[1,1,1,0,0,0,1,1,1,1,0,1,1,1,1,0,0,1,1]","location_rts":"[1149,86,259,256,306,275,486,1965,258,350,1282,286,313,422,525,287,898,268,385]","trial_type":"two-door-navigation","trial_index":6,"time_elapsed":2703367,"internal_node_id":"0.0-2.0-4.0"},{"group":"tri cycles (cube, non-group)","room_assignment":["green","blue","brown","yellow","grey","purple","pink","red"],"door_color_assignment":["white","black"],"door_generator_assignment":[1,0],"goal":5,"start":7,"action_noise":0.1,"location_history":"[7,6,4,7,6,5]","action_history":"[0,0,0,0,1]","door_history":"[1,1,1,1,0]","location_rts":"[1033,243,338,352,225]","trial_type":"two-door-navigation","trial_index":7,"time_elapsed":2714140,"internal_node_id":"0.0-2.0-5.0"},{"group":"tri cycles (cube, non-group)","room_assignment":["green","blue","brown","yellow","grey","purple","pink","red"],"door_color_assignment":["white","black"],"door_generator_assignment":[1,0],"goal":4,"start":5,"action_noise":0.1,"location_history":"[5,1,0,2,6,4]","action_history":"[0,0,0,1,0]","door_history":"[1,1,1,0,1]","location_rts":"[623,293,251,329,260]","trial_type":"two-door-navigation","trial_index":8,"time_elapsed":2724475,"internal_node_id":"0.0-2.0-6.0"},{"group":"tri cycles (cube, non-group)","room_assignment":["green","blue","brown","yellow","grey","purple","pink","red"],"door_color_assignment":["white","black"],"door_generator_assignment":[1,0],"goal":2,"start":4,"action_noise":0.1,"location_history":"[4,0,3,7,3,7,6,4,0,2]","action_history":"[0,0,0,1,0,0,0,1,0]","door_history":"[1,1,1,0,1,1,1,0,1]","location_rts":"[350,171,86,389,126,141,322,252,320]","trial_type":"two-door-navigation","trial_index":9,"time_elapsed":2739289,"internal_node_id":"0.0-2.0-7.0"},{"group":"tri cycles (cube, non-group)","room_assignment":["green","blue","brown","yellow","grey","purple","pink","red"],"door_color_assignment":["white","black"],"door_generator_assignment":[1,0],"goal":3,"start":2,"action_noise":0.1,"location_history":"[2,1,0,2,6,4,7,6,5,1,0,2,6,5,2,6,4,7,6,4,7,6,4,7,6,4,0,2,1,0,3]","action_history":"[0,0,0,1,0,0,0,1,0,0,0,1,1,1,1,1,0,0,0,0,0,0,0,0,0,1,0,0,0,1]","door_history":"[1,1,1,0,1,1,1,0,1,1,1,0,0,0,0,0,1,1,1,1,1,1,1,1,1,0,1,1,1,0]","location_rts":"[565,181,283,324,292,241,327,267,221,272,253,228,270,280,374,303,595,224,269,237,190,331,232,366,314,273,281,347,200,394]","trial_type":"two-door-navigation","trial_index":10,"time_elapsed":2782210,"internal_node_id":"0.0-2.0-8.0"},{"group":"tri cycles (cube, non-group)","room_assignment":["green","blue","brown","yellow","grey","purple","pink","red"],"door_color_assignment":["white","black"],"door_generator_assignment":[1,0],"goal":7,"start":3,"action_noise":0.1,"location_history":"[3,7]","action_history":"[0]","door_history":"[1]","location_rts":"[1286]","trial_type":"two-door-navigation","trial_index":11,"time_elapsed":2788012,"internal_node_id":"0.0-2.0-9.0"},{"group":"tri cycles (cube, non-group)","room_assignment":["green","blue","brown","yellow","grey","purple","pink","red"],"door_color_assignment":["white","black"],"door_generator_assignment":[1,0],"goal":0,"start":7,"action_noise":0.1,"location_history":"[7,6,4,0]","action_history":"[0,0,0]","door_history":"[1,1,1]","location_rts":"[427,252,250]","trial_type":"two-door-navigation","trial_index":12,"time_elapsed":2795487,"internal_node_id":"0.0-2.0-10.0"},{"group":"tri cycles (cube, non-group)","room_assignment":["green","blue","brown","yellow","grey","purple","pink","red"],"door_color_assignment":["white","black"],"door_generator_assignment":[1,0],"goal":1,"start":0,"action_noise":0.1,"location_history":"[0,2,1]","action_history":"[0,0]","door_history":"[1,1]","location_rts":"[311,117]","trial_type":"two-door-navigation","trial_index":13,"time_elapsed":2801449,"internal_node_id":"0.0-2.0-11.0"},{"group":"tri cycles (cube, non-group)","room_assignment":["green","blue","brown","yellow","grey","purple","pink","red"],"door_color_assignment":["white","black"],"door_generator_assignment":[1,0],"goal":6,"start":1,"action_noise":0.1,"location_history":"[1,5,1,5,1,0,2,1,0,2,1,0,2,1,0,2,6]","action_history":"[0,0,0,1,1,1,1,0,0,0,0,1,0,0,0,1]","door_history":"[1,1,1,0,0,0,0,1,1,1,1,0,1,1,1,0]","location_rts":"[898,569,213,258,305,109,277,277,266,318,375,344,174,250,293,323]","trial_type":"two-door-navigation","trial_index":14,"time_elapsed":2826456,"internal_node_id":"0.0-2.0-12.0"},{"group":"tri cycles (cube, non-group)","room_assignment":["green","blue","brown","yellow","grey","purple","pink","red"],"door_color_assignment":["white","black"],"door_generator_assignment":[1,0],"goal":4,"start":6,"action_noise":0.1,"location_history":"[6,4]","action_history":"[0]","door_history":"[1]","location_rts":"[740]","trial_type":"two-door-navigation","trial_index":15,"time_elapsed":2831715,"internal_node_id":"0.0-2.0-13.0"},{"group":"tri cycles (cube, non-group)","room_assignment":["green","blue","brown","yellow","grey","purple","pink","red"],"door_color_assignment":["white","black"],"door_generator_assignment":[1,0],"goal":5,"start":4,"action_noise":0.1,"location_history":"[4,0,2,6,4,7,3,7,3,7,6,4,7,6,5]","action_history":"[0,0,0,0,0,0,0,1,0,0,0,0,0,1]","door_history":"[1,1,1,1,1,1,1,0,1,1,1,1,1,0]","location_rts":"[549,638,854,678,580,651,438,455,295,447,127,359,363,227]","trial_type":"two-door-navigation","trial_index":16,"time_elapsed":2856102,"internal_node_id":"0.0-2.0-14.0"},{"group":"tri cycles (cube, non-group)","room_assignment":["green","blue","brown","yellow","grey","purple","pink","red"],"door_color_assignment":["white","black"],"door_generator_assignment":[1,0],"goal":4,"start":5,"action_noise":0.1,"location_history":"[5,2,1,0,2,1,5,1,0,2,1,5,1,0,2,1,0,2,1,5,2,6,5,2,1,0,2,1,5,1,5,1,0,3,7,6,4]","action_history":"[0,0,0,0,0,1,0,0,0,0,1,0,0,0,0,1,0,0,0,1,1,1,1,0,0,0,0,1,0,0,0,0,1,0,0,0]","door_history":"[1,1,1,1,1,0,1,1,1,1,0,1,1,1,1,0,1,1,1,0,0,0,0,1,1,1,1,0,1,1,1,1,0,1,1,1]","location_rts":"[1104,417,292,366,322,231,508,506,337,508,234,273,773,859,1262,277,140,144,199,101,131,117,311,608,381,384,200,371,310,355,160,634,237,167,550,707]","trial_type":"two-door-navigation","trial_index":17,"time_elapsed":2910667,"internal_node_id":"0.0-2.0-15.0"},{"group":"tri cycles (cube, non-group)","room_assignment":["green","blue","brown","yellow","grey","purple","pink","red"],"door_color_assignment":["white","black"],"door_generator_assignment":[1,0],"goal":0,"start":4,"action_noise":0.1,"location_history":"[4,7,6,4,7,6,4,7,3,4,0]","action_history":"[0,0,0,0,0,0,0,1,1,1]","door_history":"[1,1,1,1,1,1,1,0,0,0]","location_rts":"[621,205,355,4547,6849,228,374,205,87,16]","trial_type":"two-door-navigation","trial_index":18,"time_elapsed":2937812,"internal_node_id":"0.0-2.0-16.0"},{"group":"tri cycles (cube, non-group)","room_assignment":["green","blue","brown","yellow","grey","purple","pink","red"],"door_color_assignment":["white","black"],"door_generator_assignment":[1,0],"goal":7,"start":0,"action_noise":0.1,"location_history":"[0,2,1,0,2,6,5,2,6,5,1,0,2,6,4,7]","action_history":"[0,0,0,0,1,1,1,1,1,0,0,0,1,0,0]","door_history":"[1,1,1,1,0,0,0,0,0,1,1,1,0,1,1]","location_rts":"[559,257,280,836,545,324,271,458,1007,965,372,369,593,290,314]","trial_type":"two-door-navigation","trial_index":19,"time_elapsed":2964006,"internal_node_id":"0.0-2.0-17.0"},{"group":"tri cycles (cube, non-group)","room_assignment":["green","blue","brown","yellow","grey","purple","pink","red"],"door_color_assignment":["white","black"],"door_generator_assignment":[1,0],"goal":2,"start":7,"action_noise":0.1,"location_history":"[7,6,4,0,2]","action_history":"[0,0,0,1]","door_history":"[1,1,1,0]","location_rts":"[31033,461,253,221]","trial_type":"two-door-navigation","trial_index":20,"time_elapsed":3003543,"internal_node_id":"0.0-2.0-18.0"},{"group":"tri cycles (cube, non-group)","room_assignment":["green","blue","brown","yellow","grey","purple","pink","red"],"door_color_assignment":["white","black"],"door_generator_assignment":[1,0],"goal":1,"start":2,"action_noise":0.1,"location_history":"[2,1]","action_history":"[0]","door_history":"[1]","location_rts":"[382]","trial_type":"two-door-navigation","trial_index":21,"time_elapsed":3008446,"internal_node_id":"0.0-2.0-19.0"},{"group":"tri cycles (cube, non-group)","room_assignment":["green","blue","brown","yellow","grey","purple","pink","red"],"door_color_assignment":["white","black"],"door_generator_assignment":[1,0],"goal":3,"start":1,"action_noise":0.1,"location_history":"[1,0,2,1,5,1,0,2,1,5,1,0,2,6,4,7,6,5,1,0,2,6,4,7,3]","action_history":"[0,0,0,1,0,0,0,0,1,0,0,0,1,0,0,0,1,0,0,0,1,0,0,0]","door_history":"[1,1,1,0,1,1,1,1,0,1,1,1,0,1,1,1,0,1,1,1,0,1,1,1]","location_rts":"[798,254,220,226,265,282,389,2706,382,1191,357,592,571,397,423,288,470,211,372,349,196,154,125,209]","trial_type":"two-door-navigation","trial_index":22,"time_elapsed":3047794,"internal_node_id":"0.0-2.0-20.0"},{"group":"tri cycles (cube, non-group)","room_assignment":["green","blue","brown","yellow","grey","purple","pink","red"],"door_color_assignment":["white","black"],"door_generator_assignment":[1,0],"goal":6,"start":3,"action_noise":0.1,"location_history":"[3,7,6]","action_history":"[0,0]","door_history":"[1,1]","location_rts":"[933,222]","trial_type":"two-door-navigation","trial_index":23,"time_elapsed":3054482,"internal_node_id":"0.0-2.0-21.0"},{"group":"tri cycles (cube, non-group)","room_assignment":["green","blue","brown","yellow","grey","purple","pink","red"],"door_color_assignment":["white","black"],"door_generator_assignment":[1,0],"goal":5,"start":6,"action_noise":0.1,"location_history":"[6,5]","action_history":"[0]","door_history":"[1]","location_rts":"[580]","trial_type":"two-door-navigation","trial_index":24,"time_elapsed":3059582,"internal_node_id":"0.0-2.0-22.0"},{"group":"tri cycles (cube, non-group)","room_assignment":["green","blue","brown","yellow","grey","purple","pink","red"],"door_color_assignment":["white","black"],"door_generator_assignment":[1,0],"goal":3,"start":5,"action_noise":0.1,"location_history":"[5,1,0,2,1,5,1,0,2,6,4,7,6,4,0,2,1,0,2,1,0,2,1,0,3]","action_history":"[0,0,0,0,1,0,0,0,1,0,0,0,0,1,0,0,0,0,0,1,0,0,0,1]","door_history":"[1,1,1,1,0,1,1,1,0,1,1,1,1,0,1,1,1,1,1,0,1,1,1,0]","location_rts":"[619,290,308,777,1009,276,268,443,383,232,164,251,377,384,235,190,244,314,969,343,329,273,384,1007]","trial_type":"two-door-navigation","trial_index":25,"time_elapsed":3097546,"internal_node_id":"0.0-2.0-23.0"},{"group":"tri cycles (cube, non-group)","room_assignment":["green","blue","brown","yellow","grey","purple","pink","red"],"door_color_assignment":["white","black"],"door_generator_assignment":[1,0],"goal":0,"start":3,"action_noise":0.1,"location_history":"[3,7,6,5,1,0]","action_history":"[0,0,0,0,0]","door_history":"[1,1,1,1,1]","location_rts":"[1095,186,182,617,366]","trial_type":"two-door-navigation","trial_index":26,"time_elapsed":3108584,"internal_node_id":"0.0-2.0-24.0"},{"group":"tri cycles (cube, non-group)","room_assignment":["green","blue","brown","yellow","grey","purple","pink","red"],"door_color_assignment":["white","black"],"door_generator_assignment":[1,0],"goal":7,"start":0,"action_noise":0.1,"location_history":"[0,2,1,0,3,7]","action_history":"[0,0,0,1,0]","door_history":"[1,1,1,0,1]","location_rts":"[1499,414,140,388,967]","trial_type":"two-door-navigation","trial_index":27,"time_elapsed":3120584,"internal_node_id":"0.0-2.0-25.0"},{"group":"tri cycles (cube, non-group)","room_assignment":["green","blue","brown","yellow","grey","purple","pink","red"],"door_color_assignment":["white","black"],"door_generator_assignment":[1,0],"goal":2,"start":7,"action_noise":0.1,"location_history":"[7,6,4,0,2]","action_history":"[0,0,0,0]","door_history":"[1,1,1,1]","location_rts":"[589,274,59,119]","trial_type":"two-door-navigation","trial_index":28,"time_elapsed":3129190,"internal_node_id":"0.0-2.0-26.0"},{"group":"tri cycles (cube, non-group)","room_assignment":["green","blue","brown","yellow","grey","purple","pink","red"],"door_color_assignment":["white","black"],"door_generator_assignment":[1,0],"goal":1,"start":2,"action_noise":0.1,"location_history":"[2,1]","action_history":"[0]","door_history":"[1]","location_rts":"[3897]","trial_type":"two-door-navigation","trial_index":29,"time_elapsed":3137610,"internal_node_id":"0.0-2.0-27.0"},{"group":"tri cycles (cube, non-group)","room_assignment":["green","blue","brown","yellow","grey","purple","pink","red"],"door_color_assignment":["white","black"],"door_generator_assignment":[1,0],"goal":5,"start":1,"action_noise":0.1,"location_history":"[1,0,2,1,0,3,4,7,6,4,7,6,5]","action_history":"[0,0,0,0,1,0,0,0,0,0,0,1]","door_history":"[1,1,1,1,0,1,1,1,1,1,1,0]","location_rts":"[10895,102,21,469,164,173,400,218,1047,18,610,211]","trial_type":"two-door-navigation","trial_index":30,"time_elapsed":3167942,"internal_node_id":"0.0-2.0-28.0"},{"group":"tri cycles (cube, non-group)","room_assignment":["green","blue","brown","yellow","grey","purple","pink","red"],"door_color_assignment":["white","black"],"door_generator_assignment":[1,0],"goal":4,"start":5,"action_noise":0.1,"location_history":"[5,1,0,2,1,0,2,6,4]","action_history":"[0,0,0,0,0,0,1,0]","door_history":"[1,1,1,1,1,1,0,1]","location_rts":"[9813,331,133,346,344,429,1023,294]","trial_type":"two-door-navigation","trial_index":31,"time_elapsed":3192296,"internal_node_id":"0.0-2.0-29.0"},{"group":"tri cycles (cube, non-group)","room_assignment":["green","blue","brown","yellow","grey","purple","pink","red"],"door_color_assignment":["white","black"],"door_generator_assignment":[1,0],"goal":6,"start":4,"action_noise":0.1,"location_history":"[4,7,6]","action_history":"[0,0]","door_history":"[1,1]","location_rts":"[627,237]","trial_type":"two-door-navigation","trial_index":32,"time_elapsed":3198695,"internal_node_id":"0.0-2.0-30.0"},{"group":"tri cycles (cube, non-group)","room_assignment":["green","blue","brown","yellow","grey","purple","pink","red"],"door_color_assignment":["white","black"],"door_generator_assignment":[1,0],"goal":4,"start":6,"action_noise":0.1,"location_history":"[6,4]","action_history":"[0]","door_history":"[1]","location_rts":"[649]","trial_type":"two-door-navigation","trial_index":33,"time_elapsed":3203865,"internal_node_id":"0.0-2.0-31.0"},{"group":"tri cycles (cube, non-group)","room_assignment":["green","blue","brown","yellow","grey","purple","pink","red"],"door_color_assignment":["white","black"],"door_generator_assignment":[1,0],"goal":2,"start":4,"action_noise":0.1,"location_history":"[4,7,6,4,7,6,4,7,6,5,1,0,2]","action_history":"[0,0,0,0,0,0,0,0,1,0,0,0]","door_history":"[1,1,1,1,1,1,1,1,0,1,1,1]","location_rts":"[563,652,1666,902,860,694,2267,680,424,439,596,355]","trial_type":"two-door-navigation","trial_index":34,"time_elapsed":3229668,"internal_node_id":"0.0-2.0-32.0"},{"group":"tri cycles (cube, non-group)","room_assignment":["green","blue","brown","yellow","grey","purple","pink","red"],"door_color_assignment":["white","black"],"door_generator_assignment":[1,0],"goal":0,"start":2,"action_noise":0.1,"location_history":"[2,1,0]","action_history":"[0,0]","door_history":"[1,1]","location_rts":"[761,427]","trial_type":"two-door-navigation","trial_index":35,"time_elapsed":3236395,"internal_node_id":"0.0-2.0-33.0"},{"group":"tri cycles (cube, non-group)","room_assignment":["green","blue","brown","yellow","grey","purple","pink","red"],"door_color_assignment":["white","black"],"door_generator_assignment":[1,0],"goal":5,"start":0,"action_noise":0.1,"location_history":"[0,2,1,0,2,1,0,2,1,0,2,6,4,0,3,7,3,7,3,7,6,5]","action_history":"[0,0,0,0,0,0,0,0,0,0,1,1,1,0,0,0,0,0,0,0,1]","door_history":"[1,1,1,1,1,1,1,1,1,1,0,0,0,1,1,1,1,1,1,1,0]","location_rts":"[1181,869,884,471,389,406,1526,509,688,408,238,396,2136,208,132,237,198,281,269,311,515]","trial_type":"two-door-navigation","trial_index":36,"time_elapsed":3273513,"internal_node_id":"0.0-2.0-34.0"},{"group":"tri cycles (cube, non-group)","room_assignment":["green","blue","brown","yellow","grey","purple","pink","red"],"door_color_assignment":["white","black"],"door_generator_assignment":[1,0],"goal":1,"start":5,"action_noise":0.1,"location_history":"[5,1]","action_history":"[0]","door_history":"[1]","location_rts":"[483]","trial_type":"two-door-navigation","trial_index":37,"time_elapsed":3278517,"internal_node_id":"0.0-2.0-35.0"},{"group":"tri cycles (cube, non-group)","room_assignment":["green","blue","brown","yellow","grey","purple","pink","red"],"door_color_assignment":["white","black"],"door_generator_assignment":[1,0],"goal":7,"start":1,"action_noise":0.1,"location_history":"[1,0,2,6,5,1,0,2,1,5,1,0,2,6,4,7]","action_history":"[0,0,0,1,0,0,0,0,1,0,0,0,1,0,0]","door_history":"[1,1,1,0,1,1,1,1,0,1,1,1,0,1,1]","location_rts":"[460,330,376,1011,311,248,188,329,398,254,223,390,1132,250,249]","trial_type":"two-door-navigation","trial_index":38,"time_elapsed":3303433,"internal_node_id":"0.0-2.0-36.0"},{"group":"tri cycles (cube, non-group)","room_assignment":["green","blue","brown","yellow","grey","purple","pink","red"],"door_color_assignment":["white","black"],"door_generator_assignment":[1,0],"goal":3,"start":7,"action_noise":0.1,"location_history":"[7,6,4,7,6,4,7,6,5,1,5,1,5,1,5,1,5,2,1,0,2,1,0,2,1,0,3]","action_history":"[0,0,0,0,0,0,0,0,0,0,0,0,0,1,0,1,1,0,0,0,0,0,0,0,0,0]","door_history":"[1,1,1,1,1,1,1,1,1,1,1,1,1,0,1,0,0,1,1,1,1,1,1,1,1,1]","location_rts":"[6188,875,398,415,554,2948,1326,1071,12414,248,144,479,322,132,908,674,1451,342,276,269,410,201,289,327,195,220]","trial_type":"two-door-navigation","trial_index":39,"time_elapsed":3366458,"internal_node_id":"0.0-2.0-37.0"},{"group":"tri cycles (cube, non-group)","room_assignment":["green","blue","brown","yellow","grey","purple","pink","red"],"door_color_assignment":["white","black"],"door_generator_assignment":[1,0],"goal":6,"start":3,"action_noise":0.1,"location_history":"[3,7,6]","action_history":"[0,0]","door_history":"[1,1]","location_rts":"[1791,5444]","trial_type":"two-door-navigation","trial_index":40,"time_elapsed":3379229,"internal_node_id":"0.0-2.0-38.0"},{"group":"tri cycles (cube, non-group)","room_assignment":["green","blue","brown","yellow","grey","purple","pink","red"],"door_color_assignment":["white","black"],"door_generator_assignment":[1,0],"goal":2,"start":6,"action_noise":0.1,"location_history":"[6,4,7,6,4,7,6,5,1,0,2]","action_history":"[0,0,0,0,0,0,0,0,0,0]","door_history":"[1,1,1,1,1,1,1,1,1,1]","location_rts":"[570,482,486,697,258,470,684,394,664,553]","trial_type":"two-door-navigation","trial_index":41,"time_elapsed":3398159,"internal_node_id":"0.0-2.0-39.0"},{"group":"tri cycles (cube, non-group)","room_assignment":["green","blue","brown","yellow","grey","purple","pink","red"],"door_color_assignment":["white","black"],"door_generator_assignment":[1,0],"goal":1,"start":2,"action_noise":0.1,"location_history":"[2,1]","action_history":"[0]","door_history":"[1]","location_rts":"[3548]","trial_type":"two-door-navigation","trial_index":42,"time_elapsed":3406226,"internal_node_id":"0.0-2.0-40.0"},{"group":"tri cycles (cube, non-group)","room_assignment":["green","blue","brown","yellow","grey","purple","pink","red"],"door_color_assignment":["white","black"],"door_generator_assignment":[1,0],"goal":0,"start":1,"action_noise":0.1,"location_history":"[1,0]","action_history":"[0]","door_history":"[1]","location_rts":"[757]","trial_type":"two-door-navigation","trial_index":43,"time_elapsed":3411502,"internal_node_id":"0.0-2.0-41.0"},{"group":"tri cycles (cube, non-group)","room_assignment":["green","blue","brown","yellow","grey","purple","pink","red"],"door_color_assignment":["white","black"],"door_generator_assignment":[1,0],"goal":4,"start":0,"action_noise":0.1,"location_history":"[0,2,1,0,2,1,0,3,7,6,4]","action_history":"[0,0,0,0,0,0,1,0,0,0]","door_history":"[1,1,1,1,1,1,0,1,1,1]","location_rts":"[737,536,274,270,367,247,274,1136,452,813]","trial_type":"two-door-navigation","trial_index":44,"time_elapsed":3430295,"internal_node_id":"0.0-2.0-42.0"},{"group":"tri cycles (cube, non-group)","room_assignment":["green","blue","brown","yellow","grey","purple","pink","red"],"door_color_assignment":["white","black"],"door_generator_assignment":[1,0],"goal":6,"start":4,"action_noise":0.1,"location_history":"[4,0,2,1,0,3,7,3,4,7,6]","action_history":"[1,0,0,0,0,0,0,1,0,0]","door_history":"[0,1,1,1,1,1,1,0,1,1]","location_rts":"[4088,875,499,314,1197,329,297,354,281,209]","trial_type":"two-door-navigation","trial_index":45,"time_elapsed":3452408,"internal_node_id":"0.0-2.0-43.0"},{"group":"tri cycles (cube, non-group)","room_assignment":["green","blue","brown","yellow","grey","purple","pink","red"],"door_color_assignment":["white","black"],"door_generator_assignment":[1,0],"goal":3,"start":6,"action_noise":0.1,"location_history":"[6,4,7,3]","action_history":"[0,0,1]","door_history":"[1,1,0]","location_rts":"[24332,1007,2048]","trial_type":"two-door-navigation","trial_index":46,"time_elapsed":3486345,"internal_node_id":"0.0-2.0-44.0"},{"group":"tri cycles (cube, non-group)","room_assignment":["green","blue","brown","yellow","grey","purple","pink","red"],"door_color_assignment":["white","black"],"door_generator_assignment":[1,0],"goal":7,"start":3,"action_noise":0.1,"location_history":"[3,7]","action_history":"[0]","door_history":"[1]","location_rts":"[1275]","trial_type":"two-door-navigation","trial_index":47,"time_elapsed":3492140,"internal_node_id":"0.0-2.0-45.0"},{"group":"tri cycles (cube, non-group)","room_assignment":["green","blue","brown","yellow","grey","purple","pink","red"],"door_color_assignment":["white","black"],"door_generator_assignment":[1,0],"goal":5,"start":7,"action_noise":0.1,"location_history":"[7,6,5]","action_history":"[0,1]","door_history":"[1,0]","location_rts":"[3157,1636]","trial_type":"two-door-navigation","trial_index":48,"time_elapsed":3502467,"internal_node_id":"0.0-2.0-46.0"},{"group":"tri cycles (cube, non-group)","room_assignment":["green","blue","brown","yellow","grey","purple","pink","red"],"door_color_assignment":["white","black"],"door_generator_assignment":[1,0],"goal":1,"start":5,"action_noise":0.1,"location_history":"[5,1]","action_history":"[0]","door_history":"[1]","location_rts":"[2508]","trial_type":"two-door-navigation","trial_index":49,"time_elapsed":3509489,"internal_node_id":"0.0-2.0-47.0"},{"group":"tri cycles (cube, non-group)","room_assignment":["green","blue","brown","yellow","grey","purple","pink","red"],"door_color_assignment":["white","black"],"door_generator_assignment":[1,0],"goal":6,"start":1,"action_noise":0.1,"location_history":"[1,0,3,4,0,2,6]","action_history":"[1,1,1,1,0,1]","door_history":"[0,0,0,0,1,0]","location_rts":"[1489,1637,1382,1125,875,1149]","trial_type":"two-door-navigation","trial_index":50,"time_elapsed":3526754,"internal_node_id":"0.0-2.0-48.0"},{"group":"tri cycles (cube, non-group)","room_assignment":["green","blue","brown","yellow","grey","purple","pink","red"],"door_color_assignment":["white","black"],"door_generator_assignment":[1,0],"goal":0,"start":6,"action_noise":0.1,"location_history":"[6,5,1,0]","action_history":"[0,0,0]","door_history":"[1,1,1]","location_rts":"[3686,282,539]","trial_type":"two-door-navigation","trial_index":51,"time_elapsed":3537814,"internal_node_id":"0.0-2.0-49.0"},{"view_history":"[{\"page_index\":0,\"viewing_time\":2431}]","rt":2431,"trial_type":"instructions","trial_index":52,"time_elapsed":3541246,"internal_node_id":"0.0-3.0"},{"view_history":"[{\"page_index\":0,\"viewing_time\":2782},{\"page_index\":1,\"viewing_time\":18360}]","rt":21142,"trial_type":"instructions","trial_index":53,"time_elapsed":3563389,"internal_node_id":"0.0-4.0"},{"group":"tri cycles (cube, non-group)","fractal_assignment":["../images/ylw_slt.png","../images/pnk_blu.png","../images/org_blu.png","../images/ylw_pnk.png","../images/grn_red.png","../images/cyn_red.png","../images/gry_blk.png","../images/blu_wht.png"],"mutagen_generator_assignment":[0,1],"goal":6,"start":3,"action_noise":0.1,"location_history":"[3,7,6]","action_history":"[0,0]","mutagen_history":"[0,0]","location_rts":"[6153,480]","trial_type":"fractal-mutation","trial_index":54,"time_elapsed":3575578,"internal_node_id":"0.0-5.0-0.0"},{"group":"tri cycles (cube, non-group)","fractal_assignment":["../images/ylw_slt.png","../images/pnk_blu.png","../images/org_blu.png","../images/ylw_pnk.png","../images/grn_red.png","../images/cyn_red.png","../images/gry_blk.png","../images/blu_wht.png"],"mutagen_generator_assignment":[0,1],"goal":1,"start":6,"action_noise":0.1,"location_history":"[6,5,2,6,4,0,3,4,0,3,4,7,6,4,0,3,7,6,5,1]","action_history":"[1,1,1,1,1,1,1,1,0,1,0,0,0,1,1,0,1,1,0]","mutagen_history":"[1,1,1,1,1,1,1,1,0,1,0,0,0,1,1,0,1,1,0]","location_rts":"[1962,1247,879,757,609,555,746,722,561,598,963,753,1256,1006,601,626,983,1250,1489]","trial_type":"fractal-mutation","trial_index":55,"time_elapsed":3616132,"internal_node_id":"0.0-5.0-1.0"},{"group":"tri cycles (cube, non-group)","fractal_assignment":["../images/ylw_slt.png","../images/pnk_blu.png","../images/org_blu.png","../images/ylw_pnk.png","../images/grn_red.png","../images/cyn_red.png","../images/gry_blk.png","../images/blu_wht.png"],"mutagen_generator_assignment":[0,1],"goal":2,"start":1,"action_noise":0.1,"location_history":"[1,5,2]","action_history":"[1,1]","mutagen_history":"[1,1]","location_rts":"[2345,621]","trial_type":"fractal-mutation","trial_index":56,"time_elapsed":3624651,"internal_node_id":"0.0-5.0-2.0"},{"group":"tri cycles (cube, non-group)","fractal_assignment":["../images/ylw_slt.png","../images/pnk_blu.png","../images/org_blu.png","../images/ylw_pnk.png","../images/grn_red.png","../images/cyn_red.png","../images/gry_blk.png","../images/blu_wht.png"],"mutagen_generator_assignment":[0,1],"goal":0,"start":2,"action_noise":0.1,"location_history":"[2,1,0]","action_history":"[0,0]","mutagen_history":"[0,0]","location_rts":"[5654,504]","trial_type":"fractal-mutation","trial_index":57,"time_elapsed":3636355,"internal_node_id":"0.0-5.0-3.0"},{"group":"tri cycles (cube, non-group)","fractal_assignment":["../images/ylw_slt.png","../images/pnk_blu.png","../images/org_blu.png","../images/ylw_pnk.png","../images/grn_red.png","../images/cyn_red.png","../images/gry_blk.png","../images/blu_wht.png"],"mutagen_generator_assignment":[0,1],"goal":7,"start":0,"action_noise":0.1,"location_history":"[0,2,1,0,2,1,5,1,0,2,6,5,1,0,3,7]","action_history":"[0,0,0,0,0,1,0,0,0,1,0,0,0,1,0]","mutagen_history":"[0,0,0,0,0,1,0,0,0,1,0,0,0,1,0]","location_rts":"[2333,1313,883,950,1491,880,303,851,567,2038,1232,1486,430,786,894]","trial_type":"fractal-mutation","trial_index":58,"time_elapsed":3671637,"internal_node_id":"0.0-5.0-4.0"},{"group":"tri cycles (cube, non-group)","fractal_assignment":["../images/ylw_slt.png","../images/pnk_blu.png","../images/org_blu.png","../images/ylw_pnk.png","../images/grn_red.png","../images/cyn_red.png","../images/gry_blk.png","../images/blu_wht.png"],"mutagen_generator_assignment":[0,1],"goal":5,"start":7,"action_noise":0.1,"location_history":"[7,3,4,0,3,4,0,3,7,6,4,7,6,4,0,2,1,0,2,1,5]","action_history":"[1,1,1,1,1,1,1,0,0,0,0,0,0,1,0,0,0,0,0,1]","mutagen_history":"[1,1,1,1,1,1,1,0,0,0,0,0,0,1,0,0,0,0,0,1]","location_rts":"[1784,1285,1549,1549,1072,895,1141,501,289,290,565,689,450,862,217,429,597,515,1174,2475]","trial_type":"fractal-mutation","trial_index":59,"time_elapsed":3713954,"internal_node_id":"0.0-5.0-5.0"},{"group":"tri cycles (cube, non-group)","fractal_assignment":["../images/ylw_slt.png","../images/pnk_blu.png","../images/org_blu.png","../images/ylw_pnk.png","../images/grn_red.png","../images/cyn_red.png","../images/gry_blk.png","../images/blu_wht.png"],"mutagen_generator_assignment":[0,1],"goal":4,"start":5,"action_noise":0.1,"location_history":"[5,1,5,2,6,5,2,1,5,2,6,5,2,1,0,2,1,5,1,0,3,7,6,4]","action_history":"[0,1,1,1,1,1,1,1,1,1,1,1,0,0,0,0,0,0,0,1,0,0,0]","mutagen_history":"[0,1,1,1,1,1,1,1,1,1,1,1,0,0,0,0,0,0,0,1,0,0,0]","location_rts":"[1858,2850,990,1496,1353,687,831,819,2130,993,279,228,218,123,291,434,263,459,497,269,215,421,323]","trial_type":"fractal-mutation","trial_index":60,"time_elapsed":3759026,"internal_node_id":"0.0-5.0-6.0"},{"group":"tri cycles (cube, non-group)","fractal_assignment":["../images/ylw_slt.png","../images/pnk_blu.png","../images/org_blu.png","../images/ylw_pnk.png","../images/grn_red.png","../images/cyn_red.png","../images/gry_blk.png","../images/blu_wht.png"],"mutagen_generator_assignment":[0,1],"goal":2,"start":4,"action_noise":0.1,"location_history":"[4,0,3,4,7,6,4,7,3,7,3,4,0,3,4,0,3,7,3,4,0,2]","action_history":"[1,1,1,0,0,0,0,0,0,1,1,1,1,1,1,1,0,1,1,1,0]","mutagen_history":"[1,1,1,0,0,0,0,0,0,1,1,1,1,1,1,1,0,1,1,1,0]","location_rts":"[7024,876,677,407,475,657,409,1219,1140,298,245,110,113,120,235,509,238,264,338,171,284]","trial_type":"fractal-mutation","trial_index":61,"time_elapsed":3799850,"internal_node_id":"0.0-5.0-7.0"},{"group":"tri cycles (cube, non-group)","fractal_assignment":["../images/ylw_slt.png","../images/pnk_blu.png","../images/org_blu.png","../images/ylw_pnk.png","../images/grn_red.png","../images/cyn_red.png","../images/gry_blk.png","../images/blu_wht.png"],"mutagen_generator_assignment":[0,1],"goal":3,"start":2,"action_noise":0.1,"location_history":"[2,1,0,2,1,0,3]","action_history":"[0,0,0,0,0,1]","mutagen_history":"[0,0,0,0,0,1]","location_rts":"[7033,154,109,85,183,3424]","trial_type":"fractal-mutation","trial_index":62,"time_elapsed":3820485,"internal_node_id":"0.0-5.0-8.0"},{"group":"tri cycles (cube, non-group)","fractal_assignment":["../images/ylw_slt.png","../images/pnk_blu.png","../images/org_blu.png","../images/ylw_pnk.png","../images/grn_red.png","../images/cyn_red.png","../images/gry_blk.png","../images/blu_wht.png"],"mutagen_generator_assignment":[0,1],"goal":7,"start":3,"action_noise":0.1,"location_history":"[3,7]","action_history":"[0]","mutagen_history":"[0]","location_rts":"[1378]","trial_type":"fractal-mutation","trial_index":63,"time_elapsed":3826387,"internal_node_id":"0.0-5.0-9.0"},{"group":"tri cycles (cube, non-group)","fractal_assignment":["../images/ylw_slt.png","../images/pnk_blu.png","../images/org_blu.png","../images/ylw_pnk.png","../images/grn_red.png","../images/cyn_red.png","../images/gry_blk.png","../images/blu_wht.png"],"mutagen_generator_assignment":[0,1],"goal":0,"start":7,"action_noise":0.1,"location_history":"[7,3,4,0]","action_history":"[1,1,1]","mutagen_history":"[1,1,1]","location_rts":"[10955,576,279]","trial_type":"fractal-mutation","trial_index":64,"time_elapsed":3844781,"internal_node_id":"0.0-5.0-10.0"},{"group":"tri cycles (cube, non-group)","fractal_assignment":["../images/ylw_slt.png","../images/pnk_blu.png","../images/org_blu.png","../images/ylw_pnk.png","../images/grn_red.png","../images/cyn_red.png","../images/gry_blk.png","../images/blu_wht.png"],"mutagen_generator_assignment":[0,1],"goal":1,"start":0,"action_noise":0.1,"location_history":"[0,3,4,0,3,4,0,2,1]","action_history":"[1,1,1,1,1,0,0,0]","mutagen_history":"[1,1,1,1,1,0,0,0]","location_rts":"[1137,2093,2571,1190,2825,10295,962,318]","trial_type":"fractal-mutation","trial_index":65,"time_elapsed":3877871,"internal_node_id":"0.0-5.0-11.0"},{"group":"tri cycles (cube, non-group)","fractal_assignment":["../images/ylw_slt.png","../images/pnk_blu.png","../images/org_blu.png","../images/ylw_pnk.png","../images/grn_red.png","../images/cyn_red.png","../images/gry_blk.png","../images/blu_wht.png"],"mutagen_generator_assignment":[0,1],"goal":6,"start":1,"action_noise":0.1,"location_history":"[1,5,2,6]","action_history":"[1,1,1]","mutagen_history":"[1,1,1]","location_rts":"[497,248,335]","trial_type":"fractal-mutation","trial_index":66,"time_elapsed":3885531,"internal_node_id":"0.0-5.0-12.0"},{"group":"tri cycles (cube, non-group)","fractal_assignment":["../images/ylw_slt.png","../images/pnk_blu.png","../images/org_blu.png","../images/ylw_pnk.png","../images/grn_red.png","../images/cyn_red.png","../images/gry_blk.png","../images/blu_wht.png"],"mutagen_generator_assignment":[0,1],"goal":4,"start":6,"action_noise":0.1,"location_history":"[6,4]","action_history":"[0]","mutagen_history":"[0]","location_rts":"[1833]","trial_type":"fractal-mutation","trial_index":67,"time_elapsed":3891888,"internal_node_id":"0.0-5.0-13.0"},{"group":"tri cycles (cube, non-group)","fractal_assignment":["../images/ylw_slt.png","../images/pnk_blu.png","../images/org_blu.png","../images/ylw_pnk.png","../images/grn_red.png","../images/cyn_red.png","../images/gry_blk.png","../images/blu_wht.png"],"mutagen_generator_assignment":[0,1],"goal":5,"start":4,"action_noise":0.1,"location_history":"[4,0,2,1,0,2,1,0,3,7,6,4,7,6,4,0,3,4,0,3,7,6,4,7,6,4,7,6,4,7,6,4,7,6,4,7,6,4,0,2,1,0,2,6,5]","action_history":"[1,0,0,0,0,0,0,1,0,0,0,0,0,0,1,1,1,1,1,0,0,0,0,0,0,0,0,0,0,0,0,0,0,0,0,0,0,0,0,0,0,0,1,1]","mutagen_history":"[1,0,0,0,0,0,0,1,0,0,0,0,0,0,1,1,1,1,1,0,0,0,0,0,0,0,0,0,0,0,0,0,0,0,0,0,0,0,0,0,0,0,1,1]","location_rts":"[1536,765,410,370,468,290,470,426,170,341,182,2717,5372,227,118,453,198,170,483,1808,635,1974,761,607,564,8478,845,304,549,2103,2590,1708,107,164,1490,3863,3445,1114,855,1262,285,2015,994,18517]","trial_type":"fractal-mutation","trial_index":68,"time_elapsed":4012559,"internal_node_id":"0.0-5.0-14.0"},{"group":"tri cycles (cube, non-group)","fractal_assignment":["../images/ylw_slt.png","../images/pnk_blu.png","../images/org_blu.png","../images/ylw_pnk.png","../images/grn_red.png","../images/cyn_red.png","../images/gry_blk.png","../images/blu_wht.png"],"mutagen_generator_assignment":[0,1],"goal":4,"start":5,"action_noise":0.1,"location_history":"[5,1,0,2,1,0,3,4]","action_history":"[0,0,0,0,0,1,1]","mutagen_history":"[0,0,0,0,0,1,1]","location_rts":"[1155,524,355,532,429,324,816]","trial_type":"fractal-mutation","trial_index":69,"time_elapsed":4027358,"internal_node_id":"0.0-5.0-15.0"},{"group":"tri cycles (cube, non-group)","fractal_assignment":["../images/ylw_slt.png","../images/pnk_blu.png","../images/org_blu.png","../images/ylw_pnk.png","../images/grn_red.png","../images/cyn_red.png","../images/gry_blk.png","../images/blu_wht.png"],"mutagen_generator_assignment":[0,1],"goal":0,"start":4,"action_noise":0.1,"location_history":"[4,0]","action_history":"[1]","mutagen_history":"[1]","location_rts":"[499]","trial_type":"fractal-mutation","trial_index":70,"time_elapsed":4032387,"internal_node_id":"0.0-5.0-16.0"},{"group":"tri cycles (cube, non-group)","fractal_assignment":["../images/ylw_slt.png","../images/pnk_blu.png","../images/org_blu.png","../images/ylw_pnk.png","../images/grn_red.png","../images/cyn_red.png","../images/gry_blk.png","../images/blu_wht.png"],"mutagen_generator_assignment":[0,1],"goal":7,"start":0,"action_noise":0.1,"location_history":"[0,3,4,0,2,6,5,2,6,4,7]","action_history":"[1,1,1,1,0,1,1,0,0,0]","mutagen_history":"[1,1,1,1,0,1,1,0,0,0]","location_rts":"[4647,3765,1776,1716,1052,960,401,812,468,101]","trial_type":"fractal-mutation","trial_index":71,"time_elapsed":4061832,"internal_node_id":"0.0-5.0-17.0"},{"group":"tri cycles (cube, non-group)","fractal_assignment":["../images/ylw_slt.png","../images/pnk_blu.png","../images/org_blu.png","../images/ylw_pnk.png","../images/grn_red.png","../images/cyn_red.png","../images/gry_blk.png","../images/blu_wht.png"],"mutagen_generator_assignment":[0,1],"goal":2,"start":7,"action_noise":0.1,"location_history":"[7,3,4,7,3,4,0,3,7,6,4,0,3,4,0,3,4,0,3,4,0,3,4,0,3,7,3,7,3,4,0,3,4,0,3,4,0,3,4,7,6,4,0,2]","action_history":"[1,1,1,1,1,1,1,1,1,0,1,1,1,1,1,1,1,1,1,1,1,1,1,1,1,1,1,0,1,1,1,1,1,1,1,1,0,1,0,0,0,0,0]","mutagen_history":"[1,1,1,1,1,1,1,1,1,0,1,1,1,1,1,1,1,1,1,1,1,1,1,1,1,1,1,0,1,1,1,1,1,1,1,1,0,1,0,0,0,0,0]","location_rts":"[1184,378,571,217,258,387,292,441,191,337,146,181,236,230,315,246,354,299,209,294,4434,766,380,541,79,583,529,298,148,425,295,423,4303,2086,298,3792,522,231,143,324,91,62,196]","trial_type":"fractal-mutation","trial_index":72,"time_elapsed":4137108,"internal_node_id":"0.0-5.0-18.0"},{"group":"tri cycles (cube, non-group)","fractal_assignment":["../images/ylw_slt.png","../images/pnk_blu.png","../images/org_blu.png","../images/ylw_pnk.png","../images/grn_red.png","../images/cyn_red.png","../images/gry_blk.png","../images/blu_wht.png"],"mutagen_generator_assignment":[0,1],"goal":1,"start":2,"action_noise":0.1,"location_history":"[2,6,5,2,1]","action_history":"[1,1,1,0]","mutagen_history":"[1,1,1,0]","location_rts":"[568,477,299,737]","trial_type":"fractal-mutation","trial_index":73,"time_elapsed":4146792,"internal_node_id":"0.0-5.0-19.0"},{"group":"tri cycles (cube, non-group)","fractal_assignment":["../images/ylw_slt.png","../images/pnk_blu.png","../images/org_blu.png","../images/ylw_pnk.png","../images/grn_red.png","../images/cyn_red.png","../images/gry_blk.png","../images/blu_wht.png"],"mutagen_generator_assignment":[0,1],"goal":3,"start":1,"action_noise":0.1,"location_history":"[1,5,1,5,1,5,2,6,5,2,6,5,2,6,5,2,1,5,2,6,5,1,5,2,6,5,2,6,5,2,6,5,2,6,5,2,6,5,1,0,2,1,5,1,0,2,1,0,2,1,0,2,1,0,2,1,0,2,1,0,2,6,5,2,1,0,3]","action_history":"[1,1,1,1,1,1,0,1,1,1,1,1,1,1,1,1,1,1,1,1,0,1,1,1,1,1,1,1,1,1,1,1,1,1,1,1,1,0,0,0,0,0,0,0,0,0,0,0,0,0,0,0,0,0,0,0,0,0,0,0,1,1,1,0,0,1]","mutagen_history":"[1,1,1,1,1,1,0,1,1,1,1,1,1,1,1,1,1,1,1,1,0,1,1,1,1,1,1,1,1,1,1,1,1,1,1,1,1,0,0,0,0,0,0,0,0,0,0,0,0,0,0,0,0,0,0,0,0,0,0,0,1,1,1,0,0,1]","location_rts":"[814,176,58,209,343,472,165,237,271,390,95,454,318,422,530,404,83,134,168,938,511,189,115,137,1099,30,67,274,7834,28583,254,191,138,323,222,240,195,25,289,248,2185,2399,1958,440,215,242,2282,198,265,3911,178,1372,60,786,142,159,241,732,1825,1131,245,98,124,145,190,103]","trial_type":"fractal-mutation","trial_index":74,"time_elapsed":4287073,"internal_node_id":"0.0-5.0-20.0"},{"group":"tri cycles (cube, non-group)","fractal_assignment":["../images/ylw_slt.png","../images/pnk_blu.png","../images/org_blu.png","../images/ylw_pnk.png","../images/grn_red.png","../images/cyn_red.png","../images/gry_blk.png","../images/blu_wht.png"],"mutagen_generator_assignment":[0,1],"goal":6,"start":3,"action_noise":0.1,"location_history":"[3,7,3,4,0,3,4,7,6]","action_history":"[0,1,1,1,1,1,0,0]","mutagen_history":"[0,1,1,1,1,1,0,0]","location_rts":"[1337,659,406,1062,257,241,84,188]","trial_type":"fractal-mutation","trial_index":75,"time_elapsed":4302994,"internal_node_id":"0.0-5.0-21.0"},{"group":"tri cycles (cube, non-group)","fractal_assignment":["../images/ylw_slt.png","../images/pnk_blu.png","../images/org_blu.png","../images/ylw_pnk.png","../images/grn_red.png","../images/cyn_red.png","../images/gry_blk.png","../images/blu_wht.png"],"mutagen_generator_assignment":[0,1],"goal":5,"start":6,"action_noise":0.1,"location_history":"[6,5]","action_history":"[1]","mutagen_history":"[1]","location_rts":"[775]","trial_type":"fractal-mutation","trial_index":76,"time_elapsed":4308298,"internal_node_id":"0.0-5.0-22.0"},{"group":"tri cycles (cube, non-group)","fractal_assignment":["../images/ylw_slt.png","../images/pnk_blu.png","../images/org_blu.png","../images/ylw_pnk.png","../images/grn_red.png","../images/cyn_red.png","../images/gry_blk.png","../images/blu_wht.png"],"mutagen_generator_assignment":[0,1],"goal":3,"start":5,"action_noise":0.1,"location_history":"[5,1,5,1,0,2,6,5,2,6,5,2,6,5,2,1,5,2,6,5,1,0,2,1,5,1,0,2,1,0,2,1,0,3]","action_history":"[0,1,0,0,0,1,0,1,1,1,1,1,1,1,0,1,1,1,1,0,0,0,0,1,0,0,1,0,0,0,0,0,1]","mutagen_history":"[0,1,0,0,0,1,0,1,1,1,1,1,1,1,0,1,1,1,1,0,0,0,0,1,0,0,1,0,0,0,0,0,1]","location_rts":"[1260,677,403,91,344,607,744,742,842,405,247,248,324,279,406,678,596,524,249,2013,297,362,733,391,221,318,1133,453,312,78,182,533,1809]","trial_type":"fractal-mutation","trial_index":77,"time_elapsed":4364020,"internal_node_id":"0.0-5.0-23.0"},{"group":"tri cycles (cube, non-group)","fractal_assignment":["../images/ylw_slt.png","../images/pnk_blu.png","../images/org_blu.png","../images/ylw_pnk.png","../images/grn_red.png","../images/cyn_red.png","../images/gry_blk.png","../images/blu_wht.png"],"mutagen_generator_assignment":[0,1],"goal":0,"start":3,"action_noise":0.1,"location_history":"[3,7,6,5,2,6,5,2,6,4,7,3,4,0]","action_history":"[0,0,1,1,1,1,1,1,0,0,1,1,1]","mutagen_history":"[0,0,1,1,1,1,1,1,0,0,1,1,1]","location_rts":"[1371,618,4121,844,626,744,28,349,1036,327,4214,586,426]","trial_type":"fractal-mutation","trial_index":78,"time_elapsed":4396115,"internal_node_id":"0.0-5.0-24.0"},{"group":"tri cycles (cube, non-group)","fractal_assignment":["../images/ylw_slt.png","../images/pnk_blu.png","../images/org_blu.png","../images/ylw_pnk.png","../images/grn_red.png","../images/cyn_red.png","../images/gry_blk.png","../images/blu_wht.png"],"mutagen_generator_assignment":[0,1],"goal":7,"start":0,"action_noise":0.1,"location_history":"[0,3,4,7]","action_history":"[1,1,1]","mutagen_history":"[1,1,1]","location_rts":"[10250,215,318]","trial_type":"fractal-mutation","trial_index":79,"time_elapsed":4413481,"internal_node_id":"0.0-5.0-25.0"},{"group":"tri cycles (cube, non-group)","fractal_assignment":["../images/ylw_slt.png","../images/pnk_blu.png","../images/org_blu.png","../images/ylw_pnk.png","../images/grn_red.png","../images/cyn_red.png","../images/gry_blk.png","../images/blu_wht.png"],"mutagen_generator_assignment":[0,1],"goal":2,"start":7,"action_noise":0.1,"location_history":"[7,3,4,0,3,4,0,3,7,6,4,7,6,4,0,3,7,3,4,0,3,7,6,4,7,6,4,7,6,4,7,6,4,7,6,4,7,6,4,0,2]","action_history":"[1,1,1,1,1,1,1,0,0,0,0,0,0,1,1,0,1,0,1,1,1,0,0,0,0,0,0,0,0,0,0,0,0,0,0,0,0,0,0,0]","mutagen_history":"[1,1,1,1,1,1,1,0,0,0,0,0,0,1,1,0,1,0,1,1,1,0,0,0,0,0,0,0,0,0,0,0,0,0,0,0,0,0,0,0]","location_rts":"[2043,567,688,110,77,174,358,327,154,342,110,657,1,255,228,403,556,532,418,652,506,240,126,397,37,245,56,449,67,198,15,205,179,107,463,189,78,287,681,301]","trial_type":"fractal-mutation","trial_index":80,"time_elapsed":4471288,"internal_node_id":"0.0-5.0-26.0"},{"group":"tri cycles (cube, non-group)","fractal_assignment":["../images/ylw_slt.png","../images/pnk_blu.png","../images/org_blu.png","../images/ylw_pnk.png","../images/grn_red.png","../images/cyn_red.png","../images/gry_blk.png","../images/blu_wht.png"],"mutagen_generator_assignment":[0,1],"goal":1,"start":2,"action_noise":0.1,"location_history":"[2,6,4,7,6,4,7,6,4,7,6,4,7,6,4,7,6,4,0,3,4,0,2,6,5,1]","action_history":"[1,0,0,0,0,0,0,0,0,0,0,0,0,0,0,0,0,1,1,1,1,1,1,1,0]","mutagen_history":"[1,0,0,0,0,0,0,0,0,0,0,0,0,0,0,0,0,1,1,1,1,1,1,1,0]","location_rts":"[19559,702,95,112,1190,343,359,318,321,181,272,191,158,1013,381,420,692,18180,631,277,1443,271,183,197,126]","trial_type":"fractal-mutation","trial_index":81,"time_elapsed":4547946,"internal_node_id":"0.0-5.0-27.0"},{"group":"tri cycles (cube, non-group)","fractal_assignment":["../images/ylw_slt.png","../images/pnk_blu.png","../images/org_blu.png","../images/ylw_pnk.png","../images/grn_red.png","../images/cyn_red.png","../images/gry_blk.png","../images/blu_wht.png"],"mutagen_generator_assignment":[0,1],"goal":5,"start":1,"action_noise":0.1,"location_history":"[1,5]","action_history":"[1]","mutagen_history":"[1]","location_rts":"[688]","trial_type":"fractal-mutation","trial_index":82,"time_elapsed":4553163,"internal_node_id":"0.0-5.0-28.0"},{"group":"tri cycles (cube, non-group)","fractal_assignment":["../images/ylw_slt.png","../images/pnk_blu.png","../images/org_blu.png","../images/ylw_pnk.png","../images/grn_red.png","../images/cyn_red.png","../images/gry_blk.png","../images/blu_wht.png"],"mutagen_generator_assignment":[0,1],"goal":4,"start":5,"action_noise":0.1,"location_history":"[5,2,6,5,2,6,5,2,1,0,2,6,4]","action_history":"[1,1,1,1,1,1,1,0,0,0,0,0]","mutagen_history":"[1,1,1,1,1,1,1,0,0,0,0,0]","location_rts":"[679,2629,1082,859,377,440,300,213,205,3,92,83]","trial_type":"fractal-mutation","trial_index":83,"time_elapsed":4575898,"internal_node_id":"0.0-5.0-29.0"},{"group":"tri cycles (cube, non-group)","fractal_assignment":["../images/ylw_slt.png","../images/pnk_blu.png","../images/org_blu.png","../images/ylw_pnk.png","../images/grn_red.png","../images/cyn_red.png","../images/gry_blk.png","../images/blu_wht.png"],"mutagen_generator_assignment":[0,1],"goal":6,"start":4,"action_noise":0.1,"location_history":"[4,0,3,4,0,3,4,0,3,4,7,3,4,0,3,7,3,4,0,3,7,3,7,3,4,7,3,4,0,3,4,0,3,4,0,3,4,0,2,1,0,2,1,0,2,6]","action_history":"[1,1,1,1,1,1,1,1,1,1,1,1,1,1,1,1,1,1,1,1,1,1,1,1,1,1,1,1,1,1,1,1,1,1,1,1,1,0,0,0,0,0,0,0,1]","mutagen_history":"[1,1,1,1,1,1,1,1,1,1,1,1,1,1,1,1,1,1,1,1,1,1,1,1,1,1,1,1,1,1,1,1,1,1,1,1,1,0,0,0,0,0,0,0,1]","location_rts":"[983,438,1864,5356,1907,1731,801,4206,1430,1947,1288,773,4779,934,269,46,1503,2088,4778,187,482,1850,1138,95,254,240,1437,270,514,254,99,165,114,509,130,380,376,66,228,55,560,493,316,728,355]","trial_type":"fractal-mutation","trial_index":84,"time_elapsed":4673915,"internal_node_id":"0.0-5.0-30.0"},{"group":"tri cycles (cube, non-group)","fractal_assignment":["../images/ylw_slt.png","../images/pnk_blu.png","../images/org_blu.png","../images/ylw_pnk.png","../images/grn_red.png","../images/cyn_red.png","../images/gry_blk.png","../images/blu_wht.png"],"mutagen_generator_assignment":[0,1],"goal":4,"start":6,"action_noise":0.1,"location_history":"[6,5,1,0,2,1,0,2,6,5,1,5,2,6,5,2,6,5,1,0,2,1,5,1,5,1,5,2,6,5,2,6,4]","action_history":"[1,0,0,0,0,0,0,1,1,0,1,1,0,1,1,1,1,0,0,0,0,0,1,1,1,1,1,1,1,1,1,1]","mutagen_history":"[1,0,0,0,0,0,0,1,1,0,1,1,0,1,1,1,1,0,0,0,0,0,1,1,1,1,1,1,1,1,1,1]","location_rts":"[458,304,223,128,139,169,115,194,231,156,220,197,495,220,214,282,231,82,192,590,375,241,1428,617,1678,231,167,1405,959,3475,683,794]","trial_type":"fractal-mutation","trial_index":85,"time_elapsed":4727048,"internal_node_id":"0.0-5.0-31.0"},{"group":"tri cycles (cube, non-group)","fractal_assignment":["../images/ylw_slt.png","../images/pnk_blu.png","../images/org_blu.png","../images/ylw_pnk.png","../images/grn_red.png","../images/cyn_red.png","../images/gry_blk.png","../images/blu_wht.png"],"mutagen_generator_assignment":[0,1],"goal":2,"start":4,"action_noise":0.1,"location_history":"[4,0,2]","action_history":"[1,1]","mutagen_history":"[1,1]","location_rts":"[463,2086]","trial_type":"fractal-mutation","trial_index":86,"time_elapsed":4735153,"internal_node_id":"0.0-5.0-32.0"},{"group":"tri cycles (cube, non-group)","fractal_assignment":["../images/ylw_slt.png","../images/pnk_blu.png","../images/org_blu.png","../images/ylw_pnk.png","../images/grn_red.png","../images/cyn_red.png","../images/gry_blk.png","../images/blu_wht.png"],"mutagen_generator_assignment":[0,1],"goal":0,"start":2,"action_noise":0.1,"location_history":"[2,6,5,2,6,5,2,1,0]","action_history":"[1,1,1,1,1,1,0,0]","mutagen_history":"[1,1,1,1,1,1,0,0]","location_rts":"[621,834,360,1049,660,236,135,77]","trial_type":"fractal-mutation","trial_index":87,"time_elapsed":4750817,"internal_node_id":"0.0-5.0-33.0"},{"group":"tri cycles (cube, non-group)","fractal_assignment":["../images/ylw_slt.png","../images/pnk_blu.png","../images/org_blu.png","../images/ylw_pnk.png","../images/grn_red.png","../images/cyn_red.png","../images/gry_blk.png","../images/blu_wht.png"],"mutagen_generator_assignment":[0,1],"goal":5,"start":0,"action_noise":0.1,"location_history":"[0,3,7,3,7,3,4,0,3,4,7,6,4,0,3,4,0,3,4,7,3,7,6,4,0,2,6,5]","action_history":"[1,1,1,0,1,1,1,1,1,0,1,1,1,1,1,1,1,1,0,0,0,0,0,1,0,1,1]","mutagen_history":"[1,1,1,0,1,1,1,1,1,0,1,1,1,1,1,1,1,1,0,0,0,0,0,1,0,1,1]","location_rts":"[392,206,356,670,145,163,753,466,255,620,232,462,524,422,692,958,665,540,134,152,494,176,1095,1765,218,408,102]","trial_type":"fractal-mutation","trial_index":88,"time_elapsed":4795041,"internal_node_id":"0.0-5.0-34.0"},{"group":"tri cycles (cube, non-group)","fractal_assignment":["../images/ylw_slt.png","../images/pnk_blu.png","../images/org_blu.png","../images/ylw_pnk.png","../images/grn_red.png","../images/cyn_red.png","../images/gry_blk.png","../images/blu_wht.png"],"mutagen_generator_assignment":[0,1],"goal":1,"start":5,"action_noise":0.1,"location_history":"[5,2,1]","action_history":"[1,0]","mutagen_history":"[1,0]","location_rts":"[503,159]","trial_type":"fractal-mutation","trial_index":89,"time_elapsed":4801249,"internal_node_id":"0.0-5.0-35.0"},{"group":"tri cycles (cube, non-group)","fractal_assignment":["../images/ylw_slt.png","../images/pnk_blu.png","../images/org_blu.png","../images/ylw_pnk.png","../images/grn_red.png","../images/cyn_red.png","../images/gry_blk.png","../images/blu_wht.png"],"mutagen_generator_assignment":[0,1],"goal":7,"start":1,"action_noise":0.1,"location_history":"[1,5,1,0,2,1,0,3,7]","action_history":"[1,0,0,0,0,0,1,0]","mutagen_history":"[1,0,0,0,0,0,1,0]","location_rts":"[15170,519,227,110,169,85,285,101]","trial_type":"fractal-mutation","trial_index":90,"time_elapsed":4829578,"internal_node_id":"0.0-5.0-36.0"},{"group":"tri cycles (cube, non-group)","fractal_assignment":["../images/ylw_slt.png","../images/pnk_blu.png","../images/org_blu.png","../images/ylw_pnk.png","../images/grn_red.png","../images/cyn_red.png","../images/gry_blk.png","../images/blu_wht.png"],"mutagen_generator_assignment":[0,1],"goal":3,"start":7,"action_noise":0.1,"location_history":"[7,6,4,0,3]","action_history":"[0,0,1,1]","mutagen_history":"[0,0,1,1]","location_rts":"[6868,1186,367,135]","trial_type":"fractal-mutation","trial_index":91,"time_elapsed":4845732,"internal_node_id":"0.0-5.0-37.0"},{"group":"tri cycles (cube, non-group)","fractal_assignment":["../images/ylw_slt.png","../images/pnk_blu.png","../images/org_blu.png","../images/ylw_pnk.png","../images/grn_red.png","../images/cyn_red.png","../images/gry_blk.png","../images/blu_wht.png"],"mutagen_generator_assignment":[0,1],"goal":6,"start":3,"action_noise":0.1,"location_history":"[3,4,0,3,7,3,4,0,2,6]","action_history":"[1,1,1,1,1,1,1,0,1]","mutagen_history":"[1,1,1,1,1,1,1,0,1]","location_rts":"[847,499,160,468,142,259,283,110,56]","trial_type":"fractal-mutation","trial_index":92,"time_elapsed":4861281,"internal_node_id":"0.0-5.0-38.0"},{"group":"tri cycles (cube, non-group)","fractal_assignment":["../images/ylw_slt.png","../images/pnk_blu.png","../images/org_blu.png","../images/ylw_pnk.png","../images/grn_red.png","../images/cyn_red.png","../images/gry_blk.png","../images/blu_wht.png"],"mutagen_generator_assignment":[0,1],"goal":2,"start":6,"action_noise":0.1,"location_history":"[6,5,2]","action_history":"[1,1]","mutagen_history":"[1,1]","location_rts":"[590,111]","trial_type":"fractal-mutation","trial_index":93,"time_elapsed":4867537,"internal_node_id":"0.0-5.0-39.0"},{"group":"tri cycles (cube, non-group)","fractal_assignment":["../images/ylw_slt.png","../images/pnk_blu.png","../images/org_blu.png","../images/ylw_pnk.png","../images/grn_red.png","../images/cyn_red.png","../images/gry_blk.png","../images/blu_wht.png"],"mutagen_generator_assignment":[0,1],"goal":1,"start":2,"action_noise":0.1,"location_history":"[2,6,5,2,1]","action_history":"[1,1,1,0]","mutagen_history":"[1,1,1,0]","location_rts":"[603,179,99,241]","trial_type":"fractal-mutation","trial_index":94,"time_elapsed":4876258,"internal_node_id":"0.0-5.0-40.0"},{"group":"tri cycles (cube, non-group)","fractal_assignment":["../images/ylw_slt.png","../images/pnk_blu.png","../images/org_blu.png","../images/ylw_pnk.png","../images/grn_red.png","../images/cyn_red.png","../images/gry_blk.png","../images/blu_wht.png"],"mutagen_generator_assignment":[0,1],"goal":0,"start":1,"action_noise":0.1,"location_history":"[1,5,1,0]","action_history":"[0,0,0]","mutagen_history":"[0,0,0]","location_rts":"[1126,304,143]","trial_type":"fractal-mutation","trial_index":95,"time_elapsed":4884388,"internal_node_id":"0.0-5.0-41.0"},{"group":"tri cycles (cube, non-group)","fractal_assignment":["../images/ylw_slt.png","../images/pnk_blu.png","../images/org_blu.png","../images/ylw_pnk.png","../images/grn_red.png","../images/cyn_red.png","../images/gry_blk.png","../images/blu_wht.png"],"mutagen_generator_assignment":[0,1],"goal":4,"start":0,"action_noise":0.1,"location_history":"[0,3,7,3,7,6,4]","action_history":"[1,0,1,0,0,0]","mutagen_history":"[1,0,1,0,0,0]","location_rts":"[1103,186,544,175,152,206]","trial_type":"fractal-mutation","trial_index":96,"time_elapsed":4896386,"internal_node_id":"0.0-5.0-42.0"},{"group":"tri cycles (cube, non-group)","fractal_assignment":["../images/ylw_slt.png","../images/pnk_blu.png","../images/org_blu.png","../images/ylw_pnk.png","../images/grn_red.png","../images/cyn_red.png","../images/gry_blk.png","../images/blu_wht.png"],"mutagen_generator_assignment":[0,1],"goal":6,"start":4,"action_noise":0.1,"location_history":"[4,0,3,4,0,3,4,0,3,4,0,3,4,7,6]","action_history":"[1,1,1,1,1,1,1,1,1,1,1,1,0,0]","mutagen_history":"[1,1,1,1,1,1,1,1,1,1,1,1,0,0]","location_rts":"[608,6365,240,2819,135,1028,118,8,87,305,4707,224,80,92]","trial_type":"fractal-mutation","trial_index":97,"time_elapsed":4931052,"internal_node_id":"0.0-5.0-43.0"},{"group":"tri cycles (cube, non-group)","fractal_assignment":["../images/ylw_slt.png","../images/pnk_blu.png","../images/org_blu.png","../images/ylw_pnk.png","../images/grn_red.png","../images/cyn_red.png","../images/gry_blk.png","../images/blu_wht.png"],"mutagen_generator_assignment":[0,1],"goal":3,"start":6,"action_noise":0.1,"location_history":"[6,5,2,6,5,1,5,2,6,5,2,6,4,0,3]","action_history":"[1,1,1,1,1,1,1,1,1,1,1,0,1,1]","mutagen_history":"[1,1,1,1,1,1,1,1,1,1,1,0,1,1]","location_rts":"[813,99,144,99,207,185,318,389,352,2122,1483,2232,112,356]","trial_type":"fractal-mutation","trial_index":98,"time_elapsed":4957822,"internal_node_id":"0.0-5.0-44.0"},{"group":"tri cycles (cube, non-group)","fractal_assignment":["../images/ylw_slt.png","../images/pnk_blu.png","../images/org_blu.png","../images/ylw_pnk.png","../images/grn_red.png","../images/cyn_red.png","../images/gry_blk.png","../images/blu_wht.png"],"mutagen_generator_assignment":[0,1],"goal":7,"start":3,"action_noise":0.1,"location_history":"[3,7]","action_history":"[0]","mutagen_history":"[0]","location_rts":"[1142]","trial_type":"fractal-mutation","trial_index":99,"time_elapsed":4963489,"internal_node_id":"0.0-5.0-45.0"},{"group":"tri cycles (cube, non-group)","fractal_assignment":["../images/ylw_slt.png","../images/pnk_blu.png","../images/org_blu.png","../images/ylw_pnk.png","../images/grn_red.png","../images/cyn_red.png","../images/gry_blk.png","../images/blu_wht.png"],"mutagen_generator_assignment":[0,1],"goal":5,"start":7,"action_noise":0.1,"location_history":"[7,3,4,0,3,4,0,3,4,0,3,7,3,7,3,4,7,3,4,0,3,7,6,5]","action_history":"[1,1,1,1,1,1,1,1,1,1,1,1,1,1,1,1,1,1,1,1,1,0,1]","mutagen_history":"[1,1,1,1,1,1,1,1,1,1,1,1,1,1,1,1,1,1,1,1,1,0,1]","location_rts":"[1021,287,462,372,272,298,687,654,3335,1865,371,4055,674,255,584,2483,359,4681,167,195,47,104,71]","trial_type":"fractal-mutation","trial_index":100,"time_elapsed":5013872,"internal_node_id":"0.0-5.0-46.0"},{"group":"tri cycles (cube, non-group)","fractal_assignment":["../images/ylw_slt.png","../images/pnk_blu.png","../images/org_blu.png","../images/ylw_pnk.png","../images/grn_red.png","../images/cyn_red.png","../images/gry_blk.png","../images/blu_wht.png"],"mutagen_generator_assignment":[0,1],"goal":1,"start":5,"action_noise":0.1,"location_history":"[5,2,1]","action_history":"[1,0]","mutagen_history":"[1,0]","location_rts":"[398,230]","trial_type":"fractal-mutation","trial_index":101,"time_elapsed":5020048,"internal_node_id":"0.0-5.0-47.0"},{"group":"tri cycles (cube, non-group)","fractal_assignment":["../images/ylw_slt.png","../images/pnk_blu.png","../images/org_blu.png","../images/ylw_pnk.png","../images/grn_red.png","../images/cyn_red.png","../images/gry_blk.png","../images/blu_wht.png"],"mutagen_generator_assignment":[0,1],"goal":6,"start":1,"action_noise":0.1,"location_history":"[1,0,3,4,0,3,7,6]","action_history":"[0,1,1,1,1,0,1]","mutagen_history":"[0,1,1,1,1,0,1]","location_rts":"[2096,506,385,342,175,345,176]","trial_type":"fractal-mutation","trial_index":102,"time_elapsed":5034752,"internal_node_id":"0.0-5.0-48.0"},{"group":"tri cycles (cube, non-group)","fractal_assignment":["../images/ylw_slt.png","../images/pnk_blu.png","../images/org_blu.png","../images/ylw_pnk.png","../images/grn_red.png","../images/cyn_red.png","../images/gry_blk.png","../images/blu_wht.png"],"mutagen_generator_assignment":[0,1],"goal":0,"start":6,"action_noise":0.1,"location_history":"[6,5,1,0]","action_history":"[1,0,0]","mutagen_history":"[1,0,0]","location_rts":"[1173,154,448]","trial_type":"fractal-mutation","trial_index":103,"time_elapsed":5043100,"internal_node_id":"0.0-5.0-49.0"},{"view_history":"[{\"page_index\":0,\"viewing_time\":3899}]","rt":3899,"trial_type":"instructions","trial_index":104,"time_elapsed":5048000,"internal_node_id":"0.0-6.0"},{"rt":1781,"responses":"{\"Q0\":\"\"}","trial_type":"survey-text","trial_index":105,"time_elapsed":5050786,"internal_node_id":"0.0-7.0"}]