[{"view_history":"[{\"page_index\":0,\"viewing_time\":3391},{\"page_index\":1,\"viewing_time\":5199}]","rt":8591,"trial_type":"instructions","trial_index":0,"time_elapsed":8593,"internal_node_id":"0.0-0.0"},{"view_history":"[{\"page_index\":0,\"viewing_time\":1389},{\"page_index\":1,\"viewing_time\":5557}]","rt":6947,"trial_type":"instructions","trial_index":1,"time_elapsed":16541,"internal_node_id":"0.0-1.0"},{"group":"square cycles (cube, non-group)","room_assignment":["yellow","brown","grey","red","pink","blue","purple","green"],"door_color_assignment":["white","black"],"door_generator_assignment":[1,0],"goal":6,"start":3,"action_noise":0.1,"location_history":"[3,0,4,5,1,0,4,7,6]","action_history":"[0,1,1,1,1,1,0,0]","door_history":"[1,0,0,0,0,0,1,1]","location_rts":"[1560,852,366,1029,339,639,715,809]","trial_type":"two-door-navigation","trial_index":2,"time_elapsed":34573,"internal_node_id":"0.0-2.0-0.0"},{"group":"square cycles (cube, non-group)","room_assignment":["yellow","brown","grey","red","pink","blue","purple","green"],"door_color_assignment":["white","black"],"door_generator_assignment":[1,0],"goal":1,"start":6,"action_noise":0.1,"location_history":"[6,7,3,0,1]","action_history":"[0,1,1,0]","door_history":"[1,0,0,1]","location_rts":"[651,411,307,857]","trial_type":"two-door-navigation","trial_index":3,"time_elapsed":44392,"internal_node_id":"0.0-2.0-1.0"},{"group":"square cycles (cube, non-group)","room_assignment":["yellow","brown","grey","red","pink","blue","purple","green"],"door_color_assignment":["white","black"],"door_generator_assignment":[1,0],"goal":2,"start":1,"action_noise":0.1,"location_history":"[1,0,4,7,6,7,3,2]","action_history":"[1,1,0,0,1,1,1]","door_history":"[0,0,1,1,0,0,0]","location_rts":"[510,240,417,427,636,695,470]","trial_type":"two-door-navigation","trial_index":4,"time_elapsed":58444,"internal_node_id":"0.0-2.0-2.0"},{"group":"square cycles (cube, non-group)","room_assignment":["yellow","brown","grey","red","pink","blue","purple","green"],"door_color_assignment":["white","black"],"door_generator_assignment":[1,0],"goal":0,"start":2,"action_noise":0.1,"location_history":"[2,3,2,6,7,3,0]","action_history":"[1,1,1,0,0,0]","door_history":"[0,0,0,1,1,1]","location_rts":"[1384,362,398,583,867,508]","trial_type":"two-door-navigation","trial_index":5,"time_elapsed":72174,"internal_node_id":"0.0-2.0-3.0"},{"group":"square cycles (cube, non-group)","room_assignment":["yellow","brown","grey","red","pink","blue","purple","green"],"door_color_assignment":["white","black"],"door_generator_assignment":[1,0],"goal":7,"start":0,"action_noise":0.1,"location_history":"[0,4,7]","action_history":"[1,0]","door_history":"[0,1]","location_rts":"[289,334]","trial_type":"two-door-navigation","trial_index":6,"time_elapsed":78346,"internal_node_id":"0.0-2.0-4.0"},{"group":"square cycles (cube, non-group)","room_assignment":["yellow","brown","grey","red","pink","blue","purple","green"],"door_color_assignment":["white","black"],"door_generator_assignment":[1,0],"goal":5,"start":7,"action_noise":0.1,"location_history":"[7,3,2,3,2,6,7,3,2,3,0,1,2,3,0,4,5]","action_history":"[1,1,0,0,0,1,1,1,0,0,0,0,0,0,1,1]","door_history":"[0,0,1,1,1,0,0,0,1,1,1,1,1,1,0,0]","location_rts":"[681,505,996,998,642,1353,2755,330,546,863,435,773,715,771,595,473]","trial_type":"two-door-navigation","trial_index":7,"time_elapsed":111654,"internal_node_id":"0.0-2.0-5.0"},{"group":"square cycles (cube, non-group)","room_assignment":["yellow","brown","grey","red","pink","blue","purple","green"],"door_color_assignment":["white","black"],"door_generator_assignment":[1,0],"goal":4,"start":5,"action_noise":0.1,"location_history":"[5,4]","action_history":"[0]","door_history":"[1]","location_rts":"[448]","trial_type":"two-door-navigation","trial_index":8,"time_elapsed":116637,"internal_node_id":"0.0-2.0-6.0"},{"group":"square cycles (cube, non-group)","room_assignment":["yellow","brown","grey","red","pink","blue","purple","green"],"door_color_assignment":["white","black"],"door_generator_assignment":[1,0],"goal":2,"start":4,"action_noise":0.1,"location_history":"[4,5,1,0,4,5,4,5,1,0,4,7,6,5,4,5,1,2]","action_history":"[1,0,0,1,1,0,1,1,1,1,0,0,0,0,1,1,0]","door_history":"[0,1,1,0,0,1,0,0,0,0,1,1,1,1,0,0,1]","location_rts":"[689,2925,651,1236,940,717,756,690,888,594,2404,1330,426,799,1284,1074,690]","trial_type":"two-door-navigation","trial_index":9,"time_elapsed":155636,"internal_node_id":"0.0-2.0-7.0"},{"group":"square cycles (cube, non-group)","room_assignment":["yellow","brown","grey","red","pink","blue","purple","green"],"door_color_assignment":["white","black"],"door_generator_assignment":[1,0],"goal":3,"start":2,"action_noise":0.1,"location_history":"[2,6,5,4,7,3]","action_history":"[0,1,0,0,1]","door_history":"[1,0,1,1,0]","location_rts":"[891,1020,908,1035,881]","trial_type":"two-door-navigation","trial_index":10,"time_elapsed":168973,"internal_node_id":"0.0-2.0-8.0"},{"group":"square cycles (cube, non-group)","room_assignment":["yellow","brown","grey","red","pink","blue","purple","green"],"door_color_assignment":["white","black"],"door_generator_assignment":[1,0],"goal":7,"start":3,"action_noise":0.1,"location_history":"[3,2,3,0,1,2,6,7]","action_history":"[1,0,0,0,0,1,1]","door_history":"[0,1,1,1,1,0,0]","location_rts":"[431,368,407,397,742,683,523]","trial_type":"two-door-navigation","trial_index":11,"time_elapsed":183182,"internal_node_id":"0.0-2.0-9.0"},{"group":"square cycles (cube, non-group)","room_assignment":["yellow","brown","grey","red","pink","blue","purple","green"],"door_color_assignment":["white","black"],"door_generator_assignment":[1,0],"goal":0,"start":7,"action_noise":0.1,"location_history":"[7,6,7,3,2,3,0]","action_history":"[0,1,1,0,0,0]","door_history":"[1,0,0,1,1,1]","location_rts":"[341,779,414,445,770,604]","trial_type":"two-door-navigation","trial_index":12,"time_elapsed":196198,"internal_node_id":"0.0-2.0-10.0"},{"group":"square cycles (cube, non-group)","room_assignment":["yellow","brown","grey","red","pink","blue","purple","green"],"door_color_assignment":["white","black"],"door_generator_assignment":[1,0],"goal":1,"start":0,"action_noise":0.1,"location_history":"[0,4,5,4,5,4,5,4,5,1]","action_history":"[1,1,0,1,0,0,0,1,1]","door_history":"[0,0,1,0,1,1,1,0,0]","location_rts":"[599,352,986,1169,743,477,783,910,599]","trial_type":"two-door-navigation","trial_index":13,"time_elapsed":215518,"internal_node_id":"0.0-2.0-11.0"},{"group":"square cycles (cube, non-group)","room_assignment":["yellow","brown","grey","red","pink","blue","purple","green"],"door_color_assignment":["white","black"],"door_generator_assignment":[1,0],"goal":6,"start":1,"action_noise":0.1,"location_history":"[1,0,1,0,1,2,3,0,1,2,3,0,4,7,3,2,6]","action_history":"[1,0,1,0,0,1,0,0,0,0,1,1,0,0,0,1]","door_history":"[0,1,0,1,1,0,1,1,1,1,0,0,1,1,1,0]","location_rts":"[1961,861,1543,725,544,1012,676,550,597,775,1003,483,948,729,587,1406]","trial_type":"two-door-navigation","trial_index":14,"time_elapsed":249802,"internal_node_id":"0.0-2.0-12.0"},{"group":"square cycles (cube, non-group)","room_assignment":["yellow","brown","grey","red","pink","blue","purple","green"],"door_color_assignment":["white","black"],"door_generator_assignment":[1,0],"goal":4,"start":6,"action_noise":0.1,"location_history":"[6,5,4]","action_history":"[0,1]","door_history":"[1,0]","location_rts":"[356,659]","trial_type":"two-door-navigation","trial_index":15,"time_elapsed":256370,"internal_node_id":"0.0-2.0-13.0"},{"group":"square cycles (cube, non-group)","room_assignment":["yellow","brown","grey","red","pink","blue","purple","green"],"door_color_assignment":["white","black"],"door_generator_assignment":[1,0],"goal":5,"start":4,"action_noise":0.1,"location_history":"[4,7,3,2,6,5]","action_history":"[0,1,1,1,0]","door_history":"[1,0,0,0,1]","location_rts":"[439,1046,1398,599,1148]","trial_type":"two-door-navigation","trial_index":16,"time_elapsed":269614,"internal_node_id":"0.0-2.0-14.0"},{"group":"square cycles (cube, non-group)","room_assignment":["yellow","brown","grey","red","pink","blue","purple","green"],"door_color_assignment":["white","black"],"door_generator_assignment":[1,0],"goal":4,"start":5,"action_noise":0.1,"location_history":"[5,1,0,1,2,6,5,4]","action_history":"[1,1,0,1,1,0,0]","door_history":"[0,0,1,0,0,1,1]","location_rts":"[1018,432,494,689,333,566,359]","trial_type":"two-door-navigation","trial_index":17,"time_elapsed":284171,"internal_node_id":"0.0-2.0-15.0"},{"group":"square cycles (cube, non-group)","room_assignment":["yellow","brown","grey","red","pink","blue","purple","green"],"door_color_assignment":["white","black"],"door_generator_assignment":[1,0],"goal":0,"start":4,"action_noise":0.1,"location_history":"[4,5,4,7,3,2,3,0]","action_history":"[1,0,0,1,1,0,0]","door_history":"[0,1,1,0,0,1,1]","location_rts":"[348,351,326,1092,677,843,535]","trial_type":"two-door-navigation","trial_index":18,"time_elapsed":299014,"internal_node_id":"0.0-2.0-16.0"},{"group":"square cycles (cube, non-group)","room_assignment":["yellow","brown","grey","red","pink","blue","purple","green"],"door_color_assignment":["white","black"],"door_generator_assignment":[1,0],"goal":7,"start":0,"action_noise":0.1,"location_history":"[0,4,7]","action_history":"[1,0]","door_history":"[0,1]","location_rts":"[468,325]","trial_type":"two-door-navigation","trial_index":19,"time_elapsed":305349,"internal_node_id":"0.0-2.0-17.0"},{"group":"square cycles (cube, non-group)","room_assignment":["yellow","brown","grey","red","pink","blue","purple","green"],"door_color_assignment":["white","black"],"door_generator_assignment":[1,0],"goal":2,"start":7,"action_noise":0.1,"location_history":"[7,6,7,6,7,6,7,6,5,4,7,3,2]","action_history":"[0,1,0,1,1,1,0,0,0,0,1,1]","door_history":"[1,0,1,0,0,0,1,1,1,1,0,0]","location_rts":"[288,522,508,698,506,506,508,639,892,510,379,344]","trial_type":"two-door-navigation","trial_index":20,"time_elapsed":327446,"internal_node_id":"0.0-2.0-18.0"},{"group":"square cycles (cube, non-group)","room_assignment":["yellow","brown","grey","red","pink","blue","purple","green"],"door_color_assignment":["white","black"],"door_generator_assignment":[1,0],"goal":1,"start":2,"action_noise":0.1,"location_history":"[2,3,2,6,5,4,7,3,2,3,0,4,7,3,2,3,0,4,7,6,5,4,7,6,7,3,0,1]","action_history":"[0,1,1,1,0,0,1,1,0,0,1,0,1,1,0,0,1,1,0,0,1,0,0,1,1,0,0]","door_history":"[1,0,0,0,1,1,0,0,1,1,0,1,0,0,1,1,0,0,1,1,0,1,1,0,0,1,1]","location_rts":"[456,365,718,495,757,672,451,847,924,532,886,1279,992,599,838,1418,1265,982,620,1376,970,778,598,1273,1352,1297,732]","trial_type":"two-door-navigation","trial_index":21,"time_elapsed":382075,"internal_node_id":"0.0-2.0-19.0"},{"group":"square cycles (cube, non-group)","room_assignment":["yellow","brown","grey","red","pink","blue","purple","green"],"door_color_assignment":["white","black"],"door_generator_assignment":[1,0],"goal":3,"start":1,"action_noise":0.1,"location_history":"[1,0,1,0,4,5,4,5,1,2,3]","action_history":"[1,0,1,1,1,0,1,1,0,0]","door_history":"[0,1,0,0,0,1,0,0,1,1]","location_rts":"[358,496,479,350,749,328,656,284,1237,1002]","trial_type":"two-door-navigation","trial_index":22,"time_elapsed":401751,"internal_node_id":"0.0-2.0-20.0"},{"group":"square cycles (cube, non-group)","room_assignment":["yellow","brown","grey","red","pink","blue","purple","green"],"door_color_assignment":["white","black"],"door_generator_assignment":[1,0],"goal":6,"start":3,"action_noise":0.1,"location_history":"[3,2,6]","action_history":"[1,1]","door_history":"[0,0]","location_rts":"[743,607]","trial_type":"two-door-navigation","trial_index":23,"time_elapsed":408652,"internal_node_id":"0.0-2.0-21.0"},{"group":"square cycles (cube, non-group)","room_assignment":["yellow","brown","grey","red","pink","blue","purple","green"],"door_color_assignment":["white","black"],"door_generator_assignment":[1,0],"goal":5,"start":6,"action_noise":0.1,"location_history":"[6,7,3,0,1,0,1,2,6,7,3,2,6,5]","action_history":"[1,0,0,0,1,0,0,1,1,1,1,1,0]","door_history":"[0,1,1,1,0,1,1,0,0,0,0,0,1]","location_rts":"[392,1106,328,705,581,611,450,1406,534,866,654,716,746]","trial_type":"two-door-navigation","trial_index":24,"time_elapsed":434549,"internal_node_id":"0.0-2.0-22.0"},{"group":"square cycles (cube, non-group)","room_assignment":["yellow","brown","grey","red","pink","blue","purple","green"],"door_color_assignment":["white","black"],"door_generator_assignment":[1,0],"goal":3,"start":5,"action_noise":0.1,"location_history":"[5,1,2,6,5,1,0,1,2,6,5,1,2,3]","action_history":"[1,0,1,0,1,1,0,0,1,0,1,0,0]","door_history":"[0,1,0,1,0,0,1,1,0,1,0,1,1]","location_rts":"[770,628,924,465,626,729,393,333,948,539,801,905,318]","trial_type":"two-door-navigation","trial_index":25,"time_elapsed":459738,"internal_node_id":"0.0-2.0-23.0"},{"group":"square cycles (cube, non-group)","room_assignment":["yellow","brown","grey","red","pink","blue","purple","green"],"door_color_assignment":["white","black"],"door_generator_assignment":[1,0],"goal":0,"start":3,"action_noise":0.1,"location_history":"[3,2,3,0]","action_history":"[1,0,0]","door_history":"[0,1,1]","location_rts":"[668,303,404]","trial_type":"two-door-navigation","trial_index":26,"time_elapsed":467674,"internal_node_id":"0.0-2.0-24.0"},{"group":"square cycles (cube, non-group)","room_assignment":["yellow","brown","grey","red","pink","blue","purple","green"],"door_color_assignment":["white","black"],"door_generator_assignment":[1,0],"goal":7,"start":0,"action_noise":0.1,"location_history":"[0,4,7]","action_history":"[1,0]","door_history":"[0,1]","location_rts":"[352,276]","trial_type":"two-door-navigation","trial_index":27,"time_elapsed":473845,"internal_node_id":"0.0-2.0-25.0"},{"group":"square cycles (cube, non-group)","room_assignment":["yellow","brown","grey","red","pink","blue","purple","green"],"door_color_assignment":["white","black"],"door_generator_assignment":[1,0],"goal":2,"start":7,"action_noise":0.1,"location_history":"[7,3,0,4,7,6,7,3,2]","action_history":"[1,0,1,0,0,1,1,1]","door_history":"[0,1,0,1,1,0,0,0]","location_rts":"[389,985,598,556,582,522,392,498]","trial_type":"two-door-navigation","trial_index":28,"time_elapsed":490053,"internal_node_id":"0.0-2.0-26.0"},{"group":"square cycles (cube, non-group)","room_assignment":["yellow","brown","grey","red","pink","blue","purple","green"],"door_color_assignment":["white","black"],"door_generator_assignment":[1,0],"goal":1,"start":2,"action_noise":0.1,"location_history":"[2,6,5,4,7,3,0,4,5,1]","action_history":"[1,0,0,0,1,0,1,1,1]","door_history":"[0,1,1,1,0,1,0,0,0]","location_rts":"[479,639,666,583,448,895,1032,613,989]","trial_type":"two-door-navigation","trial_index":29,"time_elapsed":509095,"internal_node_id":"0.0-2.0-27.0"},{"group":"square cycles (cube, non-group)","room_assignment":["yellow","brown","grey","red","pink","blue","purple","green"],"door_color_assignment":["white","black"],"door_generator_assignment":[1,0],"goal":5,"start":1,"action_noise":0.1,"location_history":"[1,2,3,0,1,0,1,0,1,2,6,5]","action_history":"[0,0,0,0,1,0,1,1,0,1,0]","door_history":"[1,1,1,1,0,1,0,0,1,0,1]","location_rts":"[1649,1081,431,1067,1952,593,795,175,1084,1088,869]","trial_type":"two-door-navigation","trial_index":30,"time_elapsed":534622,"internal_node_id":"0.0-2.0-28.0"},{"group":"square cycles (cube, non-group)","room_assignment":["yellow","brown","grey","red","pink","blue","purple","green"],"door_color_assignment":["white","black"],"door_generator_assignment":[1,0],"goal":4,"start":5,"action_noise":0.1,"location_history":"[5,4]","action_history":"[0]","door_history":"[1]","location_rts":"[1300]","trial_type":"two-door-navigation","trial_index":31,"time_elapsed":540446,"internal_node_id":"0.0-2.0-29.0"},{"group":"square cycles (cube, non-group)","room_assignment":["yellow","brown","grey","red","pink","blue","purple","green"],"door_color_assignment":["white","black"],"door_generator_assignment":[1,0],"goal":6,"start":4,"action_noise":0.1,"location_history":"[4,5,4,7,3,2,6]","action_history":"[1,0,0,1,1,1]","door_history":"[0,1,1,0,0,0]","location_rts":"[579,548,502,1116,455,633]","trial_type":"two-door-navigation","trial_index":32,"time_elapsed":553926,"internal_node_id":"0.0-2.0-30.0"},{"group":"square cycles (cube, non-group)","room_assignment":["yellow","brown","grey","red","pink","blue","purple","green"],"door_color_assignment":["white","black"],"door_generator_assignment":[1,0],"goal":4,"start":6,"action_noise":0.1,"location_history":"[6,7,3,2,6,7,6,5,4]","action_history":"[0,0,1,1,1,0,1,0]","door_history":"[1,1,0,0,0,1,0,1]","location_rts":"[642,582,497,821,414,373,632,1048]","trial_type":"two-door-navigation","trial_index":33,"time_elapsed":570614,"internal_node_id":"0.0-2.0-31.0"},{"group":"square cycles (cube, non-group)","room_assignment":["yellow","brown","grey","red","pink","blue","purple","green"],"door_color_assignment":["white","black"],"door_generator_assignment":[1,0],"goal":2,"start":4,"action_noise":0.1,"location_history":"[4,7,3,2]","action_history":"[0,1,1]","door_history":"[1,0,0]","location_rts":"[440,431,503]","trial_type":"two-door-navigation","trial_index":34,"time_elapsed":578547,"internal_node_id":"0.0-2.0-32.0"},{"group":"square cycles (cube, non-group)","room_assignment":["yellow","brown","grey","red","pink","blue","purple","green"],"door_color_assignment":["white","black"],"door_generator_assignment":[1,0],"goal":0,"start":2,"action_noise":0.1,"location_history":"[2,3,0]","action_history":"[1,0]","door_history":"[0,1]","location_rts":"[320,365]","trial_type":"two-door-navigation","trial_index":35,"time_elapsed":584778,"internal_node_id":"0.0-2.0-33.0"},{"group":"square cycles (cube, non-group)","room_assignment":["yellow","brown","grey","red","pink","blue","purple","green"],"door_color_assignment":["white","black"],"door_generator_assignment":[1,0],"goal":5,"start":0,"action_noise":0.1,"location_history":"[0,1,2,6,5]","action_history":"[1,0,1,0]","door_history":"[0,1,0,1]","location_rts":"[355,1263,825,786]","trial_type":"two-door-navigation","trial_index":36,"time_elapsed":595593,"internal_node_id":"0.0-2.0-34.0"},{"group":"square cycles (cube, non-group)","room_assignment":["yellow","brown","grey","red","pink","blue","purple","green"],"door_color_assignment":["white","black"],"door_generator_assignment":[1,0],"goal":1,"start":5,"action_noise":0.1,"location_history":"[5,1]","action_history":"[1]","door_history":"[0]","location_rts":"[1746]","trial_type":"two-door-navigation","trial_index":37,"time_elapsed":601866,"internal_node_id":"0.0-2.0-35.0"},{"group":"square cycles (cube, non-group)","room_assignment":["yellow","brown","grey","red","pink","blue","purple","green"],"door_color_assignment":["white","black"],"door_generator_assignment":[1,0],"goal":7,"start":1,"action_noise":0.1,"location_history":"[1,2,3,0,1,2,3,2,3,2,3,2,3,2,6,5,4,7]","action_history":"[0,0,1,0,0,0,1,1,1,0,1,1,1,1,0,0,0]","door_history":"[1,1,0,1,1,1,0,0,0,1,0,0,0,0,1,1,1]","location_rts":"[849,995,790,1013,385,472,668,859,606,1229,542,506,835,1139,1221,994,797]","trial_type":"two-door-navigation","trial_index":38,"time_elapsed":636644,"internal_node_id":"0.0-2.0-36.0"},{"group":"square cycles (cube, non-group)","room_assignment":["yellow","brown","grey","red","pink","blue","purple","green"],"door_color_assignment":["white","black"],"door_generator_assignment":[1,0],"goal":3,"start":7,"action_noise":0.1,"location_history":"[7,6,5,1,0,1,0,1,0,4,7,3]","action_history":"[0,0,1,1,0,1,1,1,1,0,1]","door_history":"[1,1,0,0,1,0,0,0,0,1,0]","location_rts":"[1039,1736,561,1194,1071,1458,700,1158,636,742,694]","trial_type":"two-door-navigation","trial_index":39,"time_elapsed":662428,"internal_node_id":"0.0-2.0-37.0"},{"group":"square cycles (cube, non-group)","room_assignment":["yellow","brown","grey","red","pink","blue","purple","green"],"door_color_assignment":["white","black"],"door_generator_assignment":[1,0],"goal":6,"start":3,"action_noise":0.1,"location_history":"[3,2,3,2,6]","action_history":"[1,0,1,1]","door_history":"[0,1,0,0]","location_rts":"[702,2467,1230,1455]","trial_type":"two-door-navigation","trial_index":40,"time_elapsed":675869,"internal_node_id":"0.0-2.0-38.0"},{"group":"square cycles (cube, non-group)","room_assignment":["yellow","brown","grey","red","pink","blue","purple","green"],"door_color_assignment":["white","black"],"door_generator_assignment":[1,0],"goal":2,"start":6,"action_noise":0.1,"location_history":"[6,7,6,5,1,2]","action_history":"[1,0,0,1,0]","door_history":"[0,1,1,0,1]","location_rts":"[508,954,703,1241,1167]","trial_type":"two-door-navigation","trial_index":41,"time_elapsed":689046,"internal_node_id":"0.0-2.0-39.0"},{"group":"square cycles (cube, non-group)","room_assignment":["yellow","brown","grey","red","pink","blue","purple","green"],"door_color_assignment":["white","black"],"door_generator_assignment":[1,0],"goal":1,"start":2,"action_noise":0.1,"location_history":"[2,6,7,6,7,3,2,6,7,6,7,6,7,3,2,6,7,3,0,1]","action_history":"[1,1,0,0,1,1,1,1,0,0,0,1,1,1,1,1,1,0,0]","door_history":"[0,0,1,1,0,0,0,0,1,1,1,0,0,0,0,0,0,1,1]","location_rts":"[536,491,359,1199,1330,484,759,989,887,864,646,1012,1111,620,1027,1337,311,498,683]","trial_type":"two-door-navigation","trial_index":42,"time_elapsed":727105,"internal_node_id":"0.0-2.0-40.0"},{"group":"square cycles (cube, non-group)","room_assignment":["yellow","brown","grey","red","pink","blue","purple","green"],"door_color_assignment":["white","black"],"door_generator_assignment":[1,0],"goal":0,"start":1,"action_noise":0.1,"location_history":"[1,0]","action_history":"[1]","door_history":"[0]","location_rts":"[1626]","trial_type":"two-door-navigation","trial_index":43,"time_elapsed":733252,"internal_node_id":"0.0-2.0-41.0"},{"group":"square cycles (cube, non-group)","room_assignment":["yellow","brown","grey","red","pink","blue","purple","green"],"door_color_assignment":["white","black"],"door_generator_assignment":[1,0],"goal":4,"start":0,"action_noise":0.1,"location_history":"[0,1,2,3,0,1,2,6,7,3,0,1,2,3,0,4]","action_history":"[1,0,1,1,0,0,1,1,1,0,0,0,0,0,1]","door_history":"[0,1,0,0,1,1,0,0,0,1,1,1,1,1,0]","location_rts":"[1568,703,907,1014,515,496,616,885,620,1039,330,493,549,1761,1078]","trial_type":"two-door-navigation","trial_index":44,"time_elapsed":764682,"internal_node_id":"0.0-2.0-42.0"},{"group":"square cycles (cube, non-group)","room_assignment":["yellow","brown","grey","red","pink","blue","purple","green"],"door_color_assignment":["white","black"],"door_generator_assignment":[1,0],"goal":6,"start":4,"action_noise":0.1,"location_history":"[4,7,3,2,3,2,3,0,4,5,4,7,3,2,6]","action_history":"[0,1,1,0,1,0,0,1,1,0,0,0,0,1]","door_history":"[1,0,0,1,0,1,1,0,0,1,1,1,1,0]","location_rts":"[1020,1107,925,998,964,925,785,1208,676,1103,540,709,674,1070]","trial_type":"two-door-navigation","trial_index":45,"time_elapsed":795183,"internal_node_id":"0.0-2.0-43.0"},{"group":"square cycles (cube, non-group)","room_assignment":["yellow","brown","grey","red","pink","blue","purple","green"],"door_color_assignment":["white","black"],"door_generator_assignment":[1,0],"goal":3,"start":6,"action_noise":0.1,"location_history":"[6,5,4,7,3]","action_history":"[0,0,0,1]","door_history":"[1,1,1,0]","location_rts":"[727,309,1978,566]","trial_type":"two-door-navigation","trial_index":46,"time_elapsed":806342,"internal_node_id":"0.0-2.0-44.0"},{"group":"square cycles (cube, non-group)","room_assignment":["yellow","brown","grey","red","pink","blue","purple","green"],"door_color_assignment":["white","black"],"door_generator_assignment":[1,0],"goal":7,"start":3,"action_noise":0.1,"location_history":"[3,2,3,2,6,5,1,2,3,2,6,7]","action_history":"[1,0,1,1,0,1,0,0,1,1,1]","door_history":"[0,1,0,0,1,0,1,1,0,0,0]","location_rts":"[372,550,850,1303,897,771,1929,3399,697,1903,624]","trial_type":"two-door-navigation","trial_index":47,"time_elapsed":834356,"internal_node_id":"0.0-2.0-45.0"},{"group":"square cycles (cube, non-group)","room_assignment":["yellow","brown","grey","red","pink","blue","purple","green"],"door_color_assignment":["white","black"],"door_generator_assignment":[1,0],"goal":5,"start":7,"action_noise":0.1,"location_history":"[7,3,2,6,5]","action_history":"[0,1,1,0]","door_history":"[1,0,0,1]","location_rts":"[618,821,527,608]","trial_type":"two-door-navigation","trial_index":48,"time_elapsed":844517,"internal_node_id":"0.0-2.0-46.0"},{"group":"square cycles (cube, non-group)","room_assignment":["yellow","brown","grey","red","pink","blue","purple","green"],"door_color_assignment":["white","black"],"door_generator_assignment":[1,0],"goal":1,"start":5,"action_noise":0.1,"location_history":"[5,1]","action_history":"[1]","door_history":"[0]","location_rts":"[1281]","trial_type":"two-door-navigation","trial_index":49,"time_elapsed":850331,"internal_node_id":"0.0-2.0-47.0"},{"group":"square cycles (cube, non-group)","room_assignment":["yellow","brown","grey","red","pink","blue","purple","green"],"door_color_assignment":["white","black"],"door_generator_assignment":[1,0],"goal":6,"start":1,"action_noise":0.1,"location_history":"[1,0,1,0,4,7,6]","action_history":"[1,0,1,0,0,0]","door_history":"[0,1,0,1,1,1]","location_rts":"[632,480,1143,772,683,1639]","trial_type":"two-door-navigation","trial_index":50,"time_elapsed":865343,"internal_node_id":"0.0-2.0-48.0"},{"group":"square cycles (cube, non-group)","room_assignment":["yellow","brown","grey","red","pink","blue","purple","green"],"door_color_assignment":["white","black"],"door_generator_assignment":[1,0],"goal":0,"start":6,"action_noise":0.1,"location_history":"[6,7,6,5,4,5,4,5,1,2,3,0]","action_history":"[1,0,0,0,1,1,1,1,0,0,0]","door_history":"[0,1,1,1,0,0,0,0,1,1,1]","location_rts":"[1108,739,439,504,961,622,1097,348,673,397,511]","trial_type":"two-door-navigation","trial_index":51,"time_elapsed":887512,"internal_node_id":"0.0-2.0-49.0"},{"view_history":"[{\"page_index\":0,\"viewing_time\":3149}]","rt":3149,"trial_type":"instructions","trial_index":52,"time_elapsed":891661,"internal_node_id":"0.0-3.0"},{"view_history":"[{\"page_index\":0,\"viewing_time\":1188},{\"page_index\":1,\"viewing_time\":6449}]","rt":7637,"trial_type":"instructions","trial_index":53,"time_elapsed":900298,"internal_node_id":"0.0-4.0"},{"group":"square cycles (cube, non-group)","fractal_assignment":["../images/grn_red.png","../images/cyn_red.png","../images/org_blu.png","../images/pnk_blu.png","../images/ylw_slt.png","../images/gry_blk.png","../images/blu_wht.png","../images/ylw_pnk.png"],"mutagen_generator_assignment":[1,0],"goal":6,"start":3,"action_noise":0.1,"location_history":"[3,0,1,0,4,5,4,5,1,2,3,0,4,7,6]","action_history":"[0,0,1,1,1,1,1,0,0,0,1,1,0,0]","mutagen_history":"[1,1,0,0,0,0,0,1,1,1,0,0,1,1]","location_rts":"[9137,1874,735,552,621,1064,1082,691,656,470,287,945,790,391]","trial_type":"fractal-mutation","trial_index":54,"time_elapsed":938561,"internal_node_id":"0.0-5.0-0.0"},{"group":"square cycles (cube, non-group)","fractal_assignment":["../images/grn_red.png","../images/cyn_red.png","../images/org_blu.png","../images/pnk_blu.png","../images/ylw_slt.png","../images/gry_blk.png","../images/blu_wht.png","../images/ylw_pnk.png"],"mutagen_generator_assignment":[1,0],"goal":1,"start":6,"action_noise":0.1,"location_history":"[6,5,4,5,1]","action_history":"[0,0,1,1]","mutagen_history":"[1,1,0,0]","location_rts":"[349,430,719,938]","trial_type":"fractal-mutation","trial_index":55,"time_elapsed":948947,"internal_node_id":"0.0-5.0-1.0"},{"group":"square cycles (cube, non-group)","fractal_assignment":["../images/grn_red.png","../images/cyn_red.png","../images/org_blu.png","../images/pnk_blu.png","../images/ylw_slt.png","../images/gry_blk.png","../images/blu_wht.png","../images/ylw_pnk.png"],"mutagen_generator_assignment":[1,0],"goal":2,"start":1,"action_noise":0.1,"location_history":"[1,0,1,0,1,0,4,5,1,2]","action_history":"[0,0,1,0,0,1,1,1,0]","mutagen_history":"[1,1,0,1,1,0,0,0,1]","location_rts":"[441,411,675,2118,1090,1193,722,458,768]","trial_type":"fractal-mutation","trial_index":56,"time_elapsed":970301,"internal_node_id":"0.0-5.0-2.0"},{"group":"square cycles (cube, non-group)","fractal_assignment":["../images/grn_red.png","../images/cyn_red.png","../images/org_blu.png","../images/pnk_blu.png","../images/ylw_slt.png","../images/gry_blk.png","../images/blu_wht.png","../images/ylw_pnk.png"],"mutagen_generator_assignment":[1,0],"goal":0,"start":2,"action_noise":0.1,"location_history":"[2,6,5,4,5,4,5,4,5,4,5,1,0]","action_history":"[0,0,0,1,0,0,0,1,1,1,1,1]","mutagen_history":"[1,1,1,0,1,1,1,0,0,0,0,0]","location_rts":"[1421,458,459,757,809,390,949,435,503,384,519,900]","trial_type":"fractal-mutation","trial_index":57,"time_elapsed":995142,"internal_node_id":"0.0-5.0-3.0"},{"group":"square cycles (cube, non-group)","fractal_assignment":["../images/grn_red.png","../images/cyn_red.png","../images/org_blu.png","../images/pnk_blu.png","../images/ylw_slt.png","../images/gry_blk.png","../images/blu_wht.png","../images/ylw_pnk.png"],"mutagen_generator_assignment":[1,0],"goal":7,"start":0,"action_noise":0.1,"location_history":"[0,1,2,3,0,1,0,1,0,1,0,1,2,6,5,4,5,1,0,4,5,1,2,3,0,4,5,1,0,1,2,3,2,6,5,4,7]","action_history":"[0,0,0,0,0,1,1,0,0,1,0,0,1,0,0,1,1,1,1,1,1,0,0,0,1,1,1,1,0,0,0,1,1,0,0,0]","mutagen_history":"[1,1,1,1,1,0,0,1,1,0,1,1,0,1,1,0,0,0,0,0,0,1,1,1,0,0,0,0,1,1,1,0,0,1,1,1]","location_rts":"[1707,547,474,489,909,470,1475,624,762,1772,464,309,573,384,274,682,905,431,986,650,810,382,784,525,490,547,555,782,847,784,1548,575,2921,458,321,777]","trial_type":"fractal-mutation","trial_index":58,"time_elapsed":1066316,"internal_node_id":"0.0-5.0-4.0"},{"group":"square cycles (cube, non-group)","fractal_assignment":["../images/grn_red.png","../images/cyn_red.png","../images/org_blu.png","../images/pnk_blu.png","../images/ylw_slt.png","../images/gry_blk.png","../images/blu_wht.png","../images/ylw_pnk.png"],"mutagen_generator_assignment":[1,0],"goal":5,"start":7,"action_noise":0.1,"location_history":"[7,6,5]","action_history":"[0,0]","mutagen_history":"[1,1]","location_rts":"[1171,789]","trial_type":"fractal-mutation","trial_index":59,"time_elapsed":1074036,"internal_node_id":"0.0-5.0-5.0"},{"group":"square cycles (cube, non-group)","fractal_assignment":["../images/grn_red.png","../images/cyn_red.png","../images/org_blu.png","../images/pnk_blu.png","../images/ylw_slt.png","../images/gry_blk.png","../images/blu_wht.png","../images/ylw_pnk.png"],"mutagen_generator_assignment":[1,0],"goal":4,"start":5,"action_noise":0.1,"location_history":"[5,4]","action_history":"[0]","mutagen_history":"[1]","location_rts":"[855]","trial_type":"fractal-mutation","trial_index":60,"time_elapsed":1079524,"internal_node_id":"0.0-5.0-6.0"},{"group":"square cycles (cube, non-group)","fractal_assignment":["../images/grn_red.png","../images/cyn_red.png","../images/org_blu.png","../images/pnk_blu.png","../images/ylw_slt.png","../images/gry_blk.png","../images/blu_wht.png","../images/ylw_pnk.png"],"mutagen_generator_assignment":[1,0],"goal":2,"start":4,"action_noise":0.1,"location_history":"[4,7,6,5,4,5,1,0,1,0,4,5,1,0,1,2]","action_history":"[0,0,0,0,0,1,1,1,1,1,1,1,1,0,0]","mutagen_history":"[1,1,1,1,1,0,0,0,0,0,0,0,0,1,1]","location_rts":"[1180,487,450,503,2388,391,623,474,541,1221,740,601,649,582,420]","trial_type":"fractal-mutation","trial_index":61,"time_elapsed":1110847,"internal_node_id":"0.0-5.0-7.0"},{"group":"square cycles (cube, non-group)","fractal_assignment":["../images/grn_red.png","../images/cyn_red.png","../images/org_blu.png","../images/pnk_blu.png","../images/ylw_slt.png","../images/gry_blk.png","../images/blu_wht.png","../images/ylw_pnk.png"],"mutagen_generator_assignment":[1,0],"goal":3,"start":2,"action_noise":0.1,"location_history":"[2,3]","action_history":"[0]","mutagen_history":"[1]","location_rts":"[964]","trial_type":"fractal-mutation","trial_index":62,"time_elapsed":1116417,"internal_node_id":"0.0-5.0-8.0"},{"group":"square cycles (cube, non-group)","fractal_assignment":["../images/grn_red.png","../images/cyn_red.png","../images/org_blu.png","../images/pnk_blu.png","../images/ylw_slt.png","../images/gry_blk.png","../images/blu_wht.png","../images/ylw_pnk.png"],"mutagen_generator_assignment":[1,0],"goal":7,"start":3,"action_noise":0.1,"location_history":"[3,0,1,2,6,5,4,5,4,7]","action_history":"[0,0,0,1,0,0,1,0,0]","mutagen_history":"[1,1,1,0,1,1,0,1,1]","location_rts":"[456,769,1116,356,381,384,400,376,278]","trial_type":"fractal-mutation","trial_index":63,"time_elapsed":1134488,"internal_node_id":"0.0-5.0-9.0"},{"group":"square cycles (cube, non-group)","fractal_assignment":["../images/grn_red.png","../images/cyn_red.png","../images/org_blu.png","../images/pnk_blu.png","../images/ylw_slt.png","../images/gry_blk.png","../images/blu_wht.png","../images/ylw_pnk.png"],"mutagen_generator_assignment":[1,0],"goal":0,"start":7,"action_noise":0.1,"location_history":"[7,6,5,1,0]","action_history":"[0,0,1,1]","mutagen_history":"[1,1,0,0]","location_rts":"[1329,1212,497,901]","trial_type":"fractal-mutation","trial_index":64,"time_elapsed":1146371,"internal_node_id":"0.0-5.0-10.0"},{"group":"square cycles (cube, non-group)","fractal_assignment":["../images/grn_red.png","../images/cyn_red.png","../images/org_blu.png","../images/pnk_blu.png","../images/ylw_slt.png","../images/gry_blk.png","../images/blu_wht.png","../images/ylw_pnk.png"],"mutagen_generator_assignment":[1,0],"goal":1,"start":0,"action_noise":0.1,"location_history":"[0,1]","action_history":"[0]","mutagen_history":"[1]","location_rts":"[458]","trial_type":"fractal-mutation","trial_index":65,"time_elapsed":1151455,"internal_node_id":"0.0-5.0-11.0"},{"group":"square cycles (cube, non-group)","fractal_assignment":["../images/grn_red.png","../images/cyn_red.png","../images/org_blu.png","../images/pnk_blu.png","../images/ylw_slt.png","../images/gry_blk.png","../images/blu_wht.png","../images/ylw_pnk.png"],"mutagen_generator_assignment":[1,0],"goal":6,"start":1,"action_noise":0.1,"location_history":"[1,2,3,0,1,0,1,0,4,5,1,0,1,0,1,2,6]","action_history":"[0,0,0,0,0,0,1,1,1,1,1,0,1,1,0,1]","mutagen_history":"[1,1,1,1,1,1,0,0,0,0,0,1,0,0,1,0]","location_rts":"[681,752,934,795,895,431,372,558,645,554,465,365,450,274,274,795]","trial_type":"fractal-mutation","trial_index":66,"time_elapsed":1181822,"internal_node_id":"0.0-5.0-12.0"},{"group":"square cycles (cube, non-group)","fractal_assignment":["../images/grn_red.png","../images/cyn_red.png","../images/org_blu.png","../images/pnk_blu.png","../images/ylw_slt.png","../images/gry_blk.png","../images/blu_wht.png","../images/ylw_pnk.png"],"mutagen_generator_assignment":[1,0],"goal":4,"start":6,"action_noise":0.1,"location_history":"[6,5,4]","action_history":"[0,0]","mutagen_history":"[1,1]","location_rts":"[2373,550]","trial_type":"fractal-mutation","trial_index":67,"time_elapsed":1190497,"internal_node_id":"0.0-5.0-13.0"},{"group":"square cycles (cube, non-group)","fractal_assignment":["../images/grn_red.png","../images/cyn_red.png","../images/org_blu.png","../images/pnk_blu.png","../images/ylw_slt.png","../images/gry_blk.png","../images/blu_wht.png","../images/ylw_pnk.png"],"mutagen_generator_assignment":[1,0],"goal":5,"start":4,"action_noise":0.1,"location_history":"[4,7,6,5]","action_history":"[0,0,0]","mutagen_history":"[1,1,1]","location_rts":"[888,630,483]","trial_type":"fractal-mutation","trial_index":68,"time_elapsed":1199414,"internal_node_id":"0.0-5.0-14.0"},{"group":"square cycles (cube, non-group)","fractal_assignment":["../images/grn_red.png","../images/cyn_red.png","../images/org_blu.png","../images/pnk_blu.png","../images/ylw_slt.png","../images/gry_blk.png","../images/blu_wht.png","../images/ylw_pnk.png"],"mutagen_generator_assignment":[1,0],"goal":4,"start":5,"action_noise":0.1,"location_history":"[5,4]","action_history":"[0]","mutagen_history":"[1]","location_rts":"[714]","trial_type":"fractal-mutation","trial_index":69,"time_elapsed":1204751,"internal_node_id":"0.0-5.0-15.0"},{"group":"square cycles (cube, non-group)","fractal_assignment":["../images/grn_red.png","../images/cyn_red.png","../images/org_blu.png","../images/pnk_blu.png","../images/ylw_slt.png","../images/gry_blk.png","../images/blu_wht.png","../images/ylw_pnk.png"],"mutagen_generator_assignment":[1,0],"goal":0,"start":4,"action_noise":0.1,"location_history":"[4,7,6,5,4,7,3,2,6,7,6,7,3,2,6,7,6,5,4,7,6,7,6,5,4,5,4,7,3,2,6,7,3,2,3,0]","action_history":"[0,0,0,0,0,1,1,1,0,0,1,1,1,1,1,0,0,0,0,0,1,0,0,0,1,0,0,1,1,1,1,1,1,0,0]","mutagen_history":"[1,1,1,1,1,0,0,0,1,1,0,0,0,0,0,1,1,1,1,1,0,1,1,1,0,1,1,0,0,0,0,0,0,1,1]","location_rts":"[1024,500,1202,1104,615,406,852,472,573,1262,847,745,625,462,488,976,430,464,417,1947,971,934,300,460,557,521,231,898,1131,576,401,412,846,650,622]","trial_type":"fractal-mutation","trial_index":70,"time_elapsed":1271722,"internal_node_id":"0.0-5.0-16.0"},{"group":"square cycles (cube, non-group)","fractal_assignment":["../images/grn_red.png","../images/cyn_red.png","../images/org_blu.png","../images/pnk_blu.png","../images/ylw_slt.png","../images/gry_blk.png","../images/blu_wht.png","../images/ylw_pnk.png"],"mutagen_generator_assignment":[1,0],"goal":7,"start":0,"action_noise":0.1,"location_history":"[0,1,2,3,2,3,2,3,2,6,5,1,2,3,0,1,0,1,2,3,0,1,2,3,2,6,5,4,7]","action_history":"[0,0,0,1,0,0,0,1,1,1,0,0,0,0,0,1,0,0,0,0,0,0,0,1,1,0,0,0]","mutagen_history":"[1,1,1,0,1,1,1,0,0,0,1,1,1,1,1,0,1,1,1,1,1,1,1,0,0,1,1,1]","location_rts":"[1325,411,926,885,578,272,531,1073,539,453,705,391,597,728,901,446,485,409,622,1758,474,543,754,713,550,1438,930,622]","trial_type":"fractal-mutation","trial_index":71,"time_elapsed":1326506,"internal_node_id":"0.0-5.0-17.0"},{"group":"square cycles (cube, non-group)","fractal_assignment":["../images/grn_red.png","../images/cyn_red.png","../images/org_blu.png","../images/pnk_blu.png","../images/ylw_slt.png","../images/gry_blk.png","../images/blu_wht.png","../images/ylw_pnk.png"],"mutagen_generator_assignment":[1,0],"goal":2,"start":7,"action_noise":0.1,"location_history":"[7,3,0,4,5,1,0,1,2]","action_history":"[1,1,1,1,0,0,0,0]","mutagen_history":"[0,0,0,0,1,1,1,1]","location_rts":"[2132,406,371,706,351,1120,426,372]","trial_type":"fractal-mutation","trial_index":72,"time_elapsed":1344657,"internal_node_id":"0.0-5.0-18.0"},{"group":"square cycles (cube, non-group)","fractal_assignment":["../images/grn_red.png","../images/cyn_red.png","../images/org_blu.png","../images/pnk_blu.png","../images/ylw_slt.png","../images/gry_blk.png","../images/blu_wht.png","../images/ylw_pnk.png"],"mutagen_generator_assignment":[1,0],"goal":1,"start":2,"action_noise":0.1,"location_history":"[2,3,0,1]","action_history":"[0,0,0]","mutagen_history":"[1,1,1]","location_rts":"[1165,435,485]","trial_type":"fractal-mutation","trial_index":73,"time_elapsed":1353604,"internal_node_id":"0.0-5.0-19.0"},{"group":"square cycles (cube, non-group)","fractal_assignment":["../images/grn_red.png","../images/cyn_red.png","../images/org_blu.png","../images/pnk_blu.png","../images/ylw_slt.png","../images/gry_blk.png","../images/blu_wht.png","../images/ylw_pnk.png"],"mutagen_generator_assignment":[1,0],"goal":3,"start":1,"action_noise":0.1,"location_history":"[1,2,3]","action_history":"[0,0]","mutagen_history":"[1,1]","location_rts":"[806,389]","trial_type":"fractal-mutation","trial_index":74,"time_elapsed":1360527,"internal_node_id":"0.0-5.0-20.0"},{"group":"square cycles (cube, non-group)","fractal_assignment":["../images/grn_red.png","../images/cyn_red.png","../images/org_blu.png","../images/pnk_blu.png","../images/ylw_slt.png","../images/gry_blk.png","../images/blu_wht.png","../images/ylw_pnk.png"],"mutagen_generator_assignment":[1,0],"goal":6,"start":3,"action_noise":0.1,"location_history":"[3,0,1,0,1,2,6]","action_history":"[0,0,0,0,0,1]","mutagen_history":"[1,1,1,1,1,0]","location_rts":"[1014,400,401,697,720,421]","trial_type":"fractal-mutation","trial_index":75,"time_elapsed":1374343,"internal_node_id":"0.0-5.0-21.0"},{"group":"square cycles (cube, non-group)","fractal_assignment":["../images/grn_red.png","../images/cyn_red.png","../images/org_blu.png","../images/pnk_blu.png","../images/ylw_slt.png","../images/gry_blk.png","../images/blu_wht.png","../images/ylw_pnk.png"],"mutagen_generator_assignment":[1,0],"goal":5,"start":6,"action_noise":0.1,"location_history":"[6,5]","action_history":"[1]","mutagen_history":"[0]","location_rts":"[1675]","trial_type":"fractal-mutation","trial_index":76,"time_elapsed":1380672,"internal_node_id":"0.0-5.0-22.0"},{"group":"square cycles (cube, non-group)","fractal_assignment":["../images/grn_red.png","../images/cyn_red.png","../images/org_blu.png","../images/pnk_blu.png","../images/ylw_slt.png","../images/gry_blk.png","../images/blu_wht.png","../images/ylw_pnk.png"],"mutagen_generator_assignment":[1,0],"goal":3,"start":5,"action_noise":0.1,"location_history":"[5,1,2,3]","action_history":"[0,0,0]","mutagen_history":"[1,1,1]","location_rts":"[874,362,391]","trial_type":"fractal-mutation","trial_index":77,"time_elapsed":1389160,"internal_node_id":"0.0-5.0-23.0"},{"group":"square cycles (cube, non-group)","fractal_assignment":["../images/grn_red.png","../images/cyn_red.png","../images/org_blu.png","../images/pnk_blu.png","../images/ylw_slt.png","../images/gry_blk.png","../images/blu_wht.png","../images/ylw_pnk.png"],"mutagen_generator_assignment":[1,0],"goal":0,"start":3,"action_noise":0.1,"location_history":"[3,0]","action_history":"[0]","mutagen_history":"[1]","location_rts":"[1314]","trial_type":"fractal-mutation","trial_index":78,"time_elapsed":1395142,"internal_node_id":"0.0-5.0-24.0"},{"group":"square cycles (cube, non-group)","fractal_assignment":["../images/grn_red.png","../images/cyn_red.png","../images/org_blu.png","../images/pnk_blu.png","../images/ylw_slt.png","../images/gry_blk.png","../images/blu_wht.png","../images/ylw_pnk.png"],"mutagen_generator_assignment":[1,0],"goal":7,"start":0,"action_noise":0.1,"location_history":"[0,1,2,3,2,6,7]","action_history":"[0,0,0,0,1,1]","mutagen_history":"[1,1,1,1,0,0]","location_rts":"[3054,515,686,670,906,1155]","trial_type":"fractal-mutation","trial_index":79,"time_elapsed":1412327,"internal_node_id":"0.0-5.0-25.0"},{"group":"square cycles (cube, non-group)","fractal_assignment":["../images/grn_red.png","../images/cyn_red.png","../images/org_blu.png","../images/pnk_blu.png","../images/ylw_slt.png","../images/gry_blk.png","../images/blu_wht.png","../images/ylw_pnk.png"],"mutagen_generator_assignment":[1,0],"goal":2,"start":7,"action_noise":0.1,"location_history":"[7,3,2]","action_history":"[1,1]","mutagen_history":"[0,0]","location_rts":"[501,1369]","trial_type":"fractal-mutation","trial_index":80,"time_elapsed":1419838,"internal_node_id":"0.0-5.0-26.0"},{"group":"square cycles (cube, non-group)","fractal_assignment":["../images/grn_red.png","../images/cyn_red.png","../images/org_blu.png","../images/pnk_blu.png","../images/ylw_slt.png","../images/gry_blk.png","../images/blu_wht.png","../images/ylw_pnk.png"],"mutagen_generator_assignment":[1,0],"goal":1,"start":2,"action_noise":0.1,"location_history":"[2,3,0,1]","action_history":"[0,0,0]","mutagen_history":"[1,1,1]","location_rts":"[1097,256,501]","trial_type":"fractal-mutation","trial_index":81,"time_elapsed":1428552,"internal_node_id":"0.0-5.0-27.0"},{"group":"square cycles (cube, non-group)","fractal_assignment":["../images/grn_red.png","../images/cyn_red.png","../images/org_blu.png","../images/pnk_blu.png","../images/ylw_slt.png","../images/gry_blk.png","../images/blu_wht.png","../images/ylw_pnk.png"],"mutagen_generator_assignment":[1,0],"goal":5,"start":1,"action_noise":0.1,"location_history":"[1,2,3,0,4,5]","action_history":"[0,0,0,1,1]","mutagen_history":"[1,1,1,0,0]","location_rts":"[1442,381,544,466,479]","trial_type":"fractal-mutation","trial_index":82,"time_elapsed":1440877,"internal_node_id":"0.0-5.0-28.0"},{"group":"square cycles (cube, non-group)","fractal_assignment":["../images/grn_red.png","../images/cyn_red.png","../images/org_blu.png","../images/pnk_blu.png","../images/ylw_slt.png","../images/gry_blk.png","../images/blu_wht.png","../images/ylw_pnk.png"],"mutagen_generator_assignment":[1,0],"goal":4,"start":5,"action_noise":0.1,"location_history":"[5,1,2,3,0,4]","action_history":"[1,0,0,0,0]","mutagen_history":"[0,1,1,1,1]","location_rts":"[1259,565,181,719,561]","trial_type":"fractal-mutation","trial_index":83,"time_elapsed":1453350,"internal_node_id":"0.0-5.0-29.0"},{"group":"square cycles (cube, non-group)","fractal_assignment":["../images/grn_red.png","../images/cyn_red.png","../images/org_blu.png","../images/pnk_blu.png","../images/ylw_slt.png","../images/gry_blk.png","../images/blu_wht.png","../images/ylw_pnk.png"],"mutagen_generator_assignment":[1,0],"goal":6,"start":4,"action_noise":0.1,"location_history":"[4,7,6]","action_history":"[0,0]","mutagen_history":"[1,1]","location_rts":"[919,382]","trial_type":"fractal-mutation","trial_index":84,"time_elapsed":1460414,"internal_node_id":"0.0-5.0-30.0"},{"group":"square cycles (cube, non-group)","fractal_assignment":["../images/grn_red.png","../images/cyn_red.png","../images/org_blu.png","../images/pnk_blu.png","../images/ylw_slt.png","../images/gry_blk.png","../images/blu_wht.png","../images/ylw_pnk.png"],"mutagen_generator_assignment":[1,0],"goal":4,"start":6,"action_noise":0.1,"location_history":"[6,7,3,2,6,7,6,5,4]","action_history":"[1,1,1,1,1,0,0,0]","mutagen_history":"[0,0,0,0,0,1,1,1]","location_rts":"[915,406,438,407,1141,2381,539,666]","trial_type":"fractal-mutation","trial_index":85,"time_elapsed":1479583,"internal_node_id":"0.0-5.0-31.0"},{"group":"square cycles (cube, non-group)","fractal_assignment":["../images/grn_red.png","../images/cyn_red.png","../images/org_blu.png","../images/pnk_blu.png","../images/ylw_slt.png","../images/gry_blk.png","../images/blu_wht.png","../images/ylw_pnk.png"],"mutagen_generator_assignment":[1,0],"goal":2,"start":4,"action_noise":0.1,"location_history":"[4,7,6,5,4,7,3,2]","action_history":"[0,0,0,0,0,1,1]","mutagen_history":"[1,1,1,1,1,0,0]","location_rts":"[1448,599,489,583,779,1070,293]","trial_type":"fractal-mutation","trial_index":86,"time_elapsed":1496160,"internal_node_id":"0.0-5.0-32.0"},{"group":"square cycles (cube, non-group)","fractal_assignment":["../images/grn_red.png","../images/cyn_red.png","../images/org_blu.png","../images/pnk_blu.png","../images/ylw_slt.png","../images/gry_blk.png","../images/blu_wht.png","../images/ylw_pnk.png"],"mutagen_generator_assignment":[1,0],"goal":0,"start":2,"action_noise":0.1,"location_history":"[2,3,0]","action_history":"[0,0]","mutagen_history":"[1,1]","location_rts":"[1275,413]","trial_type":"fractal-mutation","trial_index":87,"time_elapsed":1503633,"internal_node_id":"0.0-5.0-33.0"},{"group":"square cycles (cube, non-group)","fractal_assignment":["../images/grn_red.png","../images/cyn_red.png","../images/org_blu.png","../images/pnk_blu.png","../images/ylw_slt.png","../images/gry_blk.png","../images/blu_wht.png","../images/ylw_pnk.png"],"mutagen_generator_assignment":[1,0],"goal":5,"start":0,"action_noise":0.1,"location_history":"[0,4,5]","action_history":"[1,1]","mutagen_history":"[0,0]","location_rts":"[917,685]","trial_type":"fractal-mutation","trial_index":88,"time_elapsed":1510899,"internal_node_id":"0.0-5.0-34.0"},{"group":"square cycles (cube, non-group)","fractal_assignment":["../images/grn_red.png","../images/cyn_red.png","../images/org_blu.png","../images/pnk_blu.png","../images/ylw_slt.png","../images/gry_blk.png","../images/blu_wht.png","../images/ylw_pnk.png"],"mutagen_generator_assignment":[1,0],"goal":1,"start":5,"action_noise":0.1,"location_history":"[5,4,7,6,7,6,5,4,5,4,7,6,5,1]","action_history":"[0,0,0,1,1,0,0,0,0,0,0,0,1]","mutagen_history":"[1,1,1,0,0,1,1,1,1,1,1,1,0]","location_rts":"[926,299,314,907,1363,733,546,390,922,373,364,431,976]","trial_type":"fractal-mutation","trial_index":89,"time_elapsed":1537584,"internal_node_id":"0.0-5.0-35.0"},{"group":"square cycles (cube, non-group)","fractal_assignment":["../images/grn_red.png","../images/cyn_red.png","../images/org_blu.png","../images/pnk_blu.png","../images/ylw_slt.png","../images/gry_blk.png","../images/blu_wht.png","../images/ylw_pnk.png"],"mutagen_generator_assignment":[1,0],"goal":7,"start":1,"action_noise":0.1,"location_history":"[1,2,3,0,4,5,1,2,6,7]","action_history":"[0,0,0,1,1,1,1,1,1]","mutagen_history":"[1,1,1,0,0,0,0,0,0]","location_rts":"[1104,684,540,589,470,441,357,2037,2317]","trial_type":"fractal-mutation","trial_index":90,"time_elapsed":1559426,"internal_node_id":"0.0-5.0-36.0"},{"group":"square cycles (cube, non-group)","fractal_assignment":["../images/grn_red.png","../images/cyn_red.png","../images/org_blu.png","../images/pnk_blu.png","../images/ylw_slt.png","../images/gry_blk.png","../images/blu_wht.png","../images/ylw_pnk.png"],"mutagen_generator_assignment":[1,0],"goal":3,"start":7,"action_noise":0.1,"location_history":"[7,6,5,4,7,3]","action_history":"[0,0,0,0,0]","mutagen_history":"[1,1,1,1,1]","location_rts":"[1201,398,437,628,836]","trial_type":"fractal-mutation","trial_index":91,"time_elapsed":1571977,"internal_node_id":"0.0-5.0-37.0"},{"group":"square cycles (cube, non-group)","fractal_assignment":["../images/grn_red.png","../images/cyn_red.png","../images/org_blu.png","../images/pnk_blu.png","../images/ylw_slt.png","../images/gry_blk.png","../images/blu_wht.png","../images/ylw_pnk.png"],"mutagen_generator_assignment":[1,0],"goal":6,"start":3,"action_noise":0.1,"location_history":"[3,0,1,0,4,5,1,2,3,0,1,0,4,5,1,2,3,0,4,7,6]","action_history":"[0,0,1,1,1,1,1,0,0,0,1,1,1,1,0,0,0,1,0,0]","mutagen_history":"[1,1,0,0,0,0,0,1,1,1,0,0,0,0,1,1,1,0,1,1]","location_rts":"[957,463,297,485,624,621,1132,818,1744,1148,1000,680,679,913,665,171,713,135,1296,744]","trial_type":"fractal-mutation","trial_index":92,"time_elapsed":1612848,"internal_node_id":"0.0-5.0-38.0"},{"group":"square cycles (cube, non-group)","fractal_assignment":["../images/grn_red.png","../images/cyn_red.png","../images/org_blu.png","../images/pnk_blu.png","../images/ylw_slt.png","../images/gry_blk.png","../images/blu_wht.png","../images/ylw_pnk.png"],"mutagen_generator_assignment":[1,0],"goal":2,"start":6,"action_noise":0.1,"location_history":"[6,5,4,7,3,0,4,5,1,0,4,5,4,7,6,5,1,2]","action_history":"[0,0,0,1,1,1,1,1,1,1,1,0,0,0,0,0,0]","mutagen_history":"[1,1,1,0,0,0,0,0,0,0,0,1,1,1,1,1,1]","location_rts":"[802,978,410,1457,81,450,441,484,757,828,596,1929,461,796,614,680,680]","trial_type":"fractal-mutation","trial_index":93,"time_elapsed":1647658,"internal_node_id":"0.0-5.0-39.0"},{"group":"square cycles (cube, non-group)","fractal_assignment":["../images/grn_red.png","../images/cyn_red.png","../images/org_blu.png","../images/pnk_blu.png","../images/ylw_slt.png","../images/gry_blk.png","../images/blu_wht.png","../images/ylw_pnk.png"],"mutagen_generator_assignment":[1,0],"goal":1,"start":2,"action_noise":0.1,"location_history":"[2,3,0,1]","action_history":"[0,0,0]","mutagen_history":"[1,1,1]","location_rts":"[1056,531,458]","trial_type":"fractal-mutation","trial_index":94,"time_elapsed":1656588,"internal_node_id":"0.0-5.0-40.0"},{"group":"square cycles (cube, non-group)","fractal_assignment":["../images/grn_red.png","../images/cyn_red.png","../images/org_blu.png","../images/pnk_blu.png","../images/ylw_slt.png","../images/gry_blk.png","../images/blu_wht.png","../images/ylw_pnk.png"],"mutagen_generator_assignment":[1,0],"goal":0,"start":1,"action_noise":0.1,"location_history":"[1,2,6,7,6,5,4,7,6,7,3,2,6,7,6,5,1,0]","action_history":"[0,1,1,0,0,0,0,0,1,1,1,1,1,0,0,1,1]","mutagen_history":"[1,0,0,1,1,1,1,1,0,0,0,0,0,1,1,0,0]","location_rts":"[1574,638,266,898,438,532,574,726,543,664,732,406,534,1618,377,622,956]","trial_type":"fractal-mutation","trial_index":95,"time_elapsed":1690812,"internal_node_id":"0.0-5.0-41.0"},{"group":"square cycles (cube, non-group)","fractal_assignment":["../images/grn_red.png","../images/cyn_red.png","../images/org_blu.png","../images/pnk_blu.png","../images/ylw_slt.png","../images/gry_blk.png","../images/blu_wht.png","../images/ylw_pnk.png"],"mutagen_generator_assignment":[1,0],"goal":4,"start":0,"action_noise":0.1,"location_history":"[0,1,2,3,0,1,0,1,0,1,2,3,2,6,5,4]","action_history":"[0,0,0,0,0,1,0,0,0,0,0,1,1,0,0]","mutagen_history":"[1,1,1,1,1,0,1,1,1,1,1,0,0,1,1]","location_rts":"[870,351,408,501,491,421,1044,133,338,266,966,440,598,808,743]","trial_type":"fractal-mutation","trial_index":96,"time_elapsed":1719326,"internal_node_id":"0.0-5.0-42.0"},{"group":"square cycles (cube, non-group)","fractal_assignment":["../images/grn_red.png","../images/cyn_red.png","../images/org_blu.png","../images/pnk_blu.png","../images/ylw_slt.png","../images/gry_blk.png","../images/blu_wht.png","../images/ylw_pnk.png"],"mutagen_generator_assignment":[1,0],"goal":6,"start":4,"action_noise":0.1,"location_history":"[4,7,3,2,3,0,1,2,3,0,1,0,4,7,3,0,1,0,1,2,3,0,1,2,6]","action_history":"[0,1,1,0,0,0,0,0,0,0,1,1,0,1,0,0,0,0,0,0,0,0,0,1]","mutagen_history":"[1,0,0,1,1,1,1,1,1,1,0,0,1,0,1,1,1,1,1,1,1,1,1,0]","location_rts":"[1087,405,262,422,463,499,622,889,790,656,495,486,2469,1107,420,390,393,374,433,487,519,705,418,392]","trial_type":"fractal-mutation","trial_index":97,"time_elapsed":1764764,"internal_node_id":"0.0-5.0-43.0"},{"group":"square cycles (cube, non-group)","fractal_assignment":["../images/grn_red.png","../images/cyn_red.png","../images/org_blu.png","../images/pnk_blu.png","../images/ylw_slt.png","../images/gry_blk.png","../images/blu_wht.png","../images/ylw_pnk.png"],"mutagen_generator_assignment":[1,0],"goal":3,"start":6,"action_noise":0.1,"location_history":"[6,5,4,7,6,5,4,7,6,7,6,7,3]","action_history":"[0,0,0,0,0,0,0,0,1,0,0,0]","mutagen_history":"[1,1,1,1,1,1,1,1,0,1,1,1]","location_rts":"[888,387,2126,862,413,1637,668,590,1161,344,128,345]","trial_type":"fractal-mutation","trial_index":98,"time_elapsed":1791276,"internal_node_id":"0.0-5.0-44.0"},{"group":"square cycles (cube, non-group)","fractal_assignment":["../images/grn_red.png","../images/cyn_red.png","../images/org_blu.png","../images/pnk_blu.png","../images/ylw_slt.png","../images/gry_blk.png","../images/blu_wht.png","../images/ylw_pnk.png"],"mutagen_generator_assignment":[1,0],"goal":7,"start":3,"action_noise":0.1,"location_history":"[3,2,6,7]","action_history":"[1,1,0]","mutagen_history":"[0,0,1]","location_rts":"[1582,809,583]","trial_type":"fractal-mutation","trial_index":99,"time_elapsed":1801017,"internal_node_id":"0.0-5.0-45.0"},{"group":"square cycles (cube, non-group)","fractal_assignment":["../images/grn_red.png","../images/cyn_red.png","../images/org_blu.png","../images/pnk_blu.png","../images/ylw_slt.png","../images/gry_blk.png","../images/blu_wht.png","../images/ylw_pnk.png"],"mutagen_generator_assignment":[1,0],"goal":5,"start":7,"action_noise":0.1,"location_history":"[7,6,7,3,0,4,5]","action_history":"[0,0,0,0,1,1]","mutagen_history":"[1,1,1,1,0,0]","location_rts":"[1088,558,1091,879,410,750]","trial_type":"fractal-mutation","trial_index":100,"time_elapsed":1815932,"internal_node_id":"0.0-5.0-46.0"},{"group":"square cycles (cube, non-group)","fractal_assignment":["../images/grn_red.png","../images/cyn_red.png","../images/org_blu.png","../images/pnk_blu.png","../images/ylw_slt.png","../images/gry_blk.png","../images/blu_wht.png","../images/ylw_pnk.png"],"mutagen_generator_assignment":[1,0],"goal":1,"start":5,"action_noise":0.1,"location_history":"[5,1]","action_history":"[0]","mutagen_history":"[1]","location_rts":"[667]","trial_type":"fractal-mutation","trial_index":101,"time_elapsed":1821238,"internal_node_id":"0.0-5.0-47.0"},{"group":"square cycles (cube, non-group)","fractal_assignment":["../images/grn_red.png","../images/cyn_red.png","../images/org_blu.png","../images/pnk_blu.png","../images/ylw_slt.png","../images/gry_blk.png","../images/blu_wht.png","../images/ylw_pnk.png"],"mutagen_generator_assignment":[1,0],"goal":6,"start":1,"action_noise":0.1,"location_history":"[1,2,6]","action_history":"[0,1]","mutagen_history":"[1,0]","location_rts":"[1127,668]","trial_type":"fractal-mutation","trial_index":102,"time_elapsed":1828736,"internal_node_id":"0.0-5.0-48.0"},{"group":"square cycles (cube, non-group)","fractal_assignment":["../images/grn_red.png","../images/cyn_red.png","../images/org_blu.png","../images/pnk_blu.png","../images/ylw_slt.png","../images/gry_blk.png","../images/blu_wht.png","../images/ylw_pnk.png"],"mutagen_generator_assignment":[1,0],"goal":0,"start":6,"action_noise":0.1,"location_history":"[6,5,4,7,6,5,4,7,3,2,3,0]","action_history":"[0,0,0,0,0,0,0,1,1,0,0]","mutagen_history":"[1,1,1,1,1,1,1,0,0,1,1]","location_rts":"[938,451,506,854,569,526,541,365,1288,737,256]","trial_type":"fractal-mutation","trial_index":103,"time_elapsed":1851586,"internal_node_id":"0.0-5.0-49.0"},{"view_history":"[{\"page_index\":0,\"viewing_time\":5254}]","rt":5254,"trial_type":"instructions","trial_index":104,"time_elapsed":1857841,"internal_node_id":"0.0-6.0"},{"rt":2061,"responses":"{\"Q0\":\"\"}","trial_type":"survey-text","trial_index":105,"time_elapsed":1860908,"internal_node_id":"0.0-7.0"}]