[{"view_history":"[{\"page_index\":0,\"viewing_time\":1324339},{\"page_index\":1,\"viewing_time\":9333}]","rt":1333673,"trial_type":"instructions","trial_index":0,"time_elapsed":1333676,"internal_node_id":"0.0-0.0"},{"view_history":"[{\"page_index\":0,\"viewing_time\":7053},{\"page_index\":1,\"viewing_time\":4153}]","rt":11206,"trial_type":"instructions","trial_index":1,"time_elapsed":1345883,"internal_node_id":"0.0-1.0"},{"group":"tri cycles (cube, non-group)","room_assignment":["yellow","blue","red","pink","brown","grey","green","purple"],"door_color_assignment":["white","black"],"door_generator_assignment":[1,0],"goal":6,"start":3,"action_noise":0.1,"location_history":"[3,7,6]","action_history":"[0,0]","door_history":"[1,1]","location_rts":"[13453,1746]","trial_type":"two-door-navigation","trial_index":2,"time_elapsed":1366630,"internal_node_id":"0.0-2.0-0.0"},{"group":"tri cycles (cube, non-group)","room_assignment":["yellow","blue","red","pink","brown","grey","green","purple"],"door_color_assignment":["white","black"],"door_generator_assignment":[1,0],"goal":1,"start":6,"action_noise":0.1,"location_history":"[6,4,7,6,5,1]","action_history":"[1,0,0,1,0]","door_history":"[0,1,1,0,1]","location_rts":"[37148,13035,7449,6300,5631]","trial_type":"two-door-navigation","trial_index":3,"time_elapsed":1444727,"internal_node_id":"0.0-2.0-1.0"},{"group":"tri cycles (cube, non-group)","room_assignment":["yellow","blue","red","pink","brown","grey","green","purple"],"door_color_assignment":["white","black"],"door_generator_assignment":[1,0],"goal":2,"start":1,"action_noise":0.1,"location_history":"[1,0,2]","action_history":"[0,0]","door_history":"[1,1]","location_rts":"[10037,796]","trial_type":"two-door-navigation","trial_index":4,"time_elapsed":1461077,"internal_node_id":"0.0-2.0-2.0"},{"group":"tri cycles (cube, non-group)","room_assignment":["yellow","blue","red","pink","brown","grey","green","purple"],"door_color_assignment":["white","black"],"door_generator_assignment":[1,0],"goal":0,"start":2,"action_noise":0.1,"location_history":"[2,6,5,2,6,5,1,0]","action_history":"[1,1,1,1,0,0,0]","door_history":"[0,0,0,0,1,1,1]","location_rts":"[14430,19882,24796,9712,5366,11365,693]","trial_type":"two-door-navigation","trial_index":5,"time_elapsed":1557870,"internal_node_id":"0.0-2.0-3.0"},{"group":"tri cycles (cube, non-group)","room_assignment":["yellow","blue","red","pink","brown","grey","green","purple"],"door_color_assignment":["white","black"],"door_generator_assignment":[1,0],"goal":7,"start":0,"action_noise":0.1,"location_history":"[0,2,6,5,2,6,5,1,5,2,1,0,3,7]","action_history":"[0,0,1,1,1,0,0,1,1,1,0,1,0]","door_history":"[1,1,0,0,0,1,1,0,0,0,1,0,1]","location_rts":"[17486,7758,2984,20986,45312,4504,30735,22836,3520,4009,22742,5095,7205]","trial_type":"two-door-navigation","trial_index":6,"time_elapsed":1769633,"internal_node_id":"0.0-2.0-4.0"},{"group":"tri cycles (cube, non-group)","room_assignment":["yellow","blue","red","pink","brown","grey","green","purple"],"door_color_assignment":["white","black"],"door_generator_assignment":[1,0],"goal":5,"start":7,"action_noise":0.1,"location_history":"[7,6,5]","action_history":"[0,1]","door_history":"[1,0]","location_rts":"[29290,3019]","trial_type":"two-door-navigation","trial_index":7,"time_elapsed":1807453,"internal_node_id":"0.0-2.0-5.0"},{"group":"tri cycles (cube, non-group)","room_assignment":["yellow","blue","red","pink","brown","grey","green","purple"],"door_color_assignment":["white","black"],"door_generator_assignment":[1,0],"goal":4,"start":5,"action_noise":0.1,"location_history":"[5,2,6,4]","action_history":"[1,1,0]","door_history":"[0,0,1]","location_rts":"[32374,7134,3200]","trial_type":"two-door-navigation","trial_index":8,"time_elapsed":1856675,"internal_node_id":"0.0-2.0-6.0"},{"group":"tri cycles (cube, non-group)","room_assignment":["yellow","blue","red","pink","brown","grey","green","purple"],"door_color_assignment":["white","black"],"door_generator_assignment":[1,0],"goal":2,"start":4,"action_noise":0.1,"location_history":"[4,0,2]","action_history":"[1,0]","door_history":"[0,1]","location_rts":"[22408,2692]","trial_type":"two-door-navigation","trial_index":9,"time_elapsed":1887295,"internal_node_id":"0.0-2.0-7.0"},{"group":"tri cycles (cube, non-group)","room_assignment":["yellow","blue","red","pink","brown","grey","green","purple"],"door_color_assignment":["white","black"],"door_generator_assignment":[1,0],"goal":3,"start":2,"action_noise":0.1,"location_history":"[2,1,0,3]","action_history":"[0,0,1]","door_history":"[1,1,0]","location_rts":"[43812,4977,1016]","trial_type":"two-door-navigation","trial_index":10,"time_elapsed":1943631,"internal_node_id":"0.0-2.0-8.0"},{"group":"tri cycles (cube, non-group)","room_assignment":["yellow","blue","red","pink","brown","grey","green","purple"],"door_color_assignment":["white","black"],"door_generator_assignment":[1,0],"goal":7,"start":3,"action_noise":0.1,"location_history":"[3,7]","action_history":"[0]","door_history":"[1]","location_rts":"[7994]","trial_type":"two-door-navigation","trial_index":11,"time_elapsed":1956152,"internal_node_id":"0.0-2.0-9.0"},{"group":"tri cycles (cube, non-group)","room_assignment":["yellow","blue","red","pink","brown","grey","green","purple"],"door_color_assignment":["white","black"],"door_generator_assignment":[1,0],"goal":0,"start":7,"action_noise":0.1,"location_history":"[7,3,4,0]","action_history":"[1,1,1]","door_history":"[0,0,0]","location_rts":"[16731,5337,3331]","trial_type":"two-door-navigation","trial_index":12,"time_elapsed":1988078,"internal_node_id":"0.0-2.0-10.0"},{"group":"tri cycles (cube, non-group)","room_assignment":["yellow","blue","red","pink","brown","grey","green","purple"],"door_color_assignment":["white","black"],"door_generator_assignment":[1,0],"goal":1,"start":0,"action_noise":0.1,"location_history":"[0,2,1]","action_history":"[0,0]","door_history":"[1,1]","location_rts":"[6339,7968]","trial_type":"two-door-navigation","trial_index":13,"time_elapsed":2007908,"internal_node_id":"0.0-2.0-11.0"},{"group":"tri cycles (cube, non-group)","room_assignment":["yellow","blue","red","pink","brown","grey","green","purple"],"door_color_assignment":["white","black"],"door_generator_assignment":[1,0],"goal":6,"start":1,"action_noise":0.1,"location_history":"[1,0,3,7,3,7,6]","action_history":"[1,0,0,1,0,0]","door_history":"[0,1,1,0,1,1]","location_rts":"[28437,16465,7513,8743,5754,789]","trial_type":"two-door-navigation","trial_index":14,"time_elapsed":2085167,"internal_node_id":"0.0-2.0-12.0"},{"group":"tri cycles (cube, non-group)","room_assignment":["yellow","blue","red","pink","brown","grey","green","purple"],"door_color_assignment":["white","black"],"door_generator_assignment":[1,0],"goal":4,"start":6,"action_noise":0.1,"location_history":"[6,5,2,6,4]","action_history":"[0,1,1,0]","door_history":"[1,0,0,1]","location_rts":"[4885,26259,8450,935]","trial_type":"two-door-navigation","trial_index":15,"time_elapsed":2133225,"internal_node_id":"0.0-2.0-13.0"},{"group":"tri cycles (cube, non-group)","room_assignment":["yellow","blue","red","pink","brown","grey","green","purple"],"door_color_assignment":["white","black"],"door_generator_assignment":[1,0],"goal":5,"start":4,"action_noise":0.1,"location_history":"[4,7,3,4,7,3,7,6,5]","action_history":"[0,1,1,0,1,0,0,1]","door_history":"[1,0,0,1,0,1,1,0]","location_rts":"[33543,14627,6813,12964,3298,5512,6905,6357]","trial_type":"two-door-navigation","trial_index":16,"time_elapsed":2234781,"internal_node_id":"0.0-2.0-14.0"},{"group":"tri cycles (cube, non-group)","room_assignment":["yellow","blue","red","pink","brown","grey","green","purple"],"door_color_assignment":["white","black"],"door_generator_assignment":[1,0],"goal":4,"start":5,"action_noise":0.1,"location_history":"[5,2,6,4]","action_history":"[1,1,0]","door_history":"[0,0,1]","location_rts":"[27902,4121,3810]","trial_type":"two-door-navigation","trial_index":17,"time_elapsed":2277138,"internal_node_id":"0.0-2.0-15.0"},{"group":"tri cycles (cube, non-group)","room_assignment":["yellow","blue","red","pink","brown","grey","green","purple"],"door_color_assignment":["white","black"],"door_generator_assignment":[1,0],"goal":0,"start":4,"action_noise":0.1,"location_history":"[4,0]","action_history":"[1]","door_history":"[0]","location_rts":"[6042]","trial_type":"two-door-navigation","trial_index":18,"time_elapsed":2287689,"internal_node_id":"0.0-2.0-16.0"},{"group":"tri cycles (cube, non-group)","room_assignment":["yellow","blue","red","pink","brown","grey","green","purple"],"door_color_assignment":["white","black"],"door_generator_assignment":[1,0],"goal":7,"start":0,"action_noise":0.1,"location_history":"[0,3,7]","action_history":"[1,0]","door_history":"[0,1]","location_rts":"[10154,10109]","trial_type":"two-door-navigation","trial_index":19,"time_elapsed":2313487,"internal_node_id":"0.0-2.0-17.0"},{"group":"tri cycles (cube, non-group)","room_assignment":["yellow","blue","red","pink","brown","grey","green","purple"],"door_color_assignment":["white","black"],"door_generator_assignment":[1,0],"goal":2,"start":7,"action_noise":0.1,"location_history":"[7,3,4,0,2]","action_history":"[1,0,1,0]","door_history":"[0,1,0,1]","location_rts":"[39292,8983,29060,4269]","trial_type":"two-door-navigation","trial_index":20,"time_elapsed":2402631,"internal_node_id":"0.0-2.0-18.0"},{"group":"tri cycles (cube, non-group)","room_assignment":["yellow","blue","red","pink","brown","grey","green","purple"],"door_color_assignment":["white","black"],"door_generator_assignment":[1,0],"goal":1,"start":2,"action_noise":0.1,"location_history":"[2,1]","action_history":"[0]","door_history":"[1]","location_rts":"[32380]","trial_type":"two-door-navigation","trial_index":21,"time_elapsed":2439520,"internal_node_id":"0.0-2.0-19.0"},{"group":"tri cycles (cube, non-group)","room_assignment":["yellow","blue","red","pink","brown","grey","green","purple"],"door_color_assignment":["white","black"],"door_generator_assignment":[1,0],"goal":3,"start":1,"action_noise":0.1,"location_history":"[1,0,3]","action_history":"[0,1]","door_history":"[1,0]","location_rts":"[4602,1121]","trial_type":"two-door-navigation","trial_index":22,"time_elapsed":2450760,"internal_node_id":"0.0-2.0-20.0"},{"group":"tri cycles (cube, non-group)","room_assignment":["yellow","blue","red","pink","brown","grey","green","purple"],"door_color_assignment":["white","black"],"door_generator_assignment":[1,0],"goal":6,"start":3,"action_noise":0.1,"location_history":"[3,4,7,6]","action_history":"[0,0,0]","door_history":"[1,1,1]","location_rts":"[7492,7298,1840]","trial_type":"two-door-navigation","trial_index":23,"time_elapsed":2473929,"internal_node_id":"0.0-2.0-21.0"},{"group":"tri cycles (cube, non-group)","room_assignment":["yellow","blue","red","pink","brown","grey","green","purple"],"door_color_assignment":["white","black"],"door_generator_assignment":[1,0],"goal":5,"start":6,"action_noise":0.1,"location_history":"[6,5]","action_history":"[1]","door_history":"[0]","location_rts":"[5253]","trial_type":"two-door-navigation","trial_index":24,"time_elapsed":2483688,"internal_node_id":"0.0-2.0-22.0"},{"group":"tri cycles (cube, non-group)","room_assignment":["yellow","blue","red","pink","brown","grey","green","purple"],"door_color_assignment":["white","black"],"door_generator_assignment":[1,0],"goal":3,"start":5,"action_noise":0.1,"location_history":"[5,1,0,2,6,4,0,3]","action_history":"[0,0,1,1,0,1,1]","door_history":"[1,1,0,0,1,0,0]","location_rts":"[16252,1664,2976,7977,13316,4366,665]","trial_type":"two-door-navigation","trial_index":25,"time_elapsed":2541458,"internal_node_id":"0.0-2.0-23.0"},{"group":"tri cycles (cube, non-group)","room_assignment":["yellow","blue","red","pink","brown","grey","green","purple"],"door_color_assignment":["white","black"],"door_generator_assignment":[1,0],"goal":0,"start":3,"action_noise":0.1,"location_history":"[3,4,0]","action_history":"[1,1]","door_history":"[0,0]","location_rts":"[9024,2985]","trial_type":"two-door-navigation","trial_index":26,"time_elapsed":2558994,"internal_node_id":"0.0-2.0-24.0"},{"group":"tri cycles (cube, non-group)","room_assignment":["yellow","blue","red","pink","brown","grey","green","purple"],"door_color_assignment":["white","black"],"door_generator_assignment":[1,0],"goal":7,"start":0,"action_noise":0.1,"location_history":"[0,3,4,7]","action_history":"[1,1,0]","door_history":"[0,0,1]","location_rts":"[20760,11119,671]","trial_type":"two-door-navigation","trial_index":27,"time_elapsed":2598070,"internal_node_id":"0.0-2.0-25.0"},{"group":"tri cycles (cube, non-group)","room_assignment":["yellow","blue","red","pink","brown","grey","green","purple"],"door_color_assignment":["white","black"],"door_generator_assignment":[1,0],"goal":2,"start":7,"action_noise":0.1,"location_history":"[7,3,4,0,3,4,7,6,4,0,2]","action_history":"[1,1,1,0,0,0,0,0,1,0]","door_history":"[0,0,0,1,1,1,1,1,0,1]","location_rts":"[41327,3453,2426,1062,17156,10219,2010,2634,9533,1119]","trial_type":"two-door-navigation","trial_index":28,"time_elapsed":2702577,"internal_node_id":"0.0-2.0-26.0"},{"group":"tri cycles (cube, non-group)","room_assignment":["yellow","blue","red","pink","brown","grey","green","purple"],"door_color_assignment":["white","black"],"door_generator_assignment":[1,0],"goal":1,"start":2,"action_noise":0.1,"location_history":"[2,1]","action_history":"[0]","door_history":"[1]","location_rts":"[39538]","trial_type":"two-door-navigation","trial_index":29,"time_elapsed":2746626,"internal_node_id":"0.0-2.0-27.0"},{"group":"tri cycles (cube, non-group)","room_assignment":["yellow","blue","red","pink","brown","grey","green","purple"],"door_color_assignment":["white","black"],"door_generator_assignment":[1,0],"goal":5,"start":1,"action_noise":0.1,"location_history":"[1,0,2,6,5]","action_history":"[0,0,1,1]","door_history":"[1,1,0,0]","location_rts":"[19456,5664,10886,9877]","trial_type":"two-door-navigation","trial_index":30,"time_elapsed":2800042,"internal_node_id":"0.0-2.0-28.0"},{"group":"tri cycles (cube, non-group)","room_assignment":["yellow","blue","red","pink","brown","grey","green","purple"],"door_color_assignment":["white","black"],"door_generator_assignment":[1,0],"goal":4,"start":5,"action_noise":0.1,"location_history":"[5,2,6,4]","action_history":"[1,1,0]","door_history":"[0,0,1]","location_rts":"[48194,4510,5929]","trial_type":"two-door-navigation","trial_index":31,"time_elapsed":2865215,"internal_node_id":"0.0-2.0-29.0"},{"group":"tri cycles (cube, non-group)","room_assignment":["yellow","blue","red","pink","brown","grey","green","purple"],"door_color_assignment":["white","black"],"door_generator_assignment":[1,0],"goal":6,"start":4,"action_noise":0.1,"location_history":"[4,7,6]","action_history":"[0,0]","door_history":"[1,1]","location_rts":"[12707,2308]","trial_type":"two-door-navigation","trial_index":32,"time_elapsed":2885740,"internal_node_id":"0.0-2.0-30.0"},{"group":"tri cycles (cube, non-group)","room_assignment":["yellow","blue","red","pink","brown","grey","green","purple"],"door_color_assignment":["white","black"],"door_generator_assignment":[1,0],"goal":4,"start":6,"action_noise":0.1,"location_history":"[6,4]","action_history":"[0]","door_history":"[1]","location_rts":"[8958]","trial_type":"two-door-navigation","trial_index":33,"time_elapsed":2899208,"internal_node_id":"0.0-2.0-31.0"},{"group":"tri cycles (cube, non-group)","room_assignment":["yellow","blue","red","pink","brown","grey","green","purple"],"door_color_assignment":["white","black"],"door_generator_assignment":[1,0],"goal":2,"start":4,"action_noise":0.1,"location_history":"[4,0,2]","action_history":"[1,0]","door_history":"[0,1]","location_rts":"[5479,1129]","trial_type":"two-door-navigation","trial_index":34,"time_elapsed":2911351,"internal_node_id":"0.0-2.0-32.0"},{"group":"tri cycles (cube, non-group)","room_assignment":["yellow","blue","red","pink","brown","grey","green","purple"],"door_color_assignment":["white","black"],"door_generator_assignment":[1,0],"goal":0,"start":2,"action_noise":0.1,"location_history":"[2,6,5,1,0]","action_history":"[1,1,0,0]","door_history":"[0,0,1,1]","location_rts":"[30115,31940,23891,8033]","trial_type":"two-door-navigation","trial_index":35,"time_elapsed":3012869,"internal_node_id":"0.0-2.0-33.0"},{"group":"tri cycles (cube, non-group)","room_assignment":["yellow","blue","red","pink","brown","grey","green","purple"],"door_color_assignment":["white","black"],"door_generator_assignment":[1,0],"goal":5,"start":0,"action_noise":0.1,"location_history":"[0,2,1,0,3,4,7,6,4,7,3,4,0,3,7,6,5]","action_history":"[1,0,0,1,1,0,0,0,0,1,1,1,1,0,0,1]","door_history":"[0,1,1,0,0,1,1,1,1,0,0,0,0,1,1,0]","location_rts":"[40526,5301,2986,24516,17298,17546,4463,2182,6335,1773,854,1040,802,794,572,715]","trial_type":"two-door-navigation","trial_index":36,"time_elapsed":3160188,"internal_node_id":"0.0-2.0-34.0"},{"group":"tri cycles (cube, non-group)","room_assignment":["yellow","blue","red","pink","brown","grey","green","purple"],"door_color_assignment":["white","black"],"door_generator_assignment":[1,0],"goal":1,"start":5,"action_noise":0.1,"location_history":"[5,1]","action_history":"[0]","door_history":"[1]","location_rts":"[16639]","trial_type":"two-door-navigation","trial_index":37,"time_elapsed":3181356,"internal_node_id":"0.0-2.0-35.0"},{"group":"tri cycles (cube, non-group)","room_assignment":["yellow","blue","red","pink","brown","grey","green","purple"],"door_color_assignment":["white","black"],"door_generator_assignment":[1,0],"goal":7,"start":1,"action_noise":0.1,"location_history":"[1,5,2,1,5,1,5,1,5,1,5,2,6,4,7]","action_history":"[1,1,0,1,0,1,1,0,0,1,0,1,0,0]","door_history":"[0,0,1,0,1,0,0,1,1,0,1,0,1,1]","location_rts":"[13533,6431,14910,14452,6745,3659,2682,1273,1050,773,492,491,419,646]","trial_type":"two-door-navigation","trial_index":38,"time_elapsed":3266523,"internal_node_id":"0.0-2.0-36.0"},{"group":"tri cycles (cube, non-group)","room_assignment":["yellow","blue","red","pink","brown","grey","green","purple"],"door_color_assignment":["white","black"],"door_generator_assignment":[1,0],"goal":3,"start":7,"action_noise":0.1,"location_history":"[7,3]","action_history":"[1]","door_history":"[0]","location_rts":"[6337]","trial_type":"two-door-navigation","trial_index":39,"time_elapsed":3277379,"internal_node_id":"0.0-2.0-37.0"},{"group":"tri cycles (cube, non-group)","room_assignment":["yellow","blue","red","pink","brown","grey","green","purple"],"door_color_assignment":["white","black"],"door_generator_assignment":[1,0],"goal":6,"start":3,"action_noise":0.1,"location_history":"[3,7,3,7,3,7,6]","action_history":"[0,0,0,1,0,0]","door_history":"[1,1,1,0,1,1]","location_rts":"[16483,2358,5305,520,2884,1658]","trial_type":"two-door-navigation","trial_index":40,"time_elapsed":3316131,"internal_node_id":"0.0-2.0-38.0"},{"group":"tri cycles (cube, non-group)","room_assignment":["yellow","blue","red","pink","brown","grey","green","purple"],"door_color_assignment":["white","black"],"door_generator_assignment":[1,0],"goal":2,"start":6,"action_noise":0.1,"location_history":"[6,5,2]","action_history":"[1,1]","door_history":"[0,0]","location_rts":"[7048,2288]","trial_type":"two-door-navigation","trial_index":41,"time_elapsed":3330986,"internal_node_id":"0.0-2.0-39.0"},{"group":"tri cycles (cube, non-group)","room_assignment":["yellow","blue","red","pink","brown","grey","green","purple"],"door_color_assignment":["white","black"],"door_generator_assignment":[1,0],"goal":1,"start":2,"action_noise":0.1,"location_history":"[2,1]","action_history":"[0]","door_history":"[1]","location_rts":"[5283]","trial_type":"two-door-navigation","trial_index":42,"time_elapsed":3340775,"internal_node_id":"0.0-2.0-40.0"},{"group":"tri cycles (cube, non-group)","room_assignment":["yellow","blue","red","pink","brown","grey","green","purple"],"door_color_assignment":["white","black"],"door_generator_assignment":[1,0],"goal":0,"start":1,"action_noise":0.1,"location_history":"[1,0]","action_history":"[0]","door_history":"[1]","location_rts":"[4652]","trial_type":"two-door-navigation","trial_index":43,"time_elapsed":3349935,"internal_node_id":"0.0-2.0-41.0"},{"group":"tri cycles (cube, non-group)","room_assignment":["yellow","blue","red","pink","brown","grey","green","purple"],"door_color_assignment":["white","black"],"door_generator_assignment":[1,0],"goal":4,"start":0,"action_noise":0.1,"location_history":"[0,2,6,4]","action_history":"[0,1,0]","door_history":"[1,0,1]","location_rts":"[10683,3430,2683]","trial_type":"two-door-navigation","trial_index":44,"time_elapsed":3373282,"internal_node_id":"0.0-2.0-42.0"},{"group":"tri cycles (cube, non-group)","room_assignment":["yellow","blue","red","pink","brown","grey","green","purple"],"door_color_assignment":["white","black"],"door_generator_assignment":[1,0],"goal":6,"start":4,"action_noise":0.1,"location_history":"[4,7,6]","action_history":"[0,0]","door_history":"[1,1]","location_rts":"[9753,5867]","trial_type":"two-door-navigation","trial_index":45,"time_elapsed":3394423,"internal_node_id":"0.0-2.0-43.0"},{"group":"tri cycles (cube, non-group)","room_assignment":["yellow","blue","red","pink","brown","grey","green","purple"],"door_color_assignment":["white","black"],"door_generator_assignment":[1,0],"goal":3,"start":6,"action_noise":0.1,"location_history":"[6,5,1,0,2,6,4,7,3]","action_history":"[1,1,0,0,1,0,0,1]","door_history":"[0,0,1,1,0,1,1,0]","location_rts":"[12438,829,877,620,1760,1096,751,980]","trial_type":"two-door-navigation","trial_index":46,"time_elapsed":3425352,"internal_node_id":"0.0-2.0-44.0"},{"group":"tri cycles (cube, non-group)","room_assignment":["yellow","blue","red","pink","brown","grey","green","purple"],"door_color_assignment":["white","black"],"door_generator_assignment":[1,0],"goal":7,"start":3,"action_noise":0.1,"location_history":"[3,7]","action_history":"[0]","door_history":"[1]","location_rts":"[4058]","trial_type":"two-door-navigation","trial_index":47,"time_elapsed":3433921,"internal_node_id":"0.0-2.0-45.0"},{"group":"tri cycles (cube, non-group)","room_assignment":["yellow","blue","red","pink","brown","grey","green","purple"],"door_color_assignment":["white","black"],"door_generator_assignment":[1,0],"goal":5,"start":7,"action_noise":0.1,"location_history":"[7,3,4,0,2,6,5]","action_history":"[1,1,1,0,1,1]","door_history":"[0,0,0,1,0,0]","location_rts":"[3993,795,8997,5419,14731,2641]","trial_type":"two-door-navigation","trial_index":48,"time_elapsed":3480039,"internal_node_id":"0.0-2.0-46.0"},{"group":"tri cycles (cube, non-group)","room_assignment":["yellow","blue","red","pink","brown","grey","green","purple"],"door_color_assignment":["white","black"],"door_generator_assignment":[1,0],"goal":1,"start":5,"action_noise":0.1,"location_history":"[5,2,6,4,7,3,4,7,3,4,0,2,1]","action_history":"[1,1,0,0,1,1,0,1,1,1,0,0]","door_history":"[0,0,1,1,0,0,1,0,0,0,1,1]","location_rts":"[7443,946,674,621,1369,867,547,853,661,633,533,2765]","trial_type":"two-door-navigation","trial_index":49,"time_elapsed":3513546,"internal_node_id":"0.0-2.0-47.0"},{"group":"tri cycles (cube, non-group)","room_assignment":["yellow","blue","red","pink","brown","grey","green","purple"],"door_color_assignment":["white","black"],"door_generator_assignment":[1,0],"goal":6,"start":1,"action_noise":0.1,"location_history":"[1,5,1,0,3,4,7,3,7,6]","action_history":"[0,0,0,1,1,0,1,0,0]","door_history":"[1,1,1,0,0,1,0,1,1]","location_rts":"[20819,11105,7738,1170,744,365,1168,530,3206]","trial_type":"two-door-navigation","trial_index":50,"time_elapsed":3572957,"internal_node_id":"0.0-2.0-48.0"},{"group":"tri cycles (cube, non-group)","room_assignment":["yellow","blue","red","pink","brown","grey","green","purple"],"door_color_assignment":["white","black"],"door_generator_assignment":[1,0],"goal":0,"start":6,"action_noise":0.1,"location_history":"[6,4,7,6,4,0]","action_history":"[0,1,0,0,1]","door_history":"[1,0,1,1,0]","location_rts":"[11120,595,767,442,440]","trial_type":"two-door-navigation","trial_index":51,"time_elapsed":3594875,"internal_node_id":"0.0-2.0-49.0"},{"view_history":"[{\"page_index\":0,\"viewing_time\":2221}]","rt":2221,"trial_type":"instructions","trial_index":52,"time_elapsed":3598098,"internal_node_id":"0.0-3.0"},{"view_history":"[{\"page_index\":0,\"viewing_time\":1999},{\"page_index\":1,\"viewing_time\":6663}]","rt":8663,"trial_type":"instructions","trial_index":53,"time_elapsed":3607762,"internal_node_id":"0.0-4.0"},{"group":"square cycles (cube, non-group)","fractal_assignment":["../images/org_blu.png","../images/gry_blk.png","../images/ylw_pnk.png","../images/grn_red.png","../images/blu_wht.png","../images/cyn_red.png","../images/pnk_blu.png","../images/ylw_slt.png"],"mutagen_generator_assignment":[0,1],"goal":6,"start":3,"action_noise":0.1,"location_history":"[3,2,6]","action_history":"[1,0]","mutagen_history":"[1,0]","location_rts":"[10898,790]","trial_type":"fractal-mutation","trial_index":54,"time_elapsed":3625168,"internal_node_id":"0.0-5.0-0.0"},{"group":"square cycles (cube, non-group)","fractal_assignment":["../images/org_blu.png","../images/gry_blk.png","../images/ylw_pnk.png","../images/grn_red.png","../images/blu_wht.png","../images/cyn_red.png","../images/pnk_blu.png","../images/ylw_slt.png"],"mutagen_generator_assignment":[0,1],"goal":1,"start":6,"action_noise":0.1,"location_history":"[6,5,4,7,3,0,4,7,6,5,4,5,1]","action_history":"[0,0,0,1,0,0,0,0,0,0,1,1]","mutagen_history":"[0,0,0,1,0,0,0,0,0,0,1,1]","location_rts":"[2589,793,1003,551,621,410,730,715,814,817,522,422]","trial_type":"fractal-mutation","trial_index":55,"time_elapsed":3651679,"internal_node_id":"0.0-5.0-1.0"},{"group":"square cycles (cube, non-group)","fractal_assignment":["../images/org_blu.png","../images/gry_blk.png","../images/ylw_pnk.png","../images/grn_red.png","../images/blu_wht.png","../images/cyn_red.png","../images/pnk_blu.png","../images/ylw_slt.png"],"mutagen_generator_assignment":[0,1],"goal":2,"start":1,"action_noise":0.1,"location_history":"[1,2]","action_history":"[0]","mutagen_history":"[0]","location_rts":"[2597]","trial_type":"fractal-mutation","trial_index":56,"time_elapsed":3658852,"internal_node_id":"0.0-5.0-2.0"},{"group":"square cycles (cube, non-group)","fractal_assignment":["../images/org_blu.png","../images/gry_blk.png","../images/ylw_pnk.png","../images/grn_red.png","../images/blu_wht.png","../images/cyn_red.png","../images/pnk_blu.png","../images/ylw_slt.png"],"mutagen_generator_assignment":[0,1],"goal":0,"start":2,"action_noise":0.1,"location_history":"[2,3,2,3,0]","action_history":"[0,1,1,0]","mutagen_history":"[0,1,1,0]","location_rts":"[2857,784,834,1065]","trial_type":"fractal-mutation","trial_index":57,"time_elapsed":3672297,"internal_node_id":"0.0-5.0-3.0"},{"group":"square cycles (cube, non-group)","fractal_assignment":["../images/org_blu.png","../images/gry_blk.png","../images/ylw_pnk.png","../images/grn_red.png","../images/blu_wht.png","../images/cyn_red.png","../images/pnk_blu.png","../images/ylw_slt.png"],"mutagen_generator_assignment":[0,1],"goal":7,"start":0,"action_noise":0.1,"location_history":"[0,1,0,4,7]","action_history":"[0,1,1,0]","mutagen_history":"[0,1,1,0]","location_rts":"[3349,956,786,720]","trial_type":"fractal-mutation","trial_index":58,"time_elapsed":3685984,"internal_node_id":"0.0-5.0-4.0"},{"group":"square cycles (cube, non-group)","fractal_assignment":["../images/org_blu.png","../images/gry_blk.png","../images/ylw_pnk.png","../images/grn_red.png","../images/blu_wht.png","../images/cyn_red.png","../images/pnk_blu.png","../images/ylw_slt.png"],"mutagen_generator_assignment":[0,1],"goal":5,"start":7,"action_noise":0.1,"location_history":"[7,3,2,6,7,3,0,1,0,1,2,3,0,4,7,3,2,3,2,3,0,4,5]","action_history":"[1,1,1,1,1,0,0,1,1,0,1,0,1,1,1,1,0,1,0,0,1,0]","mutagen_history":"[1,1,1,1,1,0,0,1,1,0,1,0,1,1,1,1,0,1,0,0,1,0]","location_rts":"[3102,775,529,1073,724,733,1243,500,469,560,454,490,382,364,477,1104,752,482,477,448,519,576]","trial_type":"fractal-mutation","trial_index":59,"time_elapsed":3729972,"internal_node_id":"0.0-5.0-5.0"},{"group":"square cycles (cube, non-group)","fractal_assignment":["../images/org_blu.png","../images/gry_blk.png","../images/ylw_pnk.png","../images/grn_red.png","../images/blu_wht.png","../images/cyn_red.png","../images/pnk_blu.png","../images/ylw_slt.png"],"mutagen_generator_assignment":[0,1],"goal":4,"start":5,"action_noise":0.1,"location_history":"[5,4]","action_history":"[0]","mutagen_history":"[0]","location_rts":"[2055]","trial_type":"fractal-mutation","trial_index":60,"time_elapsed":3736599,"internal_node_id":"0.0-5.0-6.0"},{"group":"square cycles (cube, non-group)","fractal_assignment":["../images/org_blu.png","../images/gry_blk.png","../images/ylw_pnk.png","../images/grn_red.png","../images/blu_wht.png","../images/cyn_red.png","../images/pnk_blu.png","../images/ylw_slt.png"],"mutagen_generator_assignment":[0,1],"goal":2,"start":4,"action_noise":0.1,"location_history":"[4,7,6,5,4,7,3,2]","action_history":"[0,0,0,0,0,1,1]","mutagen_history":"[0,0,0,0,0,1,1]","location_rts":"[2005,1124,729,591,609,700,556]","trial_type":"fractal-mutation","trial_index":61,"time_elapsed":3753945,"internal_node_id":"0.0-5.0-7.0"},{"group":"square cycles (cube, non-group)","fractal_assignment":["../images/org_blu.png","../images/gry_blk.png","../images/ylw_pnk.png","../images/grn_red.png","../images/blu_wht.png","../images/cyn_red.png","../images/pnk_blu.png","../images/ylw_slt.png"],"mutagen_generator_assignment":[0,1],"goal":3,"start":2,"action_noise":0.1,"location_history":"[2,3]","action_history":"[0]","mutagen_history":"[0]","location_rts":"[1588]","trial_type":"fractal-mutation","trial_index":62,"time_elapsed":3760114,"internal_node_id":"0.0-5.0-8.0"},{"group":"square cycles (cube, non-group)","fractal_assignment":["../images/org_blu.png","../images/gry_blk.png","../images/ylw_pnk.png","../images/grn_red.png","../images/blu_wht.png","../images/cyn_red.png","../images/pnk_blu.png","../images/ylw_slt.png"],"mutagen_generator_assignment":[0,1],"goal":7,"start":3,"action_noise":0.1,"location_history":"[3,2,3,0,4,5,4,5,1,2,6,7]","action_history":"[1,0,0,1,0,0,1,1,0,1,1]","mutagen_history":"[1,0,0,1,0,0,1,1,0,1,1]","location_rts":"[2562,739,645,1083,562,467,547,425,939,601,878]","trial_type":"fractal-mutation","trial_index":63,"time_elapsed":3785116,"internal_node_id":"0.0-5.0-9.0"},{"group":"square cycles (cube, non-group)","fractal_assignment":["../images/org_blu.png","../images/gry_blk.png","../images/ylw_pnk.png","../images/grn_red.png","../images/blu_wht.png","../images/cyn_red.png","../images/pnk_blu.png","../images/ylw_slt.png"],"mutagen_generator_assignment":[0,1],"goal":0,"start":7,"action_noise":0.1,"location_history":"[7,3,2,6,5,1,2,3,2,6,5,1,0]","action_history":"[0,1,1,0,1,0,0,1,1,0,1,1]","mutagen_history":"[0,1,1,0,1,0,0,1,1,0,1,1]","location_rts":"[792,856,687,608,529,757,811,605,696,557,564,728]","trial_type":"fractal-mutation","trial_index":64,"time_elapsed":3809936,"internal_node_id":"0.0-5.0-10.0"},{"group":"square cycles (cube, non-group)","fractal_assignment":["../images/org_blu.png","../images/gry_blk.png","../images/ylw_pnk.png","../images/grn_red.png","../images/blu_wht.png","../images/cyn_red.png","../images/pnk_blu.png","../images/ylw_slt.png"],"mutagen_generator_assignment":[0,1],"goal":1,"start":0,"action_noise":0.1,"location_history":"[0,1]","action_history":"[0]","mutagen_history":"[0]","location_rts":"[1887]","trial_type":"fractal-mutation","trial_index":65,"time_elapsed":3816380,"internal_node_id":"0.0-5.0-11.0"},{"group":"square cycles (cube, non-group)","fractal_assignment":["../images/org_blu.png","../images/gry_blk.png","../images/ylw_pnk.png","../images/grn_red.png","../images/blu_wht.png","../images/cyn_red.png","../images/pnk_blu.png","../images/ylw_slt.png"],"mutagen_generator_assignment":[0,1],"goal":6,"start":1,"action_noise":0.1,"location_history":"[1,2,3,0,1,0,4,5,1,0,4,7,6]","action_history":"[0,0,0,0,1,0,1,0,1,1,0,0]","mutagen_history":"[0,0,0,0,1,0,1,0,1,1,0,0]","location_rts":"[1831,1316,821,1216,579,961,711,958,489,859,536,585]","trial_type":"fractal-mutation","trial_index":66,"time_elapsed":3843742,"internal_node_id":"0.0-5.0-12.0"},{"group":"square cycles (cube, non-group)","fractal_assignment":["../images/org_blu.png","../images/gry_blk.png","../images/ylw_pnk.png","../images/grn_red.png","../images/blu_wht.png","../images/cyn_red.png","../images/pnk_blu.png","../images/ylw_slt.png"],"mutagen_generator_assignment":[0,1],"goal":4,"start":6,"action_noise":0.1,"location_history":"[6,7,6,7,3,0,1,0,4]","action_history":"[1,0,1,1,0,0,1,1]","mutagen_history":"[1,0,1,1,0,0,1,1]","location_rts":"[2774,695,793,505,555,486,476,530]","trial_type":"fractal-mutation","trial_index":67,"time_elapsed":3862877,"internal_node_id":"0.0-5.0-13.0"},{"group":"square cycles (cube, non-group)","fractal_assignment":["../images/org_blu.png","../images/gry_blk.png","../images/ylw_pnk.png","../images/grn_red.png","../images/blu_wht.png","../images/cyn_red.png","../images/pnk_blu.png","../images/ylw_slt.png"],"mutagen_generator_assignment":[0,1],"goal":5,"start":4,"action_noise":0.1,"location_history":"[4,5]","action_history":"[1]","mutagen_history":"[1]","location_rts":"[2127]","trial_type":"fractal-mutation","trial_index":68,"time_elapsed":3869623,"internal_node_id":"0.0-5.0-14.0"},{"group":"square cycles (cube, non-group)","fractal_assignment":["../images/org_blu.png","../images/gry_blk.png","../images/ylw_pnk.png","../images/grn_red.png","../images/blu_wht.png","../images/cyn_red.png","../images/pnk_blu.png","../images/ylw_slt.png"],"mutagen_generator_assignment":[0,1],"goal":4,"start":5,"action_noise":0.1,"location_history":"[5,4]","action_history":"[0]","mutagen_history":"[0]","location_rts":"[1422]","trial_type":"fractal-mutation","trial_index":69,"time_elapsed":3875617,"internal_node_id":"0.0-5.0-15.0"},{"group":"square cycles (cube, non-group)","fractal_assignment":["../images/org_blu.png","../images/gry_blk.png","../images/ylw_pnk.png","../images/grn_red.png","../images/blu_wht.png","../images/cyn_red.png","../images/pnk_blu.png","../images/ylw_slt.png"],"mutagen_generator_assignment":[0,1],"goal":0,"start":4,"action_noise":0.1,"location_history":"[4,7,6,5,4,5,1,2,3,0]","action_history":"[1,0,0,0,1,1,0,0,0]","mutagen_history":"[1,0,0,0,1,1,0,0,0]","location_rts":"[1806,936,702,1192,638,530,948,1203,924]","trial_type":"fractal-mutation","trial_index":70,"time_elapsed":3897755,"internal_node_id":"0.0-5.0-16.0"},{"group":"square cycles (cube, non-group)","fractal_assignment":["../images/org_blu.png","../images/gry_blk.png","../images/ylw_pnk.png","../images/grn_red.png","../images/blu_wht.png","../images/cyn_red.png","../images/pnk_blu.png","../images/ylw_slt.png"],"mutagen_generator_assignment":[0,1],"goal":7,"start":0,"action_noise":0.1,"location_history":"[0,1,0,4,7]","action_history":"[0,1,1,0]","mutagen_history":"[0,1,1,0]","location_rts":"[1393,958,734,625]","trial_type":"fractal-mutation","trial_index":71,"time_elapsed":3909325,"internal_node_id":"0.0-5.0-17.0"},{"group":"square cycles (cube, non-group)","fractal_assignment":["../images/org_blu.png","../images/gry_blk.png","../images/ylw_pnk.png","../images/grn_red.png","../images/blu_wht.png","../images/cyn_red.png","../images/pnk_blu.png","../images/ylw_slt.png"],"mutagen_generator_assignment":[0,1],"goal":2,"start":7,"action_noise":0.1,"location_history":"[7,3,2]","action_history":"[1,1]","mutagen_history":"[1,1]","location_rts":"[1445,664]","trial_type":"fractal-mutation","trial_index":72,"time_elapsed":3917193,"internal_node_id":"0.0-5.0-18.0"},{"group":"square cycles (cube, non-group)","fractal_assignment":["../images/org_blu.png","../images/gry_blk.png","../images/ylw_pnk.png","../images/grn_red.png","../images/blu_wht.png","../images/cyn_red.png","../images/pnk_blu.png","../images/ylw_slt.png"],"mutagen_generator_assignment":[0,1],"goal":1,"start":2,"action_noise":0.1,"location_history":"[2,3,2,3,0,1]","action_history":"[0,1,0,0,0]","mutagen_history":"[0,1,0,0,0]","location_rts":"[1660,1124,946,535,960]","trial_type":"fractal-mutation","trial_index":73,"time_elapsed":3931337,"internal_node_id":"0.0-5.0-19.0"},{"group":"square cycles (cube, non-group)","fractal_assignment":["../images/org_blu.png","../images/gry_blk.png","../images/ylw_pnk.png","../images/grn_red.png","../images/blu_wht.png","../images/cyn_red.png","../images/pnk_blu.png","../images/ylw_slt.png"],"mutagen_generator_assignment":[0,1],"goal":3,"start":1,"action_noise":0.1,"location_history":"[1,2,3]","action_history":"[0,0]","mutagen_history":"[0,0]","location_rts":"[2156,972]","trial_type":"fractal-mutation","trial_index":74,"time_elapsed":3940099,"internal_node_id":"0.0-5.0-20.0"},{"group":"square cycles (cube, non-group)","fractal_assignment":["../images/org_blu.png","../images/gry_blk.png","../images/ylw_pnk.png","../images/grn_red.png","../images/blu_wht.png","../images/cyn_red.png","../images/pnk_blu.png","../images/ylw_slt.png"],"mutagen_generator_assignment":[0,1],"goal":6,"start":3,"action_noise":0.1,"location_history":"[3,0,1,2,3,2,6]","action_history":"[0,0,0,1,1,0]","mutagen_history":"[0,0,0,1,1,0]","location_rts":"[1264,1041,602,675,568,665]","trial_type":"fractal-mutation","trial_index":75,"time_elapsed":3954964,"internal_node_id":"0.0-5.0-21.0"},{"group":"square cycles (cube, non-group)","fractal_assignment":["../images/org_blu.png","../images/gry_blk.png","../images/ylw_pnk.png","../images/grn_red.png","../images/blu_wht.png","../images/cyn_red.png","../images/pnk_blu.png","../images/ylw_slt.png"],"mutagen_generator_assignment":[0,1],"goal":5,"start":6,"action_noise":0.1,"location_history":"[6,5]","action_history":"[0]","mutagen_history":"[0]","location_rts":"[2770]","trial_type":"fractal-mutation","trial_index":76,"time_elapsed":3962294,"internal_node_id":"0.0-5.0-22.0"},{"group":"square cycles (cube, non-group)","fractal_assignment":["../images/org_blu.png","../images/gry_blk.png","../images/ylw_pnk.png","../images/grn_red.png","../images/blu_wht.png","../images/cyn_red.png","../images/pnk_blu.png","../images/ylw_slt.png"],"mutagen_generator_assignment":[0,1],"goal":3,"start":5,"action_noise":0.1,"location_history":"[5,1,0,1,2,3]","action_history":"[1,1,0,0,0]","mutagen_history":"[1,1,0,0,0]","location_rts":"[2036,721,654,652,784]","trial_type":"fractal-mutation","trial_index":77,"time_elapsed":3976074,"internal_node_id":"0.0-5.0-23.0"},{"group":"square cycles (cube, non-group)","fractal_assignment":["../images/org_blu.png","../images/gry_blk.png","../images/ylw_pnk.png","../images/grn_red.png","../images/blu_wht.png","../images/cyn_red.png","../images/pnk_blu.png","../images/ylw_slt.png"],"mutagen_generator_assignment":[0,1],"goal":0,"start":3,"action_noise":0.1,"location_history":"[3,0]","action_history":"[0]","mutagen_history":"[0]","location_rts":"[1018]","trial_type":"fractal-mutation","trial_index":78,"time_elapsed":3981662,"internal_node_id":"0.0-5.0-24.0"},{"group":"square cycles (cube, non-group)","fractal_assignment":["../images/org_blu.png","../images/gry_blk.png","../images/ylw_pnk.png","../images/grn_red.png","../images/blu_wht.png","../images/cyn_red.png","../images/pnk_blu.png","../images/ylw_slt.png"],"mutagen_generator_assignment":[0,1],"goal":7,"start":0,"action_noise":0.1,"location_history":"[0,4,7]","action_history":"[0,0]","mutagen_history":"[0,0]","location_rts":"[1504,698]","trial_type":"fractal-mutation","trial_index":79,"time_elapsed":3989493,"internal_node_id":"0.0-5.0-25.0"},{"group":"square cycles (cube, non-group)","fractal_assignment":["../images/org_blu.png","../images/gry_blk.png","../images/ylw_pnk.png","../images/grn_red.png","../images/blu_wht.png","../images/cyn_red.png","../images/pnk_blu.png","../images/ylw_slt.png"],"mutagen_generator_assignment":[0,1],"goal":2,"start":7,"action_noise":0.1,"location_history":"[7,3,2]","action_history":"[0,1]","mutagen_history":"[0,1]","location_rts":"[1263,1153]","trial_type":"fractal-mutation","trial_index":80,"time_elapsed":3997590,"internal_node_id":"0.0-5.0-26.0"},{"group":"square cycles (cube, non-group)","fractal_assignment":["../images/org_blu.png","../images/gry_blk.png","../images/ylw_pnk.png","../images/grn_red.png","../images/blu_wht.png","../images/cyn_red.png","../images/pnk_blu.png","../images/ylw_slt.png"],"mutagen_generator_assignment":[0,1],"goal":1,"start":2,"action_noise":0.1,"location_history":"[2,3,2,6,7,6,5,4,7,6,7,6,7,3,0,1]","action_history":"[0,1,1,1,0,0,0,0,0,1,0,1,1,0,0]","mutagen_history":"[0,1,1,1,0,0,0,0,0,1,0,1,1,0,0]","location_rts":"[1416,1231,934,707,900,536,787,431,886,741,693,584,469,389,765]","trial_type":"fractal-mutation","trial_index":81,"time_elapsed":4028850,"internal_node_id":"0.0-5.0-27.0"},{"group":"square cycles (cube, non-group)","fractal_assignment":["../images/org_blu.png","../images/gry_blk.png","../images/ylw_pnk.png","../images/grn_red.png","../images/blu_wht.png","../images/cyn_red.png","../images/pnk_blu.png","../images/ylw_slt.png"],"mutagen_generator_assignment":[0,1],"goal":5,"start":1,"action_noise":0.1,"location_history":"[1,0,4,7,3,2,3,2,6,5]","action_history":"[1,1,0,1,1,0,1,1,0]","mutagen_history":"[1,1,0,1,1,0,1,1,0]","location_rts":"[11355,732,450,437,581,483,467,435,455]","trial_type":"fractal-mutation","trial_index":82,"time_elapsed":4057627,"internal_node_id":"0.0-5.0-28.0"},{"group":"square cycles (cube, non-group)","fractal_assignment":["../images/org_blu.png","../images/gry_blk.png","../images/ylw_pnk.png","../images/grn_red.png","../images/blu_wht.png","../images/cyn_red.png","../images/pnk_blu.png","../images/ylw_slt.png"],"mutagen_generator_assignment":[0,1],"goal":4,"start":5,"action_noise":0.1,"location_history":"[5,4]","action_history":"[0]","mutagen_history":"[0]","location_rts":"[1739]","trial_type":"fractal-mutation","trial_index":83,"time_elapsed":4063934,"internal_node_id":"0.0-5.0-29.0"},{"group":"square cycles (cube, non-group)","fractal_assignment":["../images/org_blu.png","../images/gry_blk.png","../images/ylw_pnk.png","../images/grn_red.png","../images/blu_wht.png","../images/cyn_red.png","../images/pnk_blu.png","../images/ylw_slt.png"],"mutagen_generator_assignment":[0,1],"goal":6,"start":4,"action_noise":0.1,"location_history":"[4,5,4,5,1,2,3,2,3,0,4,5,1,2,3,2,6]","action_history":"[1,0,1,1,0,0,1,0,0,1,1,0,0,0,1,1]","mutagen_history":"[1,0,1,1,0,0,1,0,0,1,1,0,0,0,1,1]","location_rts":"[2096,826,1233,334,568,525,595,528,456,912,613,1063,480,348,409,629]","trial_type":"fractal-mutation","trial_index":84,"time_elapsed":4096462,"internal_node_id":"0.0-5.0-30.0"},{"group":"square cycles (cube, non-group)","fractal_assignment":["../images/org_blu.png","../images/gry_blk.png","../images/ylw_pnk.png","../images/grn_red.png","../images/blu_wht.png","../images/cyn_red.png","../images/pnk_blu.png","../images/ylw_slt.png"],"mutagen_generator_assignment":[0,1],"goal":4,"start":6,"action_noise":0.1,"location_history":"[6,5,4]","action_history":"[0,0]","mutagen_history":"[0,0]","location_rts":"[1031,568]","trial_type":"fractal-mutation","trial_index":85,"time_elapsed":4103697,"internal_node_id":"0.0-5.0-31.0"},{"group":"square cycles (cube, non-group)","fractal_assignment":["../images/org_blu.png","../images/gry_blk.png","../images/ylw_pnk.png","../images/grn_red.png","../images/blu_wht.png","../images/cyn_red.png","../images/pnk_blu.png","../images/ylw_slt.png"],"mutagen_generator_assignment":[0,1],"goal":2,"start":4,"action_noise":0.1,"location_history":"[4,7,6,5,1,0,4,7,6,5,1,2]","action_history":"[0,0,0,1,1,1,0,0,0,1,0]","mutagen_history":"[0,0,0,1,1,1,0,0,0,1,0]","location_rts":"[1381,745,881,678,652,769,617,487,430,549,518]","trial_type":"fractal-mutation","trial_index":86,"time_elapsed":4126903,"internal_node_id":"0.0-5.0-32.0"},{"group":"square cycles (cube, non-group)","fractal_assignment":["../images/org_blu.png","../images/gry_blk.png","../images/ylw_pnk.png","../images/grn_red.png","../images/blu_wht.png","../images/cyn_red.png","../images/pnk_blu.png","../images/ylw_slt.png"],"mutagen_generator_assignment":[0,1],"goal":0,"start":2,"action_noise":0.1,"location_history":"[2,3,2,3,0]","action_history":"[0,1,0,0]","mutagen_history":"[0,1,0,0]","location_rts":"[542,797,596,371]","trial_type":"fractal-mutation","trial_index":87,"time_elapsed":4137085,"internal_node_id":"0.0-5.0-33.0"},{"group":"square cycles (cube, non-group)","fractal_assignment":["../images/org_blu.png","../images/gry_blk.png","../images/ylw_pnk.png","../images/grn_red.png","../images/blu_wht.png","../images/cyn_red.png","../images/pnk_blu.png","../images/ylw_slt.png"],"mutagen_generator_assignment":[0,1],"goal":5,"start":0,"action_noise":0.1,"location_history":"[0,1,2,3,0,1,0,4,5]","action_history":"[0,0,0,0,0,1,1,1]","mutagen_history":"[0,0,0,0,0,1,1,1]","location_rts":"[1561,520,904,1018,668,528,514,321]","trial_type":"fractal-mutation","trial_index":88,"time_elapsed":4155323,"internal_node_id":"0.0-5.0-34.0"},{"group":"square cycles (cube, non-group)","fractal_assignment":["../images/org_blu.png","../images/gry_blk.png","../images/ylw_pnk.png","../images/grn_red.png","../images/blu_wht.png","../images/cyn_red.png","../images/pnk_blu.png","../images/ylw_slt.png"],"mutagen_generator_assignment":[0,1],"goal":1,"start":5,"action_noise":0.1,"location_history":"[5,4,5,1]","action_history":"[0,1,1]","mutagen_history":"[0,1,1]","location_rts":"[1095,786,732]","trial_type":"fractal-mutation","trial_index":89,"time_elapsed":4164762,"internal_node_id":"0.0-5.0-35.0"},{"group":"square cycles (cube, non-group)","fractal_assignment":["../images/org_blu.png","../images/gry_blk.png","../images/ylw_pnk.png","../images/grn_red.png","../images/blu_wht.png","../images/cyn_red.png","../images/pnk_blu.png","../images/ylw_slt.png"],"mutagen_generator_assignment":[0,1],"goal":7,"start":1,"action_noise":0.1,"location_history":"[1,2,6,5,4,7]","action_history":"[0,0,0,0,0]","mutagen_history":"[0,0,0,0,0]","location_rts":"[498,470,541,441,499]","trial_type":"fractal-mutation","trial_index":90,"time_elapsed":4176025,"internal_node_id":"0.0-5.0-36.0"},{"group":"square cycles (cube, non-group)","fractal_assignment":["../images/org_blu.png","../images/gry_blk.png","../images/ylw_pnk.png","../images/grn_red.png","../images/blu_wht.png","../images/cyn_red.png","../images/pnk_blu.png","../images/ylw_slt.png"],"mutagen_generator_assignment":[0,1],"goal":3,"start":7,"action_noise":0.1,"location_history":"[7,3]","action_history":"[1]","mutagen_history":"[1]","location_rts":"[1010]","trial_type":"fractal-mutation","trial_index":91,"time_elapsed":4181659,"internal_node_id":"0.0-5.0-37.0"},{"group":"square cycles (cube, non-group)","fractal_assignment":["../images/org_blu.png","../images/gry_blk.png","../images/ylw_pnk.png","../images/grn_red.png","../images/blu_wht.png","../images/cyn_red.png","../images/pnk_blu.png","../images/ylw_slt.png"],"mutagen_generator_assignment":[0,1],"goal":6,"start":3,"action_noise":0.1,"location_history":"[3,0,4,5,4,7,3,2,6]","action_history":"[0,1,1,0,0,1,1,1]","mutagen_history":"[0,1,1,0,0,1,1,1]","location_rts":"[1698,728,502,626,482,506,340,436]","trial_type":"fractal-mutation","trial_index":92,"time_elapsed":4199337,"internal_node_id":"0.0-5.0-38.0"},{"group":"square cycles (cube, non-group)","fractal_assignment":["../images/org_blu.png","../images/gry_blk.png","../images/ylw_pnk.png","../images/grn_red.png","../images/blu_wht.png","../images/cyn_red.png","../images/pnk_blu.png","../images/ylw_slt.png"],"mutagen_generator_assignment":[0,1],"goal":2,"start":6,"action_noise":0.1,"location_history":"[6,5,4,5,1,0,1,0,4,5,4,5,1,0,1,2]","action_history":"[0,0,0,1,1,0,1,1,1,0,1,1,1,1,0]","mutagen_history":"[0,0,0,1,1,0,1,1,1,0,1,1,1,1,0]","location_rts":"[586,1175,538,659,420,507,410,330,402,461,430,401,423,470,421]","trial_type":"fractal-mutation","trial_index":93,"time_elapsed":4226914,"internal_node_id":"0.0-5.0-39.0"},{"group":"square cycles (cube, non-group)","fractal_assignment":["../images/org_blu.png","../images/gry_blk.png","../images/ylw_pnk.png","../images/grn_red.png","../images/blu_wht.png","../images/cyn_red.png","../images/pnk_blu.png","../images/ylw_slt.png"],"mutagen_generator_assignment":[0,1],"goal":1,"start":2,"action_noise":0.1,"location_history":"[2,3,0,1]","action_history":"[0,0,0]","mutagen_history":"[0,0,0]","location_rts":"[1435,640,660]","trial_type":"fractal-mutation","trial_index":94,"time_elapsed":4236354,"internal_node_id":"0.0-5.0-40.0"},{"group":"square cycles (cube, non-group)","fractal_assignment":["../images/org_blu.png","../images/gry_blk.png","../images/ylw_pnk.png","../images/grn_red.png","../images/blu_wht.png","../images/cyn_red.png","../images/pnk_blu.png","../images/ylw_slt.png"],"mutagen_generator_assignment":[0,1],"goal":0,"start":1,"action_noise":0.1,"location_history":"[1,2,3,0]","action_history":"[0,0,0]","mutagen_history":"[0,0,0]","location_rts":"[811,500,490]","trial_type":"fractal-mutation","trial_index":95,"time_elapsed":4244823,"internal_node_id":"0.0-5.0-41.0"},{"group":"square cycles (cube, non-group)","fractal_assignment":["../images/org_blu.png","../images/gry_blk.png","../images/ylw_pnk.png","../images/grn_red.png","../images/blu_wht.png","../images/cyn_red.png","../images/pnk_blu.png","../images/ylw_slt.png"],"mutagen_generator_assignment":[0,1],"goal":4,"start":0,"action_noise":0.1,"location_history":"[0,1,0,1,2,3,2,6,7,6,5,1,0,1,2,6,7,3,0,1,0,1,0,4]","action_history":"[0,1,0,0,0,1,1,1,0,1,1,1,1,0,1,1,0,0,0,1,1,1,0]","mutagen_history":"[0,1,0,0,0,1,1,1,0,1,1,1,1,0,1,1,0,0,0,1,1,1,0]","location_rts":"[685,500,572,479,682,549,429,448,512,471,352,399,396,412,355,489,329,359,384,211,391,440,318]","trial_type":"fractal-mutation","trial_index":96,"time_elapsed":4283683,"internal_node_id":"0.0-5.0-42.0"},{"group":"square cycles (cube, non-group)","fractal_assignment":["../images/org_blu.png","../images/gry_blk.png","../images/ylw_pnk.png","../images/grn_red.png","../images/blu_wht.png","../images/cyn_red.png","../images/pnk_blu.png","../images/ylw_slt.png"],"mutagen_generator_assignment":[0,1],"goal":6,"start":4,"action_noise":0.1,"location_history":"[4,7,3,2,6]","action_history":"[0,1,0,1]","mutagen_history":"[0,1,0,1]","location_rts":"[1529,493,580,394]","trial_type":"fractal-mutation","trial_index":97,"time_elapsed":4294553,"internal_node_id":"0.0-5.0-43.0"},{"group":"square cycles (cube, non-group)","fractal_assignment":["../images/org_blu.png","../images/gry_blk.png","../images/ylw_pnk.png","../images/grn_red.png","../images/blu_wht.png","../images/cyn_red.png","../images/pnk_blu.png","../images/ylw_slt.png"],"mutagen_generator_assignment":[0,1],"goal":3,"start":6,"action_noise":0.1,"location_history":"[6,7,6,7,3]","action_history":"[1,0,1,1]","mutagen_history":"[1,0,1,1]","location_rts":"[1383,630,713,471]","trial_type":"fractal-mutation","trial_index":98,"time_elapsed":4305686,"internal_node_id":"0.0-5.0-44.0"},{"group":"square cycles (cube, non-group)","fractal_assignment":["../images/org_blu.png","../images/gry_blk.png","../images/ylw_pnk.png","../images/grn_red.png","../images/blu_wht.png","../images/cyn_red.png","../images/pnk_blu.png","../images/ylw_slt.png"],"mutagen_generator_assignment":[0,1],"goal":7,"start":3,"action_noise":0.1,"location_history":"[3,0,4,7]","action_history":"[0,1,1]","mutagen_history":"[0,1,1]","location_rts":"[1261,1524,867]","trial_type":"fractal-mutation","trial_index":99,"time_elapsed":4316182,"internal_node_id":"0.0-5.0-45.0"},{"group":"square cycles (cube, non-group)","fractal_assignment":["../images/org_blu.png","../images/gry_blk.png","../images/ylw_pnk.png","../images/grn_red.png","../images/blu_wht.png","../images/cyn_red.png","../images/pnk_blu.png","../images/ylw_slt.png"],"mutagen_generator_assignment":[0,1],"goal":5,"start":7,"action_noise":0.1,"location_history":"[7,6,7,6,5]","action_history":"[0,1,0,0]","mutagen_history":"[0,1,0,0]","location_rts":"[1065,902,655,456]","trial_type":"fractal-mutation","trial_index":100,"time_elapsed":4327106,"internal_node_id":"0.0-5.0-46.0"},{"group":"square cycles (cube, non-group)","fractal_assignment":["../images/org_blu.png","../images/gry_blk.png","../images/ylw_pnk.png","../images/grn_red.png","../images/blu_wht.png","../images/cyn_red.png","../images/pnk_blu.png","../images/ylw_slt.png"],"mutagen_generator_assignment":[0,1],"goal":1,"start":5,"action_noise":0.1,"location_history":"[5,4,7,6,7,6,5,1]","action_history":"[0,0,0,1,0,0,1]","mutagen_history":"[0,0,0,1,0,0,1]","location_rts":"[899,850,947,1505,810,411,508]","trial_type":"fractal-mutation","trial_index":101,"time_elapsed":4344144,"internal_node_id":"0.0-5.0-47.0"},{"group":"square cycles (cube, non-group)","fractal_assignment":["../images/org_blu.png","../images/gry_blk.png","../images/ylw_pnk.png","../images/grn_red.png","../images/blu_wht.png","../images/cyn_red.png","../images/pnk_blu.png","../images/ylw_slt.png"],"mutagen_generator_assignment":[0,1],"goal":6,"start":1,"action_noise":0.1,"location_history":"[1,2,6]","action_history":"[0,1]","mutagen_history":"[0,1]","location_rts":"[802,580]","trial_type":"fractal-mutation","trial_index":102,"time_elapsed":4351235,"internal_node_id":"0.0-5.0-48.0"},{"group":"square cycles (cube, non-group)","fractal_assignment":["../images/org_blu.png","../images/gry_blk.png","../images/ylw_pnk.png","../images/grn_red.png","../images/blu_wht.png","../images/cyn_red.png","../images/pnk_blu.png","../images/ylw_slt.png"],"mutagen_generator_assignment":[0,1],"goal":0,"start":6,"action_noise":0.1,"location_history":"[6,5,4,7,3,2,6,5,4,7,6,7,6,5,1,0]","action_history":"[0,0,0,1,0,1,0,0,0,0,1,0,0,1,1]","mutagen_history":"[0,0,0,1,0,1,0,0,0,0,1,0,0,1,1]","location_rts":"[1218,716,631,1292,500,1070,489,497,453,984,530,415,715,353,976]","trial_type":"fractal-mutation","trial_index":103,"time_elapsed":4381773,"internal_node_id":"0.0-5.0-49.0"},{"view_history":"[{\"page_index\":0,\"viewing_time\":2510}]","rt":2510,"trial_type":"instructions","trial_index":104,"time_elapsed":4385283,"internal_node_id":"0.0-6.0"},{"rt":1790,"responses":"{\"Q0\":\"\"}","trial_type":"survey-text","trial_index":105,"time_elapsed":4388077,"internal_node_id":"0.0-7.0"}]