[{"view_history":"[{\"page_index\":0,\"viewing_time\":2314},{\"page_index\":1,\"viewing_time\":11915}]","rt":14230,"trial_type":"instructions","trial_index":0,"time_elapsed":14232,"internal_node_id":"0.0-0.0"},{"view_history":"[{\"page_index\":0,\"viewing_time\":5710},{\"page_index\":1,\"viewing_time\":48017}]","rt":53728,"trial_type":"instructions","trial_index":1,"time_elapsed":68965,"internal_node_id":"0.0-1.0"},{"group":"tri cycles (cube, non-group)","room_assignment":["brown","green","grey","pink","purple","yellow","red","blue"],"door_color_assignment":["white","black"],"door_generator_assignment":[0,1],"goal":6,"start":3,"action_noise":0.1,"location_history":"[3,4,0,3,4,7,6]","action_history":"[1,1,1,1,0,0]","door_history":"[1,1,1,1,0,0]","location_rts":"[11301,474,414,605,305,442]","trial_type":"two-door-navigation","trial_index":2,"time_elapsed":92173,"internal_node_id":"0.0-2.0-0.0"},{"group":"tri cycles (cube, non-group)","room_assignment":["brown","green","grey","pink","purple","yellow","red","blue"],"door_color_assignment":["white","black"],"door_generator_assignment":[0,1],"goal":1,"start":6,"action_noise":0.1,"location_history":"[6,4,7,3,4,0,2,1]","action_history":"[0,0,1,1,1,1,0]","door_history":"[0,0,1,1,1,1,0]","location_rts":"[1421,404,1162,457,367,407,426]","trial_type":"two-door-navigation","trial_index":3,"time_elapsed":107483,"internal_node_id":"0.0-2.0-1.0"},{"group":"tri cycles (cube, non-group)","room_assignment":["brown","green","grey","pink","purple","yellow","red","blue"],"door_color_assignment":["white","black"],"door_generator_assignment":[0,1],"goal":2,"start":1,"action_noise":0.1,"location_history":"[1,5,1,5,1,0,3,4,0,3,7,6,5,2]","action_history":"[1,0,0,0,0,1,1,1,1,0,0,0,1]","door_history":"[1,0,0,0,0,1,1,1,1,0,0,0,1]","location_rts":"[1871,2576,1072,408,481,539,494,384,351,1103,402,386,14955]","trial_type":"two-door-navigation","trial_index":4,"time_elapsed":149311,"internal_node_id":"0.0-2.0-2.0"},{"group":"tri cycles (cube, non-group)","room_assignment":["brown","green","grey","pink","purple","yellow","red","blue"],"door_color_assignment":["white","black"],"door_generator_assignment":[0,1],"goal":0,"start":2,"action_noise":0.1,"location_history":"[2,6,5,1,0]","action_history":"[1,1,0,0]","door_history":"[1,1,0,0]","location_rts":"[1223,401,483,379]","trial_type":"two-door-navigation","trial_index":5,"time_elapsed":159394,"internal_node_id":"0.0-2.0-3.0"},{"group":"tri cycles (cube, non-group)","room_assignment":["brown","green","grey","pink","purple","yellow","red","blue"],"door_color_assignment":["white","black"],"door_generator_assignment":[0,1],"goal":7,"start":0,"action_noise":0.1,"location_history":"[0,3,4,7]","action_history":"[1,1,0]","door_history":"[1,1,0]","location_rts":"[1926,431,594]","trial_type":"two-door-navigation","trial_index":6,"time_elapsed":168920,"internal_node_id":"0.0-2.0-4.0"},{"group":"tri cycles (cube, non-group)","room_assignment":["brown","green","grey","pink","purple","yellow","red","blue"],"door_color_assignment":["white","black"],"door_generator_assignment":[0,1],"goal":5,"start":7,"action_noise":0.1,"location_history":"[7,3,4,0,2,1,0,2,6,5]","action_history":"[1,1,1,0,0,0,0,1,1]","door_history":"[1,1,1,0,0,0,0,1,1]","location_rts":"[1623,425,370,425,450,410,368,427,383]","trial_type":"two-door-navigation","trial_index":7,"time_elapsed":186522,"internal_node_id":"0.0-2.0-5.0"},{"group":"tri cycles (cube, non-group)","room_assignment":["brown","green","grey","pink","purple","yellow","red","blue"],"door_color_assignment":["white","black"],"door_generator_assignment":[0,1],"goal":4,"start":5,"action_noise":0.1,"location_history":"[5,2,6,5,1,0,2,1,5,2,6,5,2,6,4]","action_history":"[1,1,1,0,0,0,0,1,1,1,1,1,1,0]","door_history":"[1,1,1,0,0,0,0,1,1,1,1,1,1,0]","location_rts":"[958,417,451,336,417,530,393,555,344,425,348,401,488,306]","trial_type":"two-door-navigation","trial_index":8,"time_elapsed":210720,"internal_node_id":"0.0-2.0-6.0"},{"group":"tri cycles (cube, non-group)","room_assignment":["brown","green","grey","pink","purple","yellow","red","blue"],"door_color_assignment":["white","black"],"door_generator_assignment":[0,1],"goal":2,"start":4,"action_noise":0.1,"location_history":"[4,0,3,4,7,6,4,7,6,5,2]","action_history":"[1,1,1,0,0,0,0,0,1,1]","door_history":"[1,1,1,0,0,0,0,0,1,1]","location_rts":"[1360,361,512,465,403,331,331,354,307,400]","trial_type":"two-door-navigation","trial_index":9,"time_elapsed":229272,"internal_node_id":"0.0-2.0-7.0"},{"group":"tri cycles (cube, non-group)","room_assignment":["brown","green","grey","pink","purple","yellow","red","blue"],"door_color_assignment":["white","black"],"door_generator_assignment":[0,1],"goal":3,"start":2,"action_noise":0.1,"location_history":"[2,6,5,1,5,1,0,3]","action_history":"[1,1,0,0,0,1,1]","door_history":"[1,1,0,0,0,1,1]","location_rts":"[1329,11514,600,314,369,366,386]","trial_type":"two-door-navigation","trial_index":10,"time_elapsed":254809,"internal_node_id":"0.0-2.0-8.0"},{"group":"tri cycles (cube, non-group)","room_assignment":["brown","green","grey","pink","purple","yellow","red","blue"],"door_color_assignment":["white","black"],"door_generator_assignment":[0,1],"goal":7,"start":3,"action_noise":0.1,"location_history":"[3,4,0,2,1,0,2,6,5,2,6,4,7]","action_history":"[1,1,0,0,0,0,1,1,1,1,0,0]","door_history":"[1,1,0,0,0,0,1,1,1,1,0,0]","location_rts":"[766,546,394,337,546,368,370,346,438,901,418,770]","trial_type":"two-door-navigation","trial_index":11,"time_elapsed":276791,"internal_node_id":"0.0-2.0-9.0"},{"group":"tri cycles (cube, non-group)","room_assignment":["brown","green","grey","pink","purple","yellow","red","blue"],"door_color_assignment":["white","black"],"door_generator_assignment":[0,1],"goal":0,"start":7,"action_noise":0.1,"location_history":"[7,3,7,3,4,7,3,7,6,5,2,6,4,7,6,4,0]","action_history":"[0,0,1,1,1,1,0,0,1,1,1,0,0,0,0,1]","door_history":"[0,0,1,1,1,1,0,0,1,1,1,0,0,0,0,1]","location_rts":"[1369,586,442,514,657,395,282,418,356,417,360,354,414,322,323,289]","trial_type":"two-door-navigation","trial_index":12,"time_elapsed":304161,"internal_node_id":"0.0-2.0-10.0"},{"group":"tri cycles (cube, non-group)","room_assignment":["brown","green","grey","pink","purple","yellow","red","blue"],"door_color_assignment":["white","black"],"door_generator_assignment":[0,1],"goal":1,"start":0,"action_noise":0.1,"location_history":"[0,3,4,0,3,4,7,6,4,7,3,7,3,4,0,2,6,4,7,3,4,0,2,1]","action_history":"[1,1,1,1,1,0,0,0,0,1,1,1,1,1,0,0,0,0,1,1,1,0,0]","door_history":"[1,1,1,1,1,0,0,0,0,1,1,1,1,1,0,0,0,0,1,1,1,0,0]","location_rts":"[1837,17617,469,305,290,314,368,494,394,326,384,378,689,368,273,369,331,338,385,338,314,352,374]","trial_type":"two-door-navigation","trial_index":13,"time_elapsed":358514,"internal_node_id":"0.0-2.0-11.0"},{"group":"tri cycles (cube, non-group)","room_assignment":["brown","green","grey","pink","purple","yellow","red","blue"],"door_color_assignment":["white","black"],"door_generator_assignment":[0,1],"goal":6,"start":1,"action_noise":0.1,"location_history":"[1,5,2,6]","action_history":"[1,1,1]","door_history":"[1,1,1]","location_rts":"[1702,361,378]","trial_type":"two-door-navigation","trial_index":14,"time_elapsed":367526,"internal_node_id":"0.0-2.0-12.0"},{"group":"tri cycles (cube, non-group)","room_assignment":["brown","green","grey","pink","purple","yellow","red","blue"],"door_color_assignment":["white","black"],"door_generator_assignment":[0,1],"goal":4,"start":6,"action_noise":0.1,"location_history":"[6,5,1,5,2,1,5,1,0,3,4]","action_history":"[1,1,1,0,0,0,0,0,1,1]","door_history":"[1,1,1,0,0,0,0,0,1,1]","location_rts":"[1129,394,340,386,417,322,329,418,346,321]","trial_type":"two-door-navigation","trial_index":15,"time_elapsed":385654,"internal_node_id":"0.0-2.0-13.0"},{"group":"tri cycles (cube, non-group)","room_assignment":["brown","green","grey","pink","purple","yellow","red","blue"],"door_color_assignment":["white","black"],"door_generator_assignment":[0,1],"goal":5,"start":4,"action_noise":0.1,"location_history":"[4,0,2,1,5]","action_history":"[0,0,0,1]","door_history":"[0,0,0,1]","location_rts":"[1384,448,315,346]","trial_type":"two-door-navigation","trial_index":16,"time_elapsed":395742,"internal_node_id":"0.0-2.0-14.0"},{"group":"tri cycles (cube, non-group)","room_assignment":["brown","green","grey","pink","purple","yellow","red","blue"],"door_color_assignment":["white","black"],"door_generator_assignment":[0,1],"goal":4,"start":5,"action_noise":0.1,"location_history":"[5,2,1,5,2,1,0,2,1,0,2,1,5,2,6,5,2,6,4]","action_history":"[1,1,1,1,0,0,0,0,0,0,0,1,1,1,1,1,1,0]","door_history":"[1,1,1,1,0,0,0,0,0,0,0,1,1,1,1,1,1,0]","location_rts":"[665,404,338,377,394,354,336,459,1793,1193,306,328,378,402,330,419,401,13553]","trial_type":"two-door-navigation","trial_index":17,"time_elapsed":440089,"internal_node_id":"0.0-2.0-15.0"},{"group":"tri cycles (cube, non-group)","room_assignment":["brown","green","grey","pink","purple","yellow","red","blue"],"door_color_assignment":["white","black"],"door_generator_assignment":[0,1],"goal":0,"start":4,"action_noise":0.1,"location_history":"[4,0]","action_history":"[1]","door_history":"[1]","location_rts":"[1692]","trial_type":"two-door-navigation","trial_index":18,"time_elapsed":446311,"internal_node_id":"0.0-2.0-16.0"},{"group":"tri cycles (cube, non-group)","room_assignment":["brown","green","grey","pink","purple","yellow","red","blue"],"door_color_assignment":["white","black"],"door_generator_assignment":[0,1],"goal":7,"start":0,"action_noise":0.1,"location_history":"[0,2,1,5,2,6,5,1,0,2,6,5,2,1,0,2,1,5,2,6,4,7]","action_history":"[0,0,0,1,1,1,1,0,1,1,1,1,0,0,0,0,1,1,1,0,0]","door_history":"[0,0,0,1,1,1,1,0,1,1,1,1,0,0,0,0,1,1,1,0,0]","location_rts":"[1392,417,615,371,411,329,327,330,372,422,360,411,315,346,337,458,315,393,265,746,874]","trial_type":"two-door-navigation","trial_index":19,"time_elapsed":481079,"internal_node_id":"0.0-2.0-17.0"},{"group":"tri cycles (cube, non-group)","room_assignment":["brown","green","grey","pink","purple","yellow","red","blue"],"door_color_assignment":["white","black"],"door_generator_assignment":[0,1],"goal":2,"start":7,"action_noise":0.1,"location_history":"[7,3,4,0,3,7,6,4,7,6,5,2]","action_history":"[1,1,1,1,0,0,0,0,0,1,1]","door_history":"[1,1,1,1,0,0,0,0,0,1,1]","location_rts":"[1200,472,306,338,704,428,503,2835,449,306,410]","trial_type":"two-door-navigation","trial_index":20,"time_elapsed":503781,"internal_node_id":"0.0-2.0-18.0"},{"group":"tri cycles (cube, non-group)","room_assignment":["brown","green","grey","pink","purple","yellow","red","blue"],"door_color_assignment":["white","black"],"door_generator_assignment":[0,1],"goal":1,"start":2,"action_noise":0.1,"location_history":"[2,1]","action_history":"[0]","door_history":"[0]","location_rts":"[1713]","trial_type":"two-door-navigation","trial_index":21,"time_elapsed":510024,"internal_node_id":"0.0-2.0-19.0"},{"group":"tri cycles (cube, non-group)","room_assignment":["brown","green","grey","pink","purple","yellow","red","blue"],"door_color_assignment":["white","black"],"door_generator_assignment":[0,1],"goal":3,"start":1,"action_noise":0.1,"location_history":"[1,5,2,6,4,7,6,5,2,6,5,1,0,2,6,5,2,6,4,7,6,5,2,6,5,1,0,3]","action_history":"[1,1,1,0,0,0,1,1,1,1,0,0,0,0,1,1,1,0,0,0,1,1,1,0,0,0,1]","door_history":"[1,1,1,0,0,0,1,1,1,1,0,0,0,0,1,1,1,0,0,0,1,1,1,0,0,0,1]","location_rts":"[1430,384,290,562,352,355,505,370,457,369,370,330,386,431,282,618,296,658,324,328,264,393,305,345,304,361,314]","trial_type":"two-door-navigation","trial_index":22,"time_elapsed":552542,"internal_node_id":"0.0-2.0-20.0"},{"group":"tri cycles (cube, non-group)","room_assignment":["brown","green","grey","pink","purple","yellow","red","blue"],"door_color_assignment":["white","black"],"door_generator_assignment":[0,1],"goal":6,"start":3,"action_noise":0.1,"location_history":"[3,4,0,3,4,7,6]","action_history":"[1,1,1,1,0,0]","door_history":"[1,1,1,1,0,0]","location_rts":"[720,361,365,456,564,373]","trial_type":"two-door-navigation","trial_index":23,"time_elapsed":565041,"internal_node_id":"0.0-2.0-21.0"},{"group":"tri cycles (cube, non-group)","room_assignment":["brown","green","grey","pink","purple","yellow","red","blue"],"door_color_assignment":["white","black"],"door_generator_assignment":[0,1],"goal":5,"start":6,"action_noise":0.1,"location_history":"[6,5]","action_history":"[1]","door_history":"[1]","location_rts":"[1333]","trial_type":"two-door-navigation","trial_index":24,"time_elapsed":570901,"internal_node_id":"0.0-2.0-22.0"},{"group":"tri cycles (cube, non-group)","room_assignment":["brown","green","grey","pink","purple","yellow","red","blue"],"door_color_assignment":["white","black"],"door_generator_assignment":[0,1],"goal":3,"start":5,"action_noise":0.1,"location_history":"[5,1,0,2,1,5,2,1,0,3]","action_history":"[0,0,0,1,1,1,0,0,0]","door_history":"[0,0,0,1,1,1,0,0,0]","location_rts":"[1553,402,305,2736,579,304,288,392,289]","trial_type":"two-door-navigation","trial_index":25,"time_elapsed":590462,"internal_node_id":"0.0-2.0-23.0"},{"group":"tri cycles (cube, non-group)","room_assignment":["brown","green","grey","pink","purple","yellow","red","blue"],"door_color_assignment":["white","black"],"door_generator_assignment":[0,1],"goal":0,"start":3,"action_noise":0.1,"location_history":"[3,4,7,3,4,7,6,4,7,6,5,2,1,0]","action_history":"[1,1,1,1,0,0,0,0,1,1,1,0,0]","door_history":"[1,1,1,1,0,0,0,0,1,1,1,0,0]","location_rts":"[1070,387,379,752,362,330,280,353,300,331,385,296,367]","trial_type":"two-door-navigation","trial_index":26,"time_elapsed":612853,"internal_node_id":"0.0-2.0-24.0"},{"group":"tri cycles (cube, non-group)","room_assignment":["brown","green","grey","pink","purple","yellow","red","blue"],"door_color_assignment":["white","black"],"door_generator_assignment":[0,1],"goal":7,"start":0,"action_noise":0.1,"location_history":"[0,3,4,0,2,1,0,2,6,5,2,6,4,7]","action_history":"[1,1,1,0,0,0,0,1,1,1,1,0,0]","door_history":"[1,1,1,0,0,0,0,1,1,1,1,0,0]","location_rts":"[1031,417,475,353,482,395,377,490,360,355,435,305,535]","trial_type":"two-door-navigation","trial_index":27,"time_elapsed":635663,"internal_node_id":"0.0-2.0-25.0"},{"group":"tri cycles (cube, non-group)","room_assignment":["brown","green","grey","pink","purple","yellow","red","blue"],"door_color_assignment":["white","black"],"door_generator_assignment":[0,1],"goal":2,"start":7,"action_noise":0.1,"location_history":"[7,6,5,1,0,2]","action_history":"[1,1,1,0,0]","door_history":"[1,1,1,0,0]","location_rts":"[2125,346,412,423,361]","trial_type":"two-door-navigation","trial_index":28,"time_elapsed":647956,"internal_node_id":"0.0-2.0-26.0"},{"group":"tri cycles (cube, non-group)","room_assignment":["brown","green","grey","pink","purple","yellow","red","blue"],"door_color_assignment":["white","black"],"door_generator_assignment":[0,1],"goal":1,"start":2,"action_noise":0.1,"location_history":"[2,6,5,2,6,4,7,6,4,0,3,7,3,4,7,6,4,7,3,4,0,3,4,7,6,4,7,3,7,6,4,7,3,4,7,3,7,6,4,7,3,4,0,2,1]","action_history":"[1,1,1,1,0,0,0,0,1,1,1,1,0,0,0,0,0,1,1,1,1,1,1,0,0,0,1,1,0,0,0,1,1,1,1,0,0,0,0,1,1,0,0,0]","door_history":"[1,1,1,1,0,0,0,0,1,1,1,1,0,0,0,0,0,1,1,1,1,1,1,0,0,0,1,1,0,0,0,1,1,1,1,0,0,0,0,1,1,0,0,0]","location_rts":"[1073,364,408,330,336,371,408,359,298,341,473,1258,702,354,357,379,403,433,426,601,383,417,589,594,974,409,362,458,291,314,331,489,362,8214,581,457,384,337,281,352,336,334,424,355]","trial_type":"two-door-navigation","trial_index":29,"time_elapsed":724188,"internal_node_id":"0.0-2.0-27.0"},{"group":"tri cycles (cube, non-group)","room_assignment":["brown","green","grey","pink","purple","yellow","red","blue"],"door_color_assignment":["white","black"],"door_generator_assignment":[0,1],"goal":5,"start":1,"action_noise":0.1,"location_history":"[1,0,2,6,5]","action_history":"[0,0,1,1]","door_history":"[0,0,1,1]","location_rts":"[640,314,305,333]","trial_type":"two-door-navigation","trial_index":30,"time_elapsed":733380,"internal_node_id":"0.0-2.0-28.0"},{"group":"tri cycles (cube, non-group)","room_assignment":["brown","green","grey","pink","purple","yellow","red","blue"],"door_color_assignment":["white","black"],"door_generator_assignment":[0,1],"goal":4,"start":5,"action_noise":0.1,"location_history":"[5,2,6,5,2,1,0,2,1,5,2,6,5,1,0,2,6,5,2,1,0,3,7,3,4]","action_history":"[1,1,1,1,0,0,0,0,1,1,1,1,0,0,0,1,1,1,0,0,0,0,1,1]","door_history":"[1,1,1,1,0,0,0,0,1,1,1,1,0,0,0,1,1,1,0,0,0,0,1,1]","location_rts":"[1127,321,279,851,391,314,337,329,344,298,640,946,472,313,311,289,491,377,266,324,304,744,803,353]","trial_type":"two-door-navigation","trial_index":31,"time_elapsed":772668,"internal_node_id":"0.0-2.0-29.0"},{"group":"tri cycles (cube, non-group)","room_assignment":["brown","green","grey","pink","purple","yellow","red","blue"],"door_color_assignment":["white","black"],"door_generator_assignment":[0,1],"goal":6,"start":4,"action_noise":0.1,"location_history":"[4,0,3,4,7,6]","action_history":"[1,1,1,0,0]","door_history":"[1,1,1,0,0]","location_rts":"[538,337,299,345,306]","trial_type":"two-door-navigation","trial_index":32,"time_elapsed":783116,"internal_node_id":"0.0-2.0-30.0"},{"group":"tri cycles (cube, non-group)","room_assignment":["brown","green","grey","pink","purple","yellow","red","blue"],"door_color_assignment":["white","black"],"door_generator_assignment":[0,1],"goal":4,"start":6,"action_noise":0.1,"location_history":"[6,4]","action_history":"[0]","door_history":"[0]","location_rts":"[576]","trial_type":"two-door-navigation","trial_index":33,"time_elapsed":788219,"internal_node_id":"0.0-2.0-31.0"},{"group":"tri cycles (cube, non-group)","room_assignment":["brown","green","grey","pink","purple","yellow","red","blue"],"door_color_assignment":["white","black"],"door_generator_assignment":[0,1],"goal":2,"start":4,"action_noise":0.1,"location_history":"[4,7,6,4,0,3,4,0,3,7,6,4,0,3,4,7,6,4,7,3,4,0,3,4,7,6,4,7,3,4,7,6,5,2]","action_history":"[0,0,0,1,1,1,1,0,0,0,0,1,1,1,1,0,0,0,0,1,1,1,1,0,0,0,0,1,0,0,0,1,1]","door_history":"[0,0,0,1,1,1,1,0,0,0,0,1,1,1,1,0,0,0,0,1,1,1,1,0,0,0,0,1,0,0,0,1,1]","location_rts":"[665,403,319,397,347,522,297,313,526,306,378,307,362,625,353,392,339,300,410,549,337,315,524,297,434,284,202,578,696,563,309,346,300]","trial_type":"two-door-navigation","trial_index":34,"time_elapsed":838786,"internal_node_id":"0.0-2.0-32.0"},{"group":"tri cycles (cube, non-group)","room_assignment":["brown","green","grey","pink","purple","yellow","red","blue"],"door_color_assignment":["white","black"],"door_generator_assignment":[0,1],"goal":0,"start":2,"action_noise":0.1,"location_history":"[2,6,5,1,5,2,1,0]","action_history":"[1,1,1,0,0,0,0]","door_history":"[1,1,1,0,0,0,0]","location_rts":"[593,306,301,305,275,772,347]","trial_type":"two-door-navigation","trial_index":35,"time_elapsed":852356,"internal_node_id":"0.0-2.0-33.0"},{"group":"tri cycles (cube, non-group)","room_assignment":["brown","green","grey","pink","purple","yellow","red","blue"],"door_color_assignment":["white","black"],"door_generator_assignment":[0,1],"goal":5,"start":0,"action_noise":0.1,"location_history":"[0,3,7,3,4,0,3,4,0,3,4,7,6,5]","action_history":"[0,0,0,1,1,1,1,1,1,0,0,0,1]","door_history":"[0,0,0,1,1,1,1,1,1,0,0,0,1]","location_rts":"[545,327,281,345,331,432,313,394,402,352,282,274,296]","trial_type":"two-door-navigation","trial_index":36,"time_elapsed":873739,"internal_node_id":"0.0-2.0-34.0"},{"group":"tri cycles (cube, non-group)","room_assignment":["brown","green","grey","pink","purple","yellow","red","blue"],"door_color_assignment":["white","black"],"door_generator_assignment":[0,1],"goal":1,"start":5,"action_noise":0.1,"location_history":"[5,1]","action_history":"[0]","door_history":"[0]","location_rts":"[945]","trial_type":"two-door-navigation","trial_index":37,"time_elapsed":879211,"internal_node_id":"0.0-2.0-35.0"},{"group":"tri cycles (cube, non-group)","room_assignment":["brown","green","grey","pink","purple","yellow","red","blue"],"door_color_assignment":["white","black"],"door_generator_assignment":[0,1],"goal":7,"start":1,"action_noise":0.1,"location_history":"[1,0,2,1,5,2,6,5,1,0,2,1,5,2,6,5,1,0,3,7]","action_history":"[0,0,0,1,1,1,1,0,0,0,0,1,1,1,1,0,0,0,0]","door_history":"[0,0,0,1,1,1,1,0,0,0,0,1,1,1,1,0,0,0,0]","location_rts":"[992,347,309,337,545,297,283,327,347,345,330,379,503,273,280,331,441,329,338]","trial_type":"two-door-navigation","trial_index":38,"time_elapsed":909491,"internal_node_id":"0.0-2.0-36.0"},{"group":"tri cycles (cube, non-group)","room_assignment":["brown","green","grey","pink","purple","yellow","red","blue"],"door_color_assignment":["white","black"],"door_generator_assignment":[0,1],"goal":3,"start":7,"action_noise":0.1,"location_history":"[7,3]","action_history":"[1]","door_history":"[1]","location_rts":"[1033]","trial_type":"two-door-navigation","trial_index":39,"time_elapsed":915053,"internal_node_id":"0.0-2.0-37.0"},{"group":"tri cycles (cube, non-group)","room_assignment":["brown","green","grey","pink","purple","yellow","red","blue"],"door_color_assignment":["white","black"],"door_generator_assignment":[0,1],"goal":6,"start":3,"action_noise":0.1,"location_history":"[3,4,0,3,7,3,7,6]","action_history":"[1,1,1,1,0,0,0]","door_history":"[1,1,1,1,0,0,0]","location_rts":"[558,590,377,408,348,328,338]","trial_type":"two-door-navigation","trial_index":40,"time_elapsed":928667,"internal_node_id":"0.0-2.0-38.0"},{"group":"tri cycles (cube, non-group)","room_assignment":["brown","green","grey","pink","purple","yellow","red","blue"],"door_color_assignment":["white","black"],"door_generator_assignment":[0,1],"goal":2,"start":6,"action_noise":0.1,"location_history":"[6,4,7,6,5,2]","action_history":"[0,0,0,1,1]","door_history":"[0,0,0,1,1]","location_rts":"[392,313,298,304,337]","trial_type":"two-door-navigation","trial_index":41,"time_elapsed":938938,"internal_node_id":"0.0-2.0-39.0"},{"group":"tri cycles (cube, non-group)","room_assignment":["brown","green","grey","pink","purple","yellow","red","blue"],"door_color_assignment":["white","black"],"door_generator_assignment":[0,1],"goal":1,"start":2,"action_noise":0.1,"location_history":"[2,6,5,1]","action_history":"[1,1,1]","door_history":"[1,1,1]","location_rts":"[402,265,266]","trial_type":"two-door-navigation","trial_index":42,"time_elapsed":946444,"internal_node_id":"0.0-2.0-40.0"},{"group":"tri cycles (cube, non-group)","room_assignment":["brown","green","grey","pink","purple","yellow","red","blue"],"door_color_assignment":["white","black"],"door_generator_assignment":[0,1],"goal":0,"start":1,"action_noise":0.1,"location_history":"[1,0]","action_history":"[0]","door_history":"[0]","location_rts":"[559]","trial_type":"two-door-navigation","trial_index":43,"time_elapsed":951533,"internal_node_id":"0.0-2.0-41.0"},{"group":"tri cycles (cube, non-group)","room_assignment":["brown","green","grey","pink","purple","yellow","red","blue"],"door_color_assignment":["white","black"],"door_generator_assignment":[0,1],"goal":4,"start":0,"action_noise":0.1,"location_history":"[0,3,7,6,5,2,6,5,1,5,1,0,2,1,5,2,6,5,2,6,4]","action_history":"[0,0,0,1,1,1,1,1,0,0,0,0,1,1,1,1,1,1,1,0]","door_history":"[0,0,0,1,1,1,1,1,0,0,0,0,1,1,1,1,1,1,1,0]","location_rts":"[607,337,498,362,361,490,562,469,585,304,392,306,461,331,313,432,322,439,449,345]","trial_type":"two-door-navigation","trial_index":44,"time_elapsed":983874,"internal_node_id":"0.0-2.0-42.0"},{"group":"tri cycles (cube, non-group)","room_assignment":["brown","green","grey","pink","purple","yellow","red","blue"],"door_color_assignment":["white","black"],"door_generator_assignment":[0,1],"goal":6,"start":4,"action_noise":0.1,"location_history":"[4,7,6]","action_history":"[0,0]","door_history":"[0,0]","location_rts":"[818,345]","trial_type":"two-door-navigation","trial_index":45,"time_elapsed":990586,"internal_node_id":"0.0-2.0-43.0"},{"group":"tri cycles (cube, non-group)","room_assignment":["brown","green","grey","pink","purple","yellow","red","blue"],"door_color_assignment":["white","black"],"door_generator_assignment":[0,1],"goal":3,"start":6,"action_noise":0.1,"location_history":"[6,4,7,6,5,2,6,4,0,3]","action_history":"[0,0,0,1,1,1,1,1,1]","door_history":"[0,0,0,1,1,1,1,1,1]","location_rts":"[479,299,397,564,392,290,385,421,552]","trial_type":"two-door-navigation","trial_index":46,"time_elapsed":1007079,"internal_node_id":"0.0-2.0-44.0"},{"group":"tri cycles (cube, non-group)","room_assignment":["brown","green","grey","pink","purple","yellow","red","blue"],"door_color_assignment":["white","black"],"door_generator_assignment":[0,1],"goal":7,"start":3,"action_noise":0.1,"location_history":"[3,7]","action_history":"[0]","door_history":"[0]","location_rts":"[702]","trial_type":"two-door-navigation","trial_index":47,"time_elapsed":1012318,"internal_node_id":"0.0-2.0-45.0"},{"group":"tri cycles (cube, non-group)","room_assignment":["brown","green","grey","pink","purple","yellow","red","blue"],"door_color_assignment":["white","black"],"door_generator_assignment":[0,1],"goal":5,"start":7,"action_noise":0.1,"location_history":"[7,6,4,0,3,7,3,4,7,6,4,7,3,4,0,3,7,6,4,7,3,4,0,3,4,0,2,6,5]","action_history":"[0,0,0,1,1,1,1,0,0,0,0,0,1,1,1,0,0,0,0,1,1,1,1,1,1,0,0,1]","door_history":"[0,0,0,1,1,1,1,0,0,0,0,0,1,1,1,0,0,0,0,1,1,1,1,1,1,0,0,1]","location_rts":"[12722,377,265,395,497,314,385,409,325,337,314,393,441,296,529,290,326,331,393,521,320,185,362,311,257,313,301,258]","trial_type":"two-door-navigation","trial_index":48,"time_elapsed":1066650,"internal_node_id":"0.0-2.0-46.0"},{"group":"tri cycles (cube, non-group)","room_assignment":["brown","green","grey","pink","purple","yellow","red","blue"],"door_color_assignment":["white","black"],"door_generator_assignment":[0,1],"goal":1,"start":5,"action_noise":0.1,"location_history":"[5,1]","action_history":"[0]","door_history":"[0]","location_rts":"[959]","trial_type":"two-door-navigation","trial_index":49,"time_elapsed":1072139,"internal_node_id":"0.0-2.0-47.0"},{"group":"tri cycles (cube, non-group)","room_assignment":["brown","green","grey","pink","purple","yellow","red","blue"],"door_color_assignment":["white","black"],"door_generator_assignment":[0,1],"goal":6,"start":1,"action_noise":0.1,"location_history":"[1,0,2,1,5,2,6]","action_history":"[0,0,0,1,1,1]","door_history":"[0,0,0,1,1,1]","location_rts":"[767,482,482,301,287,346]","trial_type":"two-door-navigation","trial_index":50,"time_elapsed":1084449,"internal_node_id":"0.0-2.0-48.0"},{"group":"tri cycles (cube, non-group)","room_assignment":["brown","green","grey","pink","purple","yellow","red","blue"],"door_color_assignment":["white","black"],"door_generator_assignment":[0,1],"goal":0,"start":6,"action_noise":0.1,"location_history":"[6,5,2,6,4,7,6,4,0]","action_history":"[1,1,1,0,0,0,0,1]","door_history":"[1,1,1,0,0,0,0,1]","location_rts":"[881,309,312,365,547,305,305,313]","trial_type":"two-door-navigation","trial_index":51,"time_elapsed":1099476,"internal_node_id":"0.0-2.0-49.0"},{"view_history":"[{\"page_index\":0,\"viewing_time\":3384}]","rt":3385,"trial_type":"instructions","trial_index":52,"time_elapsed":1103862,"internal_node_id":"0.0-3.0"},{"view_history":"[{\"page_index\":0,\"viewing_time\":2213},{\"page_index\":1,\"viewing_time\":3008}]","rt":5222,"trial_type":"instructions","trial_index":53,"time_elapsed":1110085,"internal_node_id":"0.0-4.0"},{"group":"tri cycles (cube, non-group)","fractal_assignment":["../images/ylw_slt.png","../images/gry_blk.png","../images/grn_red.png","../images/blu_wht.png","../images/ylw_pnk.png","../images/cyn_red.png","../images/org_blu.png","../images/pnk_blu.png"],"mutagen_generator_assignment":[0,1],"goal":6,"start":3,"action_noise":0.1,"location_history":"[3,4,0,2,1,5,2,6]","action_history":"[1,1,1,1,1,1,0]","mutagen_history":"[1,1,1,1,1,1,0]","location_rts":"[11849,925,209,362,395,346,486]","trial_type":"fractal-mutation","trial_index":54,"time_elapsed":1135552,"internal_node_id":"0.0-5.0-0.0"},{"group":"tri cycles (cube, non-group)","fractal_assignment":["../images/ylw_slt.png","../images/gry_blk.png","../images/grn_red.png","../images/blu_wht.png","../images/ylw_pnk.png","../images/cyn_red.png","../images/org_blu.png","../images/pnk_blu.png"],"mutagen_generator_assignment":[0,1],"goal":1,"start":6,"action_noise":0.1,"location_history":"[6,4,7,6,4,7,6,4,7,3,4,0,3,4,0,3,7,6,4,7,6,4,7,3,4,0,3,4,0,2,1]","action_history":"[0,0,0,0,0,0,0,0,1,1,1,1,1,1,1,0,0,0,0,0,0,0,1,1,1,1,1,1,0,0]","mutagen_history":"[0,0,0,0,0,0,0,0,1,1,1,1,1,1,1,0,0,0,0,0,0,0,1,1,1,1,1,1,0,0]","location_rts":"[538,393,454,237,1109,827,370,411,310,502,360,328,335,399,432,346,514,365,397,499,285,317,327,395,368,305,305,356,338,408]","trial_type":"fractal-mutation","trial_index":55,"time_elapsed":1182847,"internal_node_id":"0.0-5.0-1.0"},{"group":"tri cycles (cube, non-group)","fractal_assignment":["../images/ylw_slt.png","../images/gry_blk.png","../images/grn_red.png","../images/blu_wht.png","../images/ylw_pnk.png","../images/cyn_red.png","../images/org_blu.png","../images/pnk_blu.png"],"mutagen_generator_assignment":[0,1],"goal":2,"start":1,"action_noise":0.1,"location_history":"[1,0,2]","action_history":"[0,0]","mutagen_history":"[0,0]","location_rts":"[445,315]","trial_type":"fractal-mutation","trial_index":56,"time_elapsed":1189166,"internal_node_id":"0.0-5.0-2.0"},{"group":"tri cycles (cube, non-group)","fractal_assignment":["../images/ylw_slt.png","../images/gry_blk.png","../images/grn_red.png","../images/blu_wht.png","../images/ylw_pnk.png","../images/cyn_red.png","../images/org_blu.png","../images/pnk_blu.png"],"mutagen_generator_assignment":[0,1],"goal":0,"start":2,"action_noise":0.1,"location_history":"[2,1,0]","action_history":"[0,0]","mutagen_history":"[0,0]","location_rts":"[419,387]","trial_type":"fractal-mutation","trial_index":57,"time_elapsed":1195536,"internal_node_id":"0.0-5.0-3.0"},{"group":"tri cycles (cube, non-group)","fractal_assignment":["../images/ylw_slt.png","../images/gry_blk.png","../images/grn_red.png","../images/blu_wht.png","../images/ylw_pnk.png","../images/cyn_red.png","../images/org_blu.png","../images/pnk_blu.png"],"mutagen_generator_assignment":[0,1],"goal":7,"start":0,"action_noise":0.1,"location_history":"[0,3,7]","action_history":"[0,0]","mutagen_history":"[0,0]","location_rts":"[758,272]","trial_type":"fractal-mutation","trial_index":58,"time_elapsed":1202128,"internal_node_id":"0.0-5.0-4.0"},{"group":"tri cycles (cube, non-group)","fractal_assignment":["../images/ylw_slt.png","../images/gry_blk.png","../images/grn_red.png","../images/blu_wht.png","../images/ylw_pnk.png","../images/cyn_red.png","../images/org_blu.png","../images/pnk_blu.png"],"mutagen_generator_assignment":[0,1],"goal":5,"start":7,"action_noise":0.1,"location_history":"[7,6,4,0,2,6,5]","action_history":"[0,0,0,0,1,1]","mutagen_history":"[0,0,0,0,1,1]","location_rts":"[405,345,390,392,323,391]","trial_type":"fractal-mutation","trial_index":59,"time_elapsed":1214100,"internal_node_id":"0.0-5.0-5.0"},{"group":"tri cycles (cube, non-group)","fractal_assignment":["../images/ylw_slt.png","../images/gry_blk.png","../images/grn_red.png","../images/blu_wht.png","../images/ylw_pnk.png","../images/cyn_red.png","../images/org_blu.png","../images/pnk_blu.png"],"mutagen_generator_assignment":[0,1],"goal":4,"start":5,"action_noise":0.1,"location_history":"[5,2,6,4]","action_history":"[1,1,1]","mutagen_history":"[1,1,1]","location_rts":"[527,324,357]","trial_type":"fractal-mutation","trial_index":60,"time_elapsed":1221959,"internal_node_id":"0.0-5.0-6.0"},{"group":"tri cycles (cube, non-group)","fractal_assignment":["../images/ylw_slt.png","../images/gry_blk.png","../images/grn_red.png","../images/blu_wht.png","../images/ylw_pnk.png","../images/cyn_red.png","../images/org_blu.png","../images/pnk_blu.png"],"mutagen_generator_assignment":[0,1],"goal":2,"start":4,"action_noise":0.1,"location_history":"[4,0,2]","action_history":"[1,1]","mutagen_history":"[1,1]","location_rts":"[476,319]","trial_type":"fractal-mutation","trial_index":61,"time_elapsed":1228367,"internal_node_id":"0.0-5.0-7.0"},{"group":"tri cycles (cube, non-group)","fractal_assignment":["../images/ylw_slt.png","../images/gry_blk.png","../images/grn_red.png","../images/blu_wht.png","../images/ylw_pnk.png","../images/cyn_red.png","../images/org_blu.png","../images/pnk_blu.png"],"mutagen_generator_assignment":[0,1],"goal":3,"start":2,"action_noise":0.1,"location_history":"[2,6,5,2,6,5,2,6,5,2,1,0,2,1,0,2,1,5,1,5,2,1,0,2,1,0,2,6,5,2,6,5,1,0,2,6,4,7,6,4,7,6,5,2,6,4,0,3]","action_history":"[1,1,1,1,1,1,1,1,1,0,0,0,0,0,0,0,1,1,1,1,0,0,0,0,0,0,1,1,1,1,1,0,0,0,1,0,0,0,0,0,0,1,1,1,1,1,1]","mutagen_history":"[1,1,1,1,1,1,1,1,1,0,0,0,0,0,0,0,1,1,1,1,0,0,0,0,0,0,1,1,1,1,1,0,0,0,1,0,0,0,0,0,0,1,1,1,1,1,1]","location_rts":"[821,383,321,303,279,334,273,424,292,289,667,347,297,318,345,326,474,279,270,259,241,344,495,292,238,278,292,288,345,208,184,97,324,269,301,300,298,298,410,327,296,489,341,186,265,247,260]","trial_type":"fractal-mutation","trial_index":62,"time_elapsed":1296023,"internal_node_id":"0.0-5.0-8.0"},{"group":"tri cycles (cube, non-group)","fractal_assignment":["../images/ylw_slt.png","../images/gry_blk.png","../images/grn_red.png","../images/blu_wht.png","../images/ylw_pnk.png","../images/cyn_red.png","../images/org_blu.png","../images/pnk_blu.png"],"mutagen_generator_assignment":[0,1],"goal":7,"start":3,"action_noise":0.1,"location_history":"[3,4,0,2,1,0,2,6,4,7]","action_history":"[1,1,1,1,0,0,0,0,0]","mutagen_history":"[1,1,1,1,0,0,0,0,0]","location_rts":"[522,380,268,302,217,334,403,302,307]","trial_type":"fractal-mutation","trial_index":63,"time_elapsed":1311893,"internal_node_id":"0.0-5.0-9.0"},{"group":"tri cycles (cube, non-group)","fractal_assignment":["../images/ylw_slt.png","../images/gry_blk.png","../images/grn_red.png","../images/blu_wht.png","../images/ylw_pnk.png","../images/cyn_red.png","../images/org_blu.png","../images/pnk_blu.png"],"mutagen_generator_assignment":[0,1],"goal":0,"start":7,"action_noise":0.1,"location_history":"[7,6,4,0]","action_history":"[0,0,0]","mutagen_history":"[0,0,0]","location_rts":"[394,335,176]","trial_type":"fractal-mutation","trial_index":64,"time_elapsed":1319399,"internal_node_id":"0.0-5.0-10.0"},{"group":"tri cycles (cube, non-group)","fractal_assignment":["../images/ylw_slt.png","../images/gry_blk.png","../images/grn_red.png","../images/blu_wht.png","../images/ylw_pnk.png","../images/cyn_red.png","../images/org_blu.png","../images/pnk_blu.png"],"mutagen_generator_assignment":[0,1],"goal":1,"start":0,"action_noise":0.1,"location_history":"[0,3,4,0,3,7,6,4,0,3,4,7,3,4,0,3,4,0,3,7,6,4,7,6,5,1]","action_history":"[1,1,1,1,0,0,0,0,1,1,1,1,1,1,1,1,1,1,0,0,0,0,0,0,0]","mutagen_history":"[1,1,1,1,0,0,0,0,1,1,1,1,1,1,1,1,1,1,0,0,0,0,0,0,0]","location_rts":"[2198,147,430,2691,22471,340,344,234,309,318,167,245,184,280,136,266,293,126,323,338,246,239,227,278,494]","trial_type":"fractal-mutation","trial_index":65,"time_elapsed":1382252,"internal_node_id":"0.0-5.0-11.0"},{"group":"tri cycles (cube, non-group)","fractal_assignment":["../images/ylw_slt.png","../images/gry_blk.png","../images/grn_red.png","../images/blu_wht.png","../images/ylw_pnk.png","../images/cyn_red.png","../images/org_blu.png","../images/pnk_blu.png"],"mutagen_generator_assignment":[0,1],"goal":6,"start":1,"action_noise":0.1,"location_history":"[1,5,2,6]","action_history":"[1,1,1]","mutagen_history":"[1,1,1]","location_rts":"[690,311,206]","trial_type":"fractal-mutation","trial_index":66,"time_elapsed":1390106,"internal_node_id":"0.0-5.0-12.0"},{"group":"tri cycles (cube, non-group)","fractal_assignment":["../images/ylw_slt.png","../images/gry_blk.png","../images/grn_red.png","../images/blu_wht.png","../images/ylw_pnk.png","../images/cyn_red.png","../images/org_blu.png","../images/pnk_blu.png"],"mutagen_generator_assignment":[0,1],"goal":4,"start":6,"action_noise":0.1,"location_history":"[6,5,2,1,0,2,1,0,2,6,5,1,5,2,6,5,1,0,3,7,3,7,6,5,2,1,0,2,1,0,2,6,4]","action_history":"[1,1,0,0,0,0,0,0,1,1,1,1,1,1,1,0,0,0,0,0,0,0,1,1,0,0,0,0,0,0,1,0]","mutagen_history":"[1,1,0,0,0,0,0,0,1,1,1,1,1,1,1,0,0,0,0,0,0,0,1,1,0,0,0,0,0,0,1,0]","location_rts":"[448,239,287,412,330,308,311,496,290,329,134,232,125,150,172,272,314,259,357,168,285,142,251,6628,138,205,154,234,305,268,497,355]","trial_type":"fractal-mutation","trial_index":67,"time_elapsed":1441944,"internal_node_id":"0.0-5.0-13.0"},{"group":"tri cycles (cube, non-group)","fractal_assignment":["../images/ylw_slt.png","../images/gry_blk.png","../images/grn_red.png","../images/blu_wht.png","../images/ylw_pnk.png","../images/cyn_red.png","../images/org_blu.png","../images/pnk_blu.png"],"mutagen_generator_assignment":[0,1],"goal":5,"start":4,"action_noise":0.1,"location_history":"[4,7,6,5]","action_history":"[0,0,1]","mutagen_history":"[0,0,1]","location_rts":"[2551,219,339]","trial_type":"fractal-mutation","trial_index":68,"time_elapsed":1451675,"internal_node_id":"0.0-5.0-14.0"},{"group":"tri cycles (cube, non-group)","fractal_assignment":["../images/ylw_slt.png","../images/gry_blk.png","../images/grn_red.png","../images/blu_wht.png","../images/ylw_pnk.png","../images/cyn_red.png","../images/org_blu.png","../images/pnk_blu.png"],"mutagen_generator_assignment":[0,1],"goal":4,"start":5,"action_noise":0.1,"location_history":"[5,2,6,5,2,6,4]","action_history":"[1,1,1,0,0,0]","mutagen_history":"[1,1,1,0,0,0]","location_rts":"[283,149,102,169,137,273]","trial_type":"fractal-mutation","trial_index":69,"time_elapsed":1462529,"internal_node_id":"0.0-5.0-15.0"},{"group":"tri cycles (cube, non-group)","fractal_assignment":["../images/ylw_slt.png","../images/gry_blk.png","../images/grn_red.png","../images/blu_wht.png","../images/ylw_pnk.png","../images/cyn_red.png","../images/org_blu.png","../images/pnk_blu.png"],"mutagen_generator_assignment":[0,1],"goal":0,"start":4,"action_noise":0.1,"location_history":"[4,0]","action_history":"[1]","mutagen_history":"[1]","location_rts":"[339]","trial_type":"fractal-mutation","trial_index":70,"time_elapsed":1467422,"internal_node_id":"0.0-5.0-16.0"},{"group":"tri cycles (cube, non-group)","fractal_assignment":["../images/ylw_slt.png","../images/gry_blk.png","../images/grn_red.png","../images/blu_wht.png","../images/ylw_pnk.png","../images/cyn_red.png","../images/org_blu.png","../images/pnk_blu.png"],"mutagen_generator_assignment":[0,1],"goal":7,"start":0,"action_noise":0.1,"location_history":"[0,3,4,0,2,1,0,2,1,0,3,7]","action_history":"[1,1,1,0,0,0,0,0,0,1,0]","mutagen_history":"[1,1,1,0,0,0,0,0,0,1,0]","location_rts":"[345,324,303,305,333,323,237,293,530,328,396]","trial_type":"fractal-mutation","trial_index":71,"time_elapsed":1486054,"internal_node_id":"0.0-5.0-17.0"},{"group":"tri cycles (cube, non-group)","fractal_assignment":["../images/ylw_slt.png","../images/gry_blk.png","../images/grn_red.png","../images/blu_wht.png","../images/ylw_pnk.png","../images/cyn_red.png","../images/org_blu.png","../images/pnk_blu.png"],"mutagen_generator_assignment":[0,1],"goal":2,"start":7,"action_noise":0.1,"location_history":"[7,3,4,0,2]","action_history":"[1,1,1,1]","mutagen_history":"[1,1,1,1]","location_rts":"[478,380,191,185]","trial_type":"fractal-mutation","trial_index":72,"time_elapsed":1494981,"internal_node_id":"0.0-5.0-18.0"},{"group":"tri cycles (cube, non-group)","fractal_assignment":["../images/ylw_slt.png","../images/gry_blk.png","../images/grn_red.png","../images/blu_wht.png","../images/ylw_pnk.png","../images/cyn_red.png","../images/org_blu.png","../images/pnk_blu.png"],"mutagen_generator_assignment":[0,1],"goal":1,"start":2,"action_noise":0.1,"location_history":"[2,6,5,2,6,4,7,6,4,7,6,4,0,2,6,4,7,6,4,0,3,4,0,3,4,0,2,1]","action_history":"[1,1,1,1,0,0,0,0,0,0,0,1,1,1,0,0,0,0,1,1,1,1,1,1,1,0,0]","mutagen_history":"[1,1,1,1,0,0,0,0,0,0,0,1,1,1,0,0,0,0,1,1,1,1,1,1,1,0,0]","location_rts":"[341,263,204,136,292,299,219,210,135,182,224,157,317,294,161,415,335,171,239,199,89,168,151,223,315,356,334]","trial_type":"fractal-mutation","trial_index":73,"time_elapsed":1532987,"internal_node_id":"0.0-5.0-19.0"},{"group":"tri cycles (cube, non-group)","fractal_assignment":["../images/ylw_slt.png","../images/gry_blk.png","../images/grn_red.png","../images/blu_wht.png","../images/ylw_pnk.png","../images/cyn_red.png","../images/org_blu.png","../images/pnk_blu.png"],"mutagen_generator_assignment":[0,1],"goal":3,"start":1,"action_noise":0.1,"location_history":"[1,5,2,6,5,1,5,2,1,0,3]","action_history":"[1,1,1,1,0,0,0,0,0,1]","mutagen_history":"[1,1,1,1,0,0,0,0,0,1]","location_rts":"[679,322,111,213,242,292,299,234,223,346]","trial_type":"fractal-mutation","trial_index":74,"time_elapsed":1549853,"internal_node_id":"0.0-5.0-20.0"},{"group":"tri cycles (cube, non-group)","fractal_assignment":["../images/ylw_slt.png","../images/gry_blk.png","../images/grn_red.png","../images/blu_wht.png","../images/ylw_pnk.png","../images/cyn_red.png","../images/org_blu.png","../images/pnk_blu.png"],"mutagen_generator_assignment":[0,1],"goal":6,"start":3,"action_noise":0.1,"location_history":"[3,4,0,3,4,0,2,1,5,1,0,2,6]","action_history":"[1,1,1,1,1,0,0,0,0,0,0,0]","mutagen_history":"[1,1,1,1,1,0,0,0,0,0,0,0]","location_rts":"[356,246,315,306,107,314,288,461,305,188,112,256]","trial_type":"fractal-mutation","trial_index":75,"time_elapsed":1569087,"internal_node_id":"0.0-5.0-21.0"},{"group":"tri cycles (cube, non-group)","fractal_assignment":["../images/ylw_slt.png","../images/gry_blk.png","../images/grn_red.png","../images/blu_wht.png","../images/ylw_pnk.png","../images/cyn_red.png","../images/org_blu.png","../images/pnk_blu.png"],"mutagen_generator_assignment":[0,1],"goal":5,"start":6,"action_noise":0.1,"location_history":"[6,5]","action_history":"[1]","mutagen_history":"[1]","location_rts":"[264]","trial_type":"fractal-mutation","trial_index":76,"time_elapsed":1573900,"internal_node_id":"0.0-5.0-22.0"},{"group":"tri cycles (cube, non-group)","fractal_assignment":["../images/ylw_slt.png","../images/gry_blk.png","../images/grn_red.png","../images/blu_wht.png","../images/ylw_pnk.png","../images/cyn_red.png","../images/org_blu.png","../images/pnk_blu.png"],"mutagen_generator_assignment":[0,1],"goal":3,"start":5,"action_noise":0.1,"location_history":"[5,2,6,4,7,3]","action_history":"[1,1,1,1,1]","mutagen_history":"[1,1,1,1,1]","location_rts":"[1076,91,1181,29,33]","trial_type":"fractal-mutation","trial_index":77,"time_elapsed":1585044,"internal_node_id":"0.0-5.0-23.0"},{"group":"tri cycles (cube, non-group)","fractal_assignment":["../images/ylw_slt.png","../images/gry_blk.png","../images/grn_red.png","../images/blu_wht.png","../images/ylw_pnk.png","../images/cyn_red.png","../images/org_blu.png","../images/pnk_blu.png"],"mutagen_generator_assignment":[0,1],"goal":0,"start":3,"action_noise":0.1,"location_history":"[3,4,7,6,4,7,6,4,0]","action_history":"[0,0,0,0,0,0,0,1]","mutagen_history":"[0,0,0,0,0,0,0,1]","location_rts":"[360,382,256,187,252,175,233,300]","trial_type":"fractal-mutation","trial_index":78,"time_elapsed":1598982,"internal_node_id":"0.0-5.0-24.0"},{"group":"tri cycles (cube, non-group)","fractal_assignment":["../images/ylw_slt.png","../images/gry_blk.png","../images/grn_red.png","../images/blu_wht.png","../images/ylw_pnk.png","../images/cyn_red.png","../images/org_blu.png","../images/pnk_blu.png"],"mutagen_generator_assignment":[0,1],"goal":7,"start":0,"action_noise":0.1,"location_history":"[0,3,4,7]","action_history":"[1,1,1]","mutagen_history":"[1,1,1]","location_rts":"[455,247,142]","trial_type":"fractal-mutation","trial_index":79,"time_elapsed":1606467,"internal_node_id":"0.0-5.0-25.0"},{"group":"tri cycles (cube, non-group)","fractal_assignment":["../images/ylw_slt.png","../images/gry_blk.png","../images/grn_red.png","../images/blu_wht.png","../images/ylw_pnk.png","../images/cyn_red.png","../images/org_blu.png","../images/pnk_blu.png"],"mutagen_generator_assignment":[0,1],"goal":2,"start":7,"action_noise":0.1,"location_history":"[7,3,4,0,2]","action_history":"[1,1,1,1]","mutagen_history":"[1,1,1,1]","location_rts":"[255,209,231,176]","trial_type":"fractal-mutation","trial_index":80,"time_elapsed":1615038,"internal_node_id":"0.0-5.0-26.0"},{"group":"tri cycles (cube, non-group)","fractal_assignment":["../images/ylw_slt.png","../images/gry_blk.png","../images/grn_red.png","../images/blu_wht.png","../images/ylw_pnk.png","../images/cyn_red.png","../images/org_blu.png","../images/pnk_blu.png"],"mutagen_generator_assignment":[0,1],"goal":1,"start":2,"action_noise":0.1,"location_history":"[2,6,5,2,1]","action_history":"[1,1,1,0]","mutagen_history":"[1,1,1,0]","location_rts":"[1123,181,159,332]","trial_type":"fractal-mutation","trial_index":81,"time_elapsed":1624502,"internal_node_id":"0.0-5.0-27.0"},{"group":"tri cycles (cube, non-group)","fractal_assignment":["../images/ylw_slt.png","../images/gry_blk.png","../images/grn_red.png","../images/blu_wht.png","../images/ylw_pnk.png","../images/cyn_red.png","../images/org_blu.png","../images/pnk_blu.png"],"mutagen_generator_assignment":[0,1],"goal":5,"start":1,"action_noise":0.1,"location_history":"[1,5]","action_history":"[0]","mutagen_history":"[0]","location_rts":"[366]","trial_type":"fractal-mutation","trial_index":82,"time_elapsed":1629413,"internal_node_id":"0.0-5.0-28.0"},{"group":"tri cycles (cube, non-group)","fractal_assignment":["../images/ylw_slt.png","../images/gry_blk.png","../images/grn_red.png","../images/blu_wht.png","../images/ylw_pnk.png","../images/cyn_red.png","../images/org_blu.png","../images/pnk_blu.png"],"mutagen_generator_assignment":[0,1],"goal":4,"start":5,"action_noise":0.1,"location_history":"[5,1,0,2,6,5,2,1,5,2,1,0,2,1,0,3,7,3,7,6,5,1,0,3,4]","action_history":"[0,0,0,1,1,1,1,1,1,0,0,0,0,0,1,1,1,0,0,0,0,0,1,1]","mutagen_history":"[0,0,0,1,1,1,1,1,1,0,0,0,0,0,1,1,1,0,0,0,0,0,1,1]","location_rts":"[473,316,444,334,255,227,182,200,210,488,340,311,245,287,220,283,168,302,193,207,332,181,293,172]","trial_type":"fractal-mutation","trial_index":83,"time_elapsed":1664477,"internal_node_id":"0.0-5.0-29.0"},{"group":"tri cycles (cube, non-group)","fractal_assignment":["../images/ylw_slt.png","../images/gry_blk.png","../images/grn_red.png","../images/blu_wht.png","../images/ylw_pnk.png","../images/cyn_red.png","../images/org_blu.png","../images/pnk_blu.png"],"mutagen_generator_assignment":[0,1],"goal":6,"start":4,"action_noise":0.1,"location_history":"[4,0,2,6]","action_history":"[1,1,1]","mutagen_history":"[1,1,1]","location_rts":"[376,281,189]","trial_type":"fractal-mutation","trial_index":84,"time_elapsed":1671966,"internal_node_id":"0.0-5.0-30.0"},{"group":"tri cycles (cube, non-group)","fractal_assignment":["../images/ylw_slt.png","../images/gry_blk.png","../images/grn_red.png","../images/blu_wht.png","../images/ylw_pnk.png","../images/cyn_red.png","../images/org_blu.png","../images/pnk_blu.png"],"mutagen_generator_assignment":[0,1],"goal":4,"start":6,"action_noise":0.1,"location_history":"[6,5,2,6,5,2,1,0,3,4]","action_history":"[1,1,1,1,1,0,0,0,0]","mutagen_history":"[1,1,1,1,1,0,0,0,0]","location_rts":"[340,144,113,167,166,360,251,315,90]","trial_type":"fractal-mutation","trial_index":85,"time_elapsed":1686788,"internal_node_id":"0.0-5.0-31.0"},{"group":"tri cycles (cube, non-group)","fractal_assignment":["../images/ylw_slt.png","../images/gry_blk.png","../images/grn_red.png","../images/blu_wht.png","../images/ylw_pnk.png","../images/cyn_red.png","../images/org_blu.png","../images/pnk_blu.png"],"mutagen_generator_assignment":[0,1],"goal":2,"start":4,"action_noise":0.1,"location_history":"[4,7,3,4,0,3,4,0,3,7,6,4,7,6,4,7,6,4,0,3,4,0,3,7,3,7,3,4,0,3,7,6,4,0,2]","action_history":"[1,1,1,1,1,1,1,0,0,0,0,0,0,0,0,0,0,1,1,1,1,1,0,0,0,1,1,1,1,0,0,0,0,0]","mutagen_history":"[1,1,1,1,1,1,1,0,0,0,0,0,0,0,0,0,0,1,1,1,1,1,0,0,0,1,1,1,1,0,0,0,0,0]","location_rts":"[480,340,1203,1117,179,152,117,170,237,158,273,31,219,156,147,113,91,214,217,76,237,205,341,562,97,276,391,97,88,194,321,212,242,610]","trial_type":"fractal-mutation","trial_index":86,"time_elapsed":1735187,"internal_node_id":"0.0-5.0-32.0"},{"group":"tri cycles (cube, non-group)","fractal_assignment":["../images/ylw_slt.png","../images/gry_blk.png","../images/grn_red.png","../images/blu_wht.png","../images/ylw_pnk.png","../images/cyn_red.png","../images/org_blu.png","../images/pnk_blu.png"],"mutagen_generator_assignment":[0,1],"goal":0,"start":2,"action_noise":0.1,"location_history":"[2,1,0]","action_history":"[0,0]","mutagen_history":"[0,0]","location_rts":"[385,276]","trial_type":"fractal-mutation","trial_index":87,"time_elapsed":1741404,"internal_node_id":"0.0-5.0-33.0"},{"group":"tri cycles (cube, non-group)","fractal_assignment":["../images/ylw_slt.png","../images/gry_blk.png","../images/grn_red.png","../images/blu_wht.png","../images/ylw_pnk.png","../images/cyn_red.png","../images/org_blu.png","../images/pnk_blu.png"],"mutagen_generator_assignment":[0,1],"goal":5,"start":0,"action_noise":0.1,"location_history":"[0,2,1,0,3,4,0,2,6,5]","action_history":"[0,0,0,1,1,1,1,0,0]","mutagen_history":"[0,0,0,1,1,1,1,0,0]","location_rts":"[374,197,77,313,69,1100,646,295,1593]","trial_type":"fractal-mutation","trial_index":88,"time_elapsed":1758948,"internal_node_id":"0.0-5.0-34.0"},{"group":"tri cycles (cube, non-group)","fractal_assignment":["../images/ylw_slt.png","../images/gry_blk.png","../images/grn_red.png","../images/blu_wht.png","../images/ylw_pnk.png","../images/cyn_red.png","../images/org_blu.png","../images/pnk_blu.png"],"mutagen_generator_assignment":[0,1],"goal":1,"start":5,"action_noise":0.1,"location_history":"[5,2,6,5,2,6,5,1]","action_history":"[1,1,1,1,1,1,0]","mutagen_history":"[1,1,1,1,1,1,0]","location_rts":"[596,145,85,141,237,1316,106]","trial_type":"fractal-mutation","trial_index":89,"time_elapsed":1772393,"internal_node_id":"0.0-5.0-35.0"},{"group":"tri cycles (cube, non-group)","fractal_assignment":["../images/ylw_slt.png","../images/gry_blk.png","../images/grn_red.png","../images/blu_wht.png","../images/ylw_pnk.png","../images/cyn_red.png","../images/org_blu.png","../images/pnk_blu.png"],"mutagen_generator_assignment":[0,1],"goal":7,"start":1,"action_noise":0.1,"location_history":"[1,0,2,1,5,1,5,2,6,5,2,6,5,1,0,2,1,5,2,1,5,2,6,5,1,0,2,1,5,2,6,5,2,6,4,7]","action_history":"[0,0,0,0,0,1,1,1,1,1,1,1,0,0,0,0,1,1,1,1,1,1,0,0,0,0,0,1,1,1,1,1,1,0,0]","mutagen_history":"[0,0,0,0,0,1,1,1,1,1,1,1,0,0,0,0,1,1,1,1,1,1,0,0,0,0,0,1,1,1,1,1,1,0,0]","location_rts":"[715,234,470,489,377,435,229,365,354,18,1180,371,543,303,234,185,410,1158,52,131,277,107,290,319,143,205,468,344,352,301,165,178,162,196,305]","trial_type":"fractal-mutation","trial_index":90,"time_elapsed":1824335,"internal_node_id":"0.0-5.0-36.0"},{"group":"tri cycles (cube, non-group)","fractal_assignment":["../images/ylw_slt.png","../images/gry_blk.png","../images/grn_red.png","../images/blu_wht.png","../images/ylw_pnk.png","../images/cyn_red.png","../images/org_blu.png","../images/pnk_blu.png"],"mutagen_generator_assignment":[0,1],"goal":3,"start":7,"action_noise":0.1,"location_history":"[7,3]","action_history":"[0]","mutagen_history":"[0]","location_rts":"[374]","trial_type":"fractal-mutation","trial_index":91,"time_elapsed":1829242,"internal_node_id":"0.0-5.0-37.0"},{"group":"tri cycles (cube, non-group)","fractal_assignment":["../images/ylw_slt.png","../images/gry_blk.png","../images/grn_red.png","../images/blu_wht.png","../images/ylw_pnk.png","../images/cyn_red.png","../images/org_blu.png","../images/pnk_blu.png"],"mutagen_generator_assignment":[0,1],"goal":6,"start":3,"action_noise":0.1,"location_history":"[3,7,6]","action_history":"[0,0]","mutagen_history":"[0,0]","location_rts":"[405,301]","trial_type":"fractal-mutation","trial_index":92,"time_elapsed":1835517,"internal_node_id":"0.0-5.0-38.0"},{"group":"tri cycles (cube, non-group)","fractal_assignment":["../images/ylw_slt.png","../images/gry_blk.png","../images/grn_red.png","../images/blu_wht.png","../images/ylw_pnk.png","../images/cyn_red.png","../images/org_blu.png","../images/pnk_blu.png"],"mutagen_generator_assignment":[0,1],"goal":2,"start":6,"action_noise":0.1,"location_history":"[6,5,2]","action_history":"[1,1]","mutagen_history":"[1,1]","location_rts":"[328,273]","trial_type":"fractal-mutation","trial_index":93,"time_elapsed":1841722,"internal_node_id":"0.0-5.0-39.0"},{"group":"tri cycles (cube, non-group)","fractal_assignment":["../images/ylw_slt.png","../images/gry_blk.png","../images/grn_red.png","../images/blu_wht.png","../images/ylw_pnk.png","../images/cyn_red.png","../images/org_blu.png","../images/pnk_blu.png"],"mutagen_generator_assignment":[0,1],"goal":1,"start":2,"action_noise":0.1,"location_history":"[2,6,5,2,6,4,7,6,4,7,3,4,0,2,6,4,7,3,4,0,3,4,0,2,1]","action_history":"[1,1,1,1,0,0,0,0,0,1,1,1,0,0,0,0,0,1,1,1,1,1,0,0]","mutagen_history":"[1,1,1,1,0,0,0,0,0,1,1,1,0,0,0,0,0,1,1,1,1,1,0,0]","location_rts":"[532,139,141,227,224,306,280,308,294,319,301,259,341,362,326,403,231,265,348,258,254,242,297,434]","trial_type":"fractal-mutation","trial_index":94,"time_elapsed":1877258,"internal_node_id":"0.0-5.0-40.0"},{"group":"tri cycles (cube, non-group)","fractal_assignment":["../images/ylw_slt.png","../images/gry_blk.png","../images/grn_red.png","../images/blu_wht.png","../images/ylw_pnk.png","../images/cyn_red.png","../images/org_blu.png","../images/pnk_blu.png"],"mutagen_generator_assignment":[0,1],"goal":0,"start":1,"action_noise":0.1,"location_history":"[1,0]","action_history":"[0]","mutagen_history":"[0]","location_rts":"[400]","trial_type":"fractal-mutation","trial_index":95,"time_elapsed":1882196,"internal_node_id":"0.0-5.0-41.0"},{"group":"tri cycles (cube, non-group)","fractal_assignment":["../images/ylw_slt.png","../images/gry_blk.png","../images/grn_red.png","../images/blu_wht.png","../images/ylw_pnk.png","../images/cyn_red.png","../images/org_blu.png","../images/pnk_blu.png"],"mutagen_generator_assignment":[0,1],"goal":4,"start":0,"action_noise":0.1,"location_history":"[0,3,4]","action_history":"[1,1]","mutagen_history":"[1,1]","location_rts":"[479,201]","trial_type":"fractal-mutation","trial_index":96,"time_elapsed":1888478,"internal_node_id":"0.0-5.0-42.0"},{"group":"tri cycles (cube, non-group)","fractal_assignment":["../images/ylw_slt.png","../images/gry_blk.png","../images/grn_red.png","../images/blu_wht.png","../images/ylw_pnk.png","../images/cyn_red.png","../images/org_blu.png","../images/pnk_blu.png"],"mutagen_generator_assignment":[0,1],"goal":6,"start":4,"action_noise":0.1,"location_history":"[4,7,6]","action_history":"[0,0]","mutagen_history":"[0,0]","location_rts":"[395,210]","trial_type":"fractal-mutation","trial_index":97,"time_elapsed":1894658,"internal_node_id":"0.0-5.0-43.0"},{"group":"tri cycles (cube, non-group)","fractal_assignment":["../images/ylw_slt.png","../images/gry_blk.png","../images/grn_red.png","../images/blu_wht.png","../images/ylw_pnk.png","../images/cyn_red.png","../images/org_blu.png","../images/pnk_blu.png"],"mutagen_generator_assignment":[0,1],"goal":3,"start":6,"action_noise":0.1,"location_history":"[6,5,2,6,5,2,6,5,1,0,2,1,0,3]","action_history":"[1,1,1,1,1,1,1,0,0,0,0,0,1]","mutagen_history":"[1,1,1,1,1,1,1,0,0,0,0,0,1]","location_rts":"[428,131,164,288,109,274,242,228,227,224,162,296,315]","trial_type":"fractal-mutation","trial_index":98,"time_elapsed":1914773,"internal_node_id":"0.0-5.0-44.0"},{"group":"tri cycles (cube, non-group)","fractal_assignment":["../images/ylw_slt.png","../images/gry_blk.png","../images/grn_red.png","../images/blu_wht.png","../images/ylw_pnk.png","../images/cyn_red.png","../images/org_blu.png","../images/pnk_blu.png"],"mutagen_generator_assignment":[0,1],"goal":7,"start":3,"action_noise":0.1,"location_history":"[3,4,7]","action_history":"[1,1]","mutagen_history":"[1,1]","location_rts":"[419,192]","trial_type":"fractal-mutation","trial_index":99,"time_elapsed":1920986,"internal_node_id":"0.0-5.0-45.0"},{"group":"tri cycles (cube, non-group)","fractal_assignment":["../images/ylw_slt.png","../images/gry_blk.png","../images/grn_red.png","../images/blu_wht.png","../images/ylw_pnk.png","../images/cyn_red.png","../images/org_blu.png","../images/pnk_blu.png"],"mutagen_generator_assignment":[0,1],"goal":5,"start":7,"action_noise":0.1,"location_history":"[7,3,4,0,3,4,7,6,4,0,3,4,7,6,4,7,6,5]","action_history":"[1,1,1,1,0,0,0,0,0,1,1,1,0,0,0,0,1]","mutagen_history":"[1,1,1,1,0,0,0,0,0,1,1,1,0,0,0,0,1]","location_rts":"[442,279,270,245,303,309,171,223,413,312,274,180,318,297,275,256,296]","trial_type":"fractal-mutation","trial_index":100,"time_elapsed":1947016,"internal_node_id":"0.0-5.0-46.0"},{"group":"tri cycles (cube, non-group)","fractal_assignment":["../images/ylw_slt.png","../images/gry_blk.png","../images/grn_red.png","../images/blu_wht.png","../images/ylw_pnk.png","../images/cyn_red.png","../images/org_blu.png","../images/pnk_blu.png"],"mutagen_generator_assignment":[0,1],"goal":1,"start":5,"action_noise":0.1,"location_history":"[5,1]","action_history":"[0]","mutagen_history":"[0]","location_rts":"[400]","trial_type":"fractal-mutation","trial_index":101,"time_elapsed":1951953,"internal_node_id":"0.0-5.0-47.0"},{"group":"tri cycles (cube, non-group)","fractal_assignment":["../images/ylw_slt.png","../images/gry_blk.png","../images/grn_red.png","../images/blu_wht.png","../images/ylw_pnk.png","../images/cyn_red.png","../images/org_blu.png","../images/pnk_blu.png"],"mutagen_generator_assignment":[0,1],"goal":6,"start":1,"action_noise":0.1,"location_history":"[1,0,2,1,0,3,7,3,7,6]","action_history":"[0,0,0,0,1,1,1,1,0]","mutagen_history":"[0,0,0,0,1,1,1,1,0]","location_rts":"[457,358,297,277,267,155,186,144,133]","trial_type":"fractal-mutation","trial_index":102,"time_elapsed":1967075,"internal_node_id":"0.0-5.0-48.0"},{"group":"tri cycles (cube, non-group)","fractal_assignment":["../images/ylw_slt.png","../images/gry_blk.png","../images/grn_red.png","../images/blu_wht.png","../images/ylw_pnk.png","../images/cyn_red.png","../images/org_blu.png","../images/pnk_blu.png"],"mutagen_generator_assignment":[0,1],"goal":0,"start":6,"action_noise":0.1,"location_history":"[6,4,7,6,4,7,6,5,2,6,5,1,0]","action_history":"[0,0,0,0,0,0,1,1,1,1,0,0]","mutagen_history":"[0,0,0,0,0,0,1,1,1,1,0,0]","location_rts":"[459,342,164,463,247,436,257,212,162,146,245,323]","trial_type":"fractal-mutation","trial_index":103,"time_elapsed":1986474,"internal_node_id":"0.0-5.0-49.0"},{"view_history":"[{\"page_index\":0,\"viewing_time\":8293}]","rt":8294,"trial_type":"instructions","trial_index":104,"time_elapsed":1995768,"internal_node_id":"0.0-6.0"},{"rt":6441,"responses":"{\"Q0\":\"Thank you\"}","trial_type":"survey-text","trial_index":105,"time_elapsed":2003224,"internal_node_id":"0.0-7.0"}]