[{"view_history":"[{\"page_index\":0,\"viewing_time\":97148},{\"page_index\":1,\"viewing_time\":7836}]","rt":104986,"trial_type":"instructions","trial_index":0,"time_elapsed":104989,"internal_node_id":"0.0-0.0"},{"view_history":"[{\"page_index\":0,\"viewing_time\":2129},{\"page_index\":1,\"viewing_time\":3786}]","rt":5919,"trial_type":"instructions","trial_index":1,"time_elapsed":111911,"internal_node_id":"0.0-1.0"},{"group":"square cycles (cube, non-group)","room_assignment":["brown","green","pink","grey","blue","purple","red","yellow"],"door_color_assignment":["black","white"],"door_generator_assignment":[0,1],"goal":6,"start":3,"action_noise":0.1,"location_history":"[3,2,3,0,1,2,3,0,1,2,3,0,1,0,4,5,1,0,4,5,1,0,4,7,6]","action_history":"[1,1,1,0,0,0,0,0,0,0,0,0,1,1,1,1,1,1,1,1,1,1,0,0]","door_history":"[1,1,1,0,0,0,0,0,0,0,0,0,1,1,1,1,1,1,1,1,1,1,0,0]","location_rts":"[1869,530,263,308,318,352,306,297,327,407,288,417,1052,420,298,334,318,424,526,261,231,271,668,1894]","trial_type":"two-door-navigation","trial_index":2,"time_elapsed":153465,"internal_node_id":"0.0-2.0-0.0"},{"group":"square cycles (cube, non-group)","room_assignment":["brown","green","pink","grey","blue","purple","red","yellow"],"door_color_assignment":["black","white"],"door_generator_assignment":[0,1],"goal":1,"start":6,"action_noise":0.1,"location_history":"[6,5,4,7,6,5,4,5,1]","action_history":"[0,0,0,0,0,0,1,1]","door_history":"[0,0,0,0,0,0,1,1]","location_rts":"[1834,410,320,335,232,320,270,271]","trial_type":"two-door-navigation","trial_index":3,"time_elapsed":169914,"internal_node_id":"0.0-2.0-1.0"},{"group":"square cycles (cube, non-group)","room_assignment":["brown","green","pink","grey","blue","purple","red","yellow"],"door_color_assignment":["black","white"],"door_generator_assignment":[0,1],"goal":2,"start":1,"action_noise":0.1,"location_history":"[1,2]","action_history":"[1]","door_history":"[1]","location_rts":"[73131]","trial_type":"two-door-navigation","trial_index":4,"time_elapsed":248591,"internal_node_id":"0.0-2.0-2.0"},{"group":"square cycles (cube, non-group)","room_assignment":["brown","green","pink","grey","blue","purple","red","yellow"],"door_color_assignment":["black","white"],"door_generator_assignment":[0,1],"goal":0,"start":2,"action_noise":0.1,"location_history":"[2,6,7,3,0]","action_history":"[1,1,1,0]","door_history":"[1,1,1,0]","location_rts":"[1033,259,316,1271]","trial_type":"two-door-navigation","trial_index":5,"time_elapsed":259103,"internal_node_id":"0.0-2.0-3.0"},{"group":"square cycles (cube, non-group)","room_assignment":["brown","green","pink","grey","blue","purple","red","yellow"],"door_color_assignment":["black","white"],"door_generator_assignment":[0,1],"goal":7,"start":0,"action_noise":0.1,"location_history":"[0,1,2,3,0,1,0,4,5,1,0,4,7]","action_history":"[0,0,0,0,0,1,1,1,1,1,1,0]","door_history":"[0,0,0,0,0,1,1,1,1,1,1,0]","location_rts":"[44451,360,334,305,287,938,337,300,278,334,290,877]","trial_type":"two-door-navigation","trial_index":6,"time_elapsed":324984,"internal_node_id":"0.0-2.0-4.0"},{"group":"square cycles (cube, non-group)","room_assignment":["brown","green","pink","grey","blue","purple","red","yellow"],"door_color_assignment":["black","white"],"door_generator_assignment":[0,1],"goal":5,"start":7,"action_noise":0.1,"location_history":"[7,6,5]","action_history":"[0,0]","door_history":"[0,0]","location_rts":"[179391,301]","trial_type":"two-door-navigation","trial_index":7,"time_elapsed":510270,"internal_node_id":"0.0-2.0-5.0"},{"group":"square cycles (cube, non-group)","room_assignment":["brown","green","pink","grey","blue","purple","red","yellow"],"door_color_assignment":["black","white"],"door_generator_assignment":[0,1],"goal":4,"start":5,"action_noise":0.1,"location_history":"[5,4]","action_history":"[0]","door_history":"[0]","location_rts":"[1159]","trial_type":"two-door-navigation","trial_index":8,"time_elapsed":516901,"internal_node_id":"0.0-2.0-6.0"},{"group":"square cycles (cube, non-group)","room_assignment":["brown","green","pink","grey","blue","purple","red","yellow"],"door_color_assignment":["black","white"],"door_generator_assignment":[0,1],"goal":2,"start":4,"action_noise":0.1,"location_history":"[4,5,1,0,4,5,4,7,6,5,4,5,1,2]","action_history":"[1,1,1,1,1,0,0,0,0,0,1,1,1]","door_history":"[1,1,1,1,1,0,0,0,0,0,1,1,1]","location_rts":"[18402,550,342,287,320,215,267,317,335,407,267,306,306]","trial_type":"two-door-navigation","trial_index":9,"time_elapsed":557900,"internal_node_id":"0.0-2.0-7.0"},{"group":"square cycles (cube, non-group)","room_assignment":["brown","green","pink","grey","blue","purple","red","yellow"],"door_color_assignment":["black","white"],"door_generator_assignment":[0,1],"goal":3,"start":2,"action_noise":0.1,"location_history":"[2,6,7,3]","action_history":"[1,1,1]","door_history":"[1,1,1]","location_rts":"[137874,360,332]","trial_type":"two-door-navigation","trial_index":10,"time_elapsed":704056,"internal_node_id":"0.0-2.0-8.0"},{"group":"square cycles (cube, non-group)","room_assignment":["brown","green","pink","grey","blue","purple","red","yellow"],"door_color_assignment":["black","white"],"door_generator_assignment":[0,1],"goal":7,"start":3,"action_noise":0.1,"location_history":"[3,2,6,5,1,2,3,0,4,5,1,0,4,5,4,7]","action_history":"[0,0,0,0,0,0,0,1,1,1,1,1,1,0,0]","door_history":"[0,0,0,0,0,0,0,1,1,1,1,1,1,0,0]","location_rts":"[9712,1337,381,323,369,316,352,369,228,218,328,276,315,114010,278]","trial_type":"two-door-navigation","trial_index":11,"time_elapsed":851778,"internal_node_id":"0.0-2.0-9.0"},{"group":"square cycles (cube, non-group)","room_assignment":["brown","green","pink","grey","blue","purple","red","yellow"],"door_color_assignment":["black","white"],"door_generator_assignment":[0,1],"goal":0,"start":7,"action_noise":0.1,"location_history":"[7,3,0]","action_history":"[0,0]","door_history":"[0,0]","location_rts":"[382,293]","trial_type":"two-door-navigation","trial_index":12,"time_elapsed":858018,"internal_node_id":"0.0-2.0-10.0"},{"group":"square cycles (cube, non-group)","room_assignment":["brown","green","pink","grey","blue","purple","red","yellow"],"door_color_assignment":["black","white"],"door_generator_assignment":[0,1],"goal":1,"start":0,"action_noise":0.1,"location_history":"[0,4,5,1]","action_history":"[1,1,1]","door_history":"[1,1,1]","location_rts":"[3184,298,381]","trial_type":"two-door-navigation","trial_index":13,"time_elapsed":868480,"internal_node_id":"0.0-2.0-11.0"},{"group":"square cycles (cube, non-group)","room_assignment":["brown","green","pink","grey","blue","purple","red","yellow"],"door_color_assignment":["black","white"],"door_generator_assignment":[0,1],"goal":6,"start":1,"action_noise":0.1,"location_history":"[1,2,3,0,1,2,6]","action_history":"[0,0,0,0,0,1]","door_history":"[0,0,0,0,0,1]","location_rts":"[805211,354,226,231,238,99]","trial_type":"two-door-navigation","trial_index":14,"time_elapsed":1684534,"internal_node_id":"0.0-2.0-12.0"},{"group":"square cycles (cube, non-group)","room_assignment":["brown","green","pink","grey","blue","purple","red","yellow"],"door_color_assignment":["black","white"],"door_generator_assignment":[0,1],"goal":4,"start":6,"action_noise":0.1,"location_history":"[6,5,4]","action_history":"[0,0]","door_history":"[0,0]","location_rts":"[56382,65451]","trial_type":"two-door-navigation","trial_index":15,"time_elapsed":1812410,"internal_node_id":"0.0-2.0-13.0"},{"group":"square cycles (cube, non-group)","room_assignment":["brown","green","pink","grey","blue","purple","red","yellow"],"door_color_assignment":["black","white"],"door_generator_assignment":[0,1],"goal":5,"start":4,"action_noise":0.1,"location_history":"[4,7,6,5]","action_history":"[0,0,0]","door_history":"[0,0,0]","location_rts":"[593,279,290]","trial_type":"two-door-navigation","trial_index":16,"time_elapsed":1820170,"internal_node_id":"0.0-2.0-14.0"},{"group":"square cycles (cube, non-group)","room_assignment":["brown","green","pink","grey","blue","purple","red","yellow"],"door_color_assignment":["black","white"],"door_generator_assignment":[0,1],"goal":4,"start":5,"action_noise":0.1,"location_history":"[5,4]","action_history":"[0]","door_history":"[0]","location_rts":"[324]","trial_type":"two-door-navigation","trial_index":17,"time_elapsed":1825024,"internal_node_id":"0.0-2.0-15.0"},{"group":"square cycles (cube, non-group)","room_assignment":["brown","green","pink","grey","blue","purple","red","yellow"],"door_color_assignment":["black","white"],"door_generator_assignment":[0,1],"goal":0,"start":4,"action_noise":0.1,"location_history":"[4,5,1,2,6,7,3,2,3,0]","action_history":"[1,1,1,1,1,1,1,0,0]","door_history":"[1,1,1,1,1,1,1,0,0]","location_rts":"[1598,348,353,860,1662,304,1513,945,456]","trial_type":"two-door-navigation","trial_index":18,"time_elapsed":1845902,"internal_node_id":"0.0-2.0-16.0"},{"group":"square cycles (cube, non-group)","room_assignment":["brown","green","pink","grey","blue","purple","red","yellow"],"door_color_assignment":["black","white"],"door_generator_assignment":[0,1],"goal":7,"start":0,"action_noise":0.1,"location_history":"[0,1,2,3,0,4,5,1,0,4,5,1,2,3,0,4,5,1,0,4,7]","action_history":"[0,0,0,0,1,1,1,1,1,1,0,0,0,0,1,1,1,1,1,1]","door_history":"[0,0,0,0,1,1,1,1,1,1,0,0,0,0,1,1,1,1,1,1]","location_rts":"[57705,307,362,46084,249,274,342,302,368,308,641,361,283,289,460,246,225,209,270,111920]","trial_type":"two-door-navigation","trial_index":19,"time_elapsed":2092906,"internal_node_id":"0.0-2.0-17.0"},{"group":"square cycles (cube, non-group)","room_assignment":["brown","green","pink","grey","blue","purple","red","yellow"],"door_color_assignment":["black","white"],"door_generator_assignment":[0,1],"goal":2,"start":7,"action_noise":0.1,"location_history":"[7,6,5,4,7,3,0,4,5,1,2]","action_history":"[0,0,0,0,0,0,1,1,1,0]","door_history":"[0,0,0,0,0,0,1,1,1,0]","location_rts":"[13355,349,284,384,393,464,738,2360,6228,2419]","trial_type":"two-door-navigation","trial_index":20,"time_elapsed":2134685,"internal_node_id":"0.0-2.0-18.0"},{"group":"square cycles (cube, non-group)","room_assignment":["brown","green","pink","grey","blue","purple","red","yellow"],"door_color_assignment":["black","white"],"door_generator_assignment":[0,1],"goal":1,"start":2,"action_noise":0.1,"location_history":"[2,3,0,4,5,1]","action_history":"[0,0,1,1,1]","door_history":"[0,0,1,1,1]","location_rts":"[30748,318,894,748,270]","trial_type":"two-door-navigation","trial_index":21,"time_elapsed":2176898,"internal_node_id":"0.0-2.0-19.0"},{"group":"square cycles (cube, non-group)","room_assignment":["brown","green","pink","grey","blue","purple","red","yellow"],"door_color_assignment":["black","white"],"door_generator_assignment":[0,1],"goal":3,"start":1,"action_noise":0.1,"location_history":"[1,2,3]","action_history":"[0,0]","door_history":"[0,0]","location_rts":"[28978,376]","trial_type":"two-door-navigation","trial_index":22,"time_elapsed":2211926,"internal_node_id":"0.0-2.0-20.0"},{"group":"square cycles (cube, non-group)","room_assignment":["brown","green","pink","grey","blue","purple","red","yellow"],"door_color_assignment":["black","white"],"door_generator_assignment":[0,1],"goal":6,"start":3,"action_noise":0.1,"location_history":"[3,0,4,5,4,5,4,7,3,0,1,2,6]","action_history":"[1,1,1,1,1,0,0,0,0,0,0,1]","door_history":"[1,1,1,1,1,0,0,0,0,0,0,1]","location_rts":"[500,335,281,412,398,478,290,328,319,277,289,931]","trial_type":"two-door-navigation","trial_index":23,"time_elapsed":2232594,"internal_node_id":"0.0-2.0-21.0"},{"group":"square cycles (cube, non-group)","room_assignment":["brown","green","pink","grey","blue","purple","red","yellow"],"door_color_assignment":["black","white"],"door_generator_assignment":[0,1],"goal":5,"start":6,"action_noise":0.1,"location_history":"[6,7,3,0,1,2,3,2,6,7,3,2,6,7,3,0,1,2,3,0,4,5]","action_history":"[1,1,1,0,0,0,0,1,1,1,1,1,1,1,0,0,0,0,0,1,1]","door_history":"[1,1,1,0,0,0,0,1,1,1,1,1,1,1,0,0,0,0,0,1,1]","location_rts":"[1939,342,290,121824,324,361,348,281,287,268,463,20758,264,225,291,271,244,273,273,421,302]","trial_type":"two-door-navigation","trial_index":24,"time_elapsed":2407825,"internal_node_id":"0.0-2.0-22.0"},{"group":"square cycles (cube, non-group)","room_assignment":["brown","green","pink","grey","blue","purple","red","yellow"],"door_color_assignment":["black","white"],"door_generator_assignment":[0,1],"goal":3,"start":5,"action_noise":0.1,"location_history":"[5,4,7,6,7,6,7,3]","action_history":"[0,0,0,1,1,1,1]","door_history":"[0,0,0,1,1,1,1]","location_rts":"[1218,279,244,588,288,284,283]","trial_type":"two-door-navigation","trial_index":25,"time_elapsed":2421915,"internal_node_id":"0.0-2.0-23.0"},{"group":"square cycles (cube, non-group)","room_assignment":["brown","green","pink","grey","blue","purple","red","yellow"],"door_color_assignment":["black","white"],"door_generator_assignment":[0,1],"goal":0,"start":3,"action_noise":0.1,"location_history":"[3,2,3,2,6,7,6,7,3,0]","action_history":"[1,1,1,1,1,1,1,1,0]","door_history":"[1,1,1,1,1,1,1,1,0]","location_rts":"[6843,349,419,341,430,326,243,397,1470]","trial_type":"two-door-navigation","trial_index":26,"time_elapsed":2446518,"internal_node_id":"0.0-2.0-24.0"},{"group":"square cycles (cube, non-group)","room_assignment":["brown","green","pink","grey","blue","purple","red","yellow"],"door_color_assignment":["black","white"],"door_generator_assignment":[0,1],"goal":7,"start":0,"action_noise":0.1,"location_history":"[0,1,2,3,2,3,2,6,7]","action_history":"[0,0,0,1,1,1,1,1]","door_history":"[0,0,0,1,1,1,1,1]","location_rts":"[938,479,364,449,317,278,324,318]","trial_type":"two-door-navigation","trial_index":27,"time_elapsed":2461902,"internal_node_id":"0.0-2.0-25.0"},{"group":"square cycles (cube, non-group)","room_assignment":["brown","green","pink","grey","blue","purple","red","yellow"],"door_color_assignment":["black","white"],"door_generator_assignment":[0,1],"goal":2,"start":7,"action_noise":0.1,"location_history":"[7,6,5,4,5,1,0,4,5,1,0,1,0,1,2]","action_history":"[0,0,0,1,1,1,1,1,1,1,0,0,0,0]","door_history":"[0,0,0,1,1,1,1,1,1,1,0,0,0,0]","location_rts":"[768,400,343,325,295,293,245,504,249,313,965,321,293,299]","trial_type":"two-door-navigation","trial_index":28,"time_elapsed":2485903,"internal_node_id":"0.0-2.0-26.0"},{"group":"square cycles (cube, non-group)","room_assignment":["brown","green","pink","grey","blue","purple","red","yellow"],"door_color_assignment":["black","white"],"door_generator_assignment":[0,1],"goal":1,"start":2,"action_noise":0.1,"location_history":"[2,3,0,1]","action_history":"[0,0,0]","door_history":"[0,0,0]","location_rts":"[8047,308,264]","trial_type":"two-door-navigation","trial_index":29,"time_elapsed":2502142,"internal_node_id":"0.0-2.0-27.0"},{"group":"square cycles (cube, non-group)","room_assignment":["brown","green","pink","grey","blue","purple","red","yellow"],"door_color_assignment":["black","white"],"door_generator_assignment":[0,1],"goal":5,"start":1,"action_noise":0.1,"location_history":"[1,2,3,0,1,2,6,5]","action_history":"[0,0,0,0,0,1,1]","door_history":"[0,0,0,0,0,1,1]","location_rts":"[891,305,387,299,406,705,295]","trial_type":"two-door-navigation","trial_index":30,"time_elapsed":2516897,"internal_node_id":"0.0-2.0-28.0"},{"group":"square cycles (cube, non-group)","room_assignment":["brown","green","pink","grey","blue","purple","red","yellow"],"door_color_assignment":["black","white"],"door_generator_assignment":[0,1],"goal":4,"start":5,"action_noise":0.1,"location_history":"[5,4]","action_history":"[0]","door_history":"[0]","location_rts":"[61837]","trial_type":"two-door-navigation","trial_index":31,"time_elapsed":2584267,"internal_node_id":"0.0-2.0-29.0"},{"group":"square cycles (cube, non-group)","room_assignment":["brown","green","pink","grey","blue","purple","red","yellow"],"door_color_assignment":["black","white"],"door_generator_assignment":[0,1],"goal":6,"start":4,"action_noise":0.1,"location_history":"[4,7,6]","action_history":"[0,0]","door_history":"[0,0]","location_rts":"[5018,363]","trial_type":"two-door-navigation","trial_index":32,"time_elapsed":2595245,"internal_node_id":"0.0-2.0-30.0"},{"group":"square cycles (cube, non-group)","room_assignment":["brown","green","pink","grey","blue","purple","red","yellow"],"door_color_assignment":["black","white"],"door_generator_assignment":[0,1],"goal":4,"start":6,"action_noise":0.1,"location_history":"[6,7,6,7,3,2,3,0,1,0,1,0,1,2,6,7,3,2,6,7,6,5,4]","action_history":"[1,1,1,1,1,0,0,0,0,0,0,0,0,1,1,1,1,1,1,0,0,0]","door_history":"[1,1,1,1,1,0,0,0,0,0,0,0,0,1,1,1,1,1,1,0,0,0]","location_rts":"[744,355,259,344,273,264,245,96,352,258,276,298,335,519,255,318,356,286,329,1006,286,358]","trial_type":"two-door-navigation","trial_index":33,"time_elapsed":2629898,"internal_node_id":"0.0-2.0-31.0"},{"group":"square cycles (cube, non-group)","room_assignment":["brown","green","pink","grey","blue","purple","red","yellow"],"door_color_assignment":["black","white"],"door_generator_assignment":[0,1],"goal":2,"start":4,"action_noise":0.1,"location_history":"[4,7,6,5,1,0,4,5,4,5,1,0,4,5,4,7,6,5,4,5,4,5,1,0,4,7,6,5,4,7,6,5,1,0,4,5,1,0,1,2]","action_history":"[0,0,0,1,1,1,1,1,1,1,1,1,1,0,0,0,0,0,0,0,0,1,1,1,0,0,0,0,0,0,0,1,1,1,1,1,1,0,0]","door_history":"[0,0,0,1,1,1,1,1,1,1,1,1,1,0,0,0,0,0,0,0,0,1,1,1,0,0,0,0,0,0,0,1,1,1,1,1,1,0,0]","location_rts":"[68314,289,288,284,244,254,831,361,292,307,310,314,304,217,280,226,232,272,260,273,323,1121,4366,299,517,260,554,489,281,4624,357,340,338,298,329,547,348,210,275]","trial_type":"two-door-navigation","trial_index":34,"time_elapsed":2764721,"internal_node_id":"0.0-2.0-32.0"},{"group":"square cycles (cube, non-group)","room_assignment":["brown","green","pink","grey","blue","purple","red","yellow"],"door_color_assignment":["black","white"],"door_generator_assignment":[0,1],"goal":0,"start":2,"action_noise":0.1,"location_history":"[2,6,7,3,2,3,2,3,2,6,5,4,7,6,5,4,7,6,5,4,7,3,2,6,7,3,2,6,7,6,7,6,7,6,5,4,7,6,7,6,7,3,0]","action_history":"[1,1,1,1,0,0,0,0,0,0,0,0,0,0,0,0,0,0,0,0,0,1,1,1,1,1,1,1,0,0,0,0,0,0,0,0,0,1,1,1,1,1]","door_history":"[1,1,1,1,0,0,0,0,0,0,0,0,0,0,0,0,0,0,0,0,0,1,1,1,1,1,1,1,0,0,0,0,0,0,0,0,0,1,1,1,1,1]","location_rts":"[3192,439,317,299,292,2859,337,290,296,865,385,334,501,367,408,385,344,378,354,351,408,1058,319,335,271,281,332,263,12077,277,235,265,262,259,451,280,274,569,307,271,260,322]","trial_type":"two-door-navigation","trial_index":35,"time_elapsed":2844058,"internal_node_id":"0.0-2.0-33.0"},{"group":"square cycles (cube, non-group)","room_assignment":["brown","green","pink","grey","blue","purple","red","yellow"],"door_color_assignment":["black","white"],"door_generator_assignment":[0,1],"goal":5,"start":0,"action_noise":0.1,"location_history":"[0,1,2,3,0,1,0,1,0,4,7,3,2,3,0,1,2,3,2,6,7,6,7,3,2,6,5]","action_history":"[0,0,0,0,0,1,1,1,1,1,1,1,0,0,0,0,0,1,1,1,1,1,1,1,1,0]","door_history":"[0,0,0,0,0,1,1,1,1,1,1,1,0,0,0,0,0,1,1,1,1,1,1,1,1,0]","location_rts":"[10826,344,294,304,257,1359,463,290,967,312,324,390,358,415,285,342,290,263,292,236,267,266,252,387,266,470]","trial_type":"two-door-navigation","trial_index":36,"time_elapsed":2894921,"internal_node_id":"0.0-2.0-34.0"},{"group":"square cycles (cube, non-group)","room_assignment":["brown","green","pink","grey","blue","purple","red","yellow"],"door_color_assignment":["black","white"],"door_generator_assignment":[0,1],"goal":1,"start":5,"action_noise":0.1,"location_history":"[5,4,7,6,5,4,5,1]","action_history":"[0,0,0,0,0,1,1]","door_history":"[0,0,0,0,0,1,1]","location_rts":"[46623,462,242,269,272,278,253]","trial_type":"two-door-navigation","trial_index":37,"time_elapsed":2954027,"internal_node_id":"0.0-2.0-35.0"},{"group":"square cycles (cube, non-group)","room_assignment":["brown","green","pink","grey","blue","purple","red","yellow"],"door_color_assignment":["black","white"],"door_generator_assignment":[0,1],"goal":7,"start":1,"action_noise":0.1,"location_history":"[1,2,3,0,4,5,1,0,4,7]","action_history":"[0,0,0,1,1,1,1,1,0]","door_history":"[0,0,0,1,1,1,1,1,0]","location_rts":"[158254,275,250,588,283,270,286,311,186]","trial_type":"two-door-navigation","trial_index":38,"time_elapsed":3127949,"internal_node_id":"0.0-2.0-36.0"},{"group":"square cycles (cube, non-group)","room_assignment":["brown","green","pink","grey","blue","purple","red","yellow"],"door_color_assignment":["black","white"],"door_generator_assignment":[0,1],"goal":3,"start":7,"action_noise":0.1,"location_history":"[7,3]","action_history":"[1]","door_history":"[1]","location_rts":"[62621]","trial_type":"two-door-navigation","trial_index":39,"time_elapsed":3196047,"internal_node_id":"0.0-2.0-37.0"},{"group":"square cycles (cube, non-group)","room_assignment":["brown","green","pink","grey","blue","purple","red","yellow"],"door_color_assignment":["black","white"],"door_generator_assignment":[0,1],"goal":6,"start":3,"action_noise":0.1,"location_history":"[3,2,6]","action_history":"[1,1]","door_history":"[1,1]","location_rts":"[379,291]","trial_type":"two-door-navigation","trial_index":40,"time_elapsed":3202900,"internal_node_id":"0.0-2.0-38.0"},{"group":"square cycles (cube, non-group)","room_assignment":["brown","green","pink","grey","blue","purple","red","yellow"],"door_color_assignment":["black","white"],"door_generator_assignment":[0,1],"goal":2,"start":6,"action_noise":0.1,"location_history":"[6,5,4,7,6,7,3,2]","action_history":"[0,0,0,0,1,1,1]","door_history":"[0,0,0,0,1,1,1]","location_rts":"[328249,472,249,100,22,553,695]","trial_type":"two-door-navigation","trial_index":41,"time_elapsed":3544988,"internal_node_id":"0.0-2.0-39.0"},{"group":"square cycles (cube, non-group)","room_assignment":["brown","green","pink","grey","blue","purple","red","yellow"],"door_color_assignment":["black","white"],"door_generator_assignment":[0,1],"goal":1,"start":2,"action_noise":0.1,"location_history":"[2,3,2,6,7,3,0,1]","action_history":"[1,1,1,1,1,0,0]","door_history":"[1,1,1,1,1,0,0]","location_rts":"[876,268,249,246,208,213,94]","trial_type":"two-door-navigation","trial_index":42,"time_elapsed":3557858,"internal_node_id":"0.0-2.0-40.0"},{"group":"square cycles (cube, non-group)","room_assignment":["brown","green","pink","grey","blue","purple","red","yellow"],"door_color_assignment":["black","white"],"door_generator_assignment":[0,1],"goal":0,"start":1,"action_noise":0.1,"location_history":"[1,2,3,2,3,0]","action_history":"[0,0,0,0,0]","door_history":"[0,0,0,0,0]","location_rts":"[889,380,1155,9100,269]","trial_type":"two-door-navigation","trial_index":43,"time_elapsed":3578901,"internal_node_id":"0.0-2.0-41.0"},{"group":"square cycles (cube, non-group)","room_assignment":["brown","green","pink","grey","blue","purple","red","yellow"],"door_color_assignment":["black","white"],"door_generator_assignment":[0,1],"goal":4,"start":0,"action_noise":0.1,"location_history":"[0,1,2,3,0,1,0,4]","action_history":"[0,0,0,0,0,1,1]","door_history":"[0,0,0,0,0,1,1]","location_rts":"[3085,276,330,292,237,166,238]","trial_type":"two-door-navigation","trial_index":44,"time_elapsed":3595896,"internal_node_id":"0.0-2.0-42.0"},{"group":"square cycles (cube, non-group)","room_assignment":["brown","green","pink","grey","blue","purple","red","yellow"],"door_color_assignment":["black","white"],"door_generator_assignment":[0,1],"goal":6,"start":4,"action_noise":0.1,"location_history":"[4,7,3,0,1,0,4,5,1,0,4,5,4,7,6]","action_history":"[0,0,0,0,0,1,1,1,1,1,1,0,0,0]","door_history":"[0,0,0,0,0,1,1,1,1,1,1,0,0,0]","location_rts":"[1760,119,170,232,185,701,100,222,218,256,260,186,235,199]","trial_type":"two-door-navigation","trial_index":45,"time_elapsed":3618899,"internal_node_id":"0.0-2.0-43.0"},{"group":"square cycles (cube, non-group)","room_assignment":["brown","green","pink","grey","blue","purple","red","yellow"],"door_color_assignment":["black","white"],"door_generator_assignment":[0,1],"goal":3,"start":6,"action_noise":0.1,"location_history":"[6,5,4,7,6,5,1,0,4,5,1,0,4,7,6,5,4,7,3]","action_history":"[0,0,0,0,0,1,1,1,1,1,1,1,0,0,0,0,0,1]","door_history":"[0,0,0,0,0,1,1,1,1,1,1,1,0,0,0,0,0,1]","location_rts":"[8791,378,237,198,230,255,196,218,272,255,289,274,111627,613,119,305,277,70]","trial_type":"two-door-navigation","trial_index":46,"time_elapsed":3766605,"internal_node_id":"0.0-2.0-44.0"},{"group":"square cycles (cube, non-group)","room_assignment":["brown","green","pink","grey","blue","purple","red","yellow"],"door_color_assignment":["black","white"],"door_generator_assignment":[0,1],"goal":7,"start":3,"action_noise":0.1,"location_history":"[3,2,6,5,4,7]","action_history":"[1,1,1,0,0]","door_history":"[1,1,1,0,0]","location_rts":"[8169,258,377,85,69]","trial_type":"two-door-navigation","trial_index":47,"time_elapsed":3784897,"internal_node_id":"0.0-2.0-45.0"},{"group":"square cycles (cube, non-group)","room_assignment":["brown","green","pink","grey","blue","purple","red","yellow"],"door_color_assignment":["black","white"],"door_generator_assignment":[0,1],"goal":5,"start":7,"action_noise":0.1,"location_history":"[7,6,5]","action_history":"[0,0]","door_history":"[0,0]","location_rts":"[29510,347]","trial_type":"two-door-navigation","trial_index":48,"time_elapsed":3820689,"internal_node_id":"0.0-2.0-46.0"},{"group":"square cycles (cube, non-group)","room_assignment":["brown","green","pink","grey","blue","purple","red","yellow"],"door_color_assignment":["black","white"],"door_generator_assignment":[0,1],"goal":1,"start":5,"action_noise":0.1,"location_history":"[5,1]","action_history":"[1]","door_history":"[1]","location_rts":"[271]","trial_type":"two-door-navigation","trial_index":49,"time_elapsed":3825513,"internal_node_id":"0.0-2.0-47.0"},{"group":"square cycles (cube, non-group)","room_assignment":["brown","green","pink","grey","blue","purple","red","yellow"],"door_color_assignment":["black","white"],"door_generator_assignment":[0,1],"goal":6,"start":1,"action_noise":0.1,"location_history":"[1,2,6]","action_history":"[1,1]","door_history":"[1,1]","location_rts":"[439,263]","trial_type":"two-door-navigation","trial_index":50,"time_elapsed":3831789,"internal_node_id":"0.0-2.0-48.0"},{"group":"square cycles (cube, non-group)","room_assignment":["brown","green","pink","grey","blue","purple","red","yellow"],"door_color_assignment":["black","white"],"door_generator_assignment":[0,1],"goal":0,"start":6,"action_noise":0.1,"location_history":"[6,7,3,2,6,7,3,0]","action_history":"[1,1,1,1,1,1,0]","door_history":"[1,1,1,1,1,1,0]","location_rts":"[453,360,276,277,301,308,870]","trial_type":"two-door-navigation","trial_index":51,"time_elapsed":3845365,"internal_node_id":"0.0-2.0-49.0"},{"view_history":"[{\"page_index\":0,\"viewing_time\":1349}]","rt":1350,"trial_type":"instructions","trial_index":52,"time_elapsed":3847717,"internal_node_id":"0.0-3.0"},{"view_history":"[{\"page_index\":0,\"viewing_time\":1044},{\"page_index\":1,\"viewing_time\":1104}]","rt":2149,"trial_type":"instructions","trial_index":53,"time_elapsed":3850869,"internal_node_id":"0.0-4.0"},{"group":"tri cycles (cube, non-group)","fractal_assignment":["../images/org_blu.png","../images/ylw_pnk.png","../images/pnk_blu.png","../images/ylw_slt.png","../images/blu_wht.png","../images/grn_red.png","../images/gry_blk.png","../images/cyn_red.png"],"mutagen_generator_assignment":[1,0],"goal":6,"start":3,"action_noise":0.1,"location_history":"[3,7,6]","action_history":"[0,0]","mutagen_history":"[1,1]","location_rts":"[3457,1]","trial_type":"fractal-mutation","trial_index":54,"time_elapsed":3860149,"internal_node_id":"0.0-5.0-0.0"},{"group":"tri cycles (cube, non-group)","fractal_assignment":["../images/org_blu.png","../images/ylw_pnk.png","../images/pnk_blu.png","../images/ylw_slt.png","../images/blu_wht.png","../images/grn_red.png","../images/gry_blk.png","../images/cyn_red.png"],"mutagen_generator_assignment":[1,0],"goal":1,"start":6,"action_noise":0.1,"location_history":"[6,5,1]","action_history":"[1,0]","mutagen_history":"[0,1]","location_rts":"[1147,807]","trial_type":"fractal-mutation","trial_index":55,"time_elapsed":3867769,"internal_node_id":"0.0-5.0-1.0"},{"group":"tri cycles (cube, non-group)","fractal_assignment":["../images/org_blu.png","../images/ylw_pnk.png","../images/pnk_blu.png","../images/ylw_slt.png","../images/blu_wht.png","../images/grn_red.png","../images/gry_blk.png","../images/cyn_red.png"],"mutagen_generator_assignment":[1,0],"goal":2,"start":1,"action_noise":0.1,"location_history":"[1,0,3,4,7,6,4,0,3,4,0,3,7,3,7,6,5,2]","action_history":"[0,1,0,0,0,0,1,1,1,1,1,0,1,0,0,1,1]","mutagen_history":"[1,0,1,1,1,1,0,0,0,0,0,1,0,1,1,0,0]","location_rts":"[291,630,414,282,293,335,482,370,492,434,276,323,378,725,600,352,372]","trial_type":"fractal-mutation","trial_index":56,"time_elapsed":3896726,"internal_node_id":"0.0-5.0-2.0"},{"group":"tri cycles (cube, non-group)","fractal_assignment":["../images/org_blu.png","../images/ylw_pnk.png","../images/pnk_blu.png","../images/ylw_slt.png","../images/blu_wht.png","../images/grn_red.png","../images/gry_blk.png","../images/cyn_red.png"],"mutagen_generator_assignment":[1,0],"goal":0,"start":2,"action_noise":0.1,"location_history":"[2,1,0]","action_history":"[0,0]","mutagen_history":"[1,1]","location_rts":"[578,570]","trial_type":"fractal-mutation","trial_index":57,"time_elapsed":3903627,"internal_node_id":"0.0-5.0-3.0"},{"group":"tri cycles (cube, non-group)","fractal_assignment":["../images/org_blu.png","../images/ylw_pnk.png","../images/pnk_blu.png","../images/ylw_slt.png","../images/blu_wht.png","../images/grn_red.png","../images/gry_blk.png","../images/cyn_red.png"],"mutagen_generator_assignment":[1,0],"goal":7,"start":0,"action_noise":0.1,"location_history":"[0,2,6,4,0,3,4,0,2,1,5,2,1,0,2,1,0,2,1,0,3,4,0,2,6,5,2,6,5,2,1,5,2,6,5,2,1,0,2,1,0,2,6,5,2,6,5,2,6,4,7]","action_history":"[0,0,0,1,1,1,1,0,0,1,1,0,0,0,0,0,0,0,0,1,1,1,0,1,1,1,1,1,1,0,1,1,1,1,1,0,0,0,0,0,0,1,1,1,1,1,1,1,0,0]","mutagen_history":"[1,1,1,0,0,0,0,1,1,0,0,1,1,1,1,1,1,1,1,0,0,0,1,0,0,0,0,0,0,1,0,0,0,0,0,1,1,1,1,1,1,0,0,0,0,0,0,0,1,1]","location_rts":"[388,388,603,350,429,323,346,600,371,445,800,454,262,101,199,285,251,246,272,473,378,369,692,259,411,387,356,239,246,532,215,284,275,267,385,487,420,773,790,785,784,719,337,246,482,230,685,346,382,423]","trial_type":"fractal-mutation","trial_index":58,"time_elapsed":3981007,"internal_node_id":"0.0-5.0-4.0"},{"group":"tri cycles (cube, non-group)","fractal_assignment":["../images/org_blu.png","../images/ylw_pnk.png","../images/pnk_blu.png","../images/ylw_slt.png","../images/blu_wht.png","../images/grn_red.png","../images/gry_blk.png","../images/cyn_red.png"],"mutagen_generator_assignment":[1,0],"goal":5,"start":7,"action_noise":0.1,"location_history":"[7,3,7,3,7,3,4,7,6,4,7,3,4,0,3,4,0,2,1,0,2,1,0,2,1,5]","action_history":"[0,0,1,1,1,1,0,0,0,1,1,1,1,1,1,1,0,0,0,0,0,0,0,0,1]","mutagen_history":"[1,1,0,0,0,0,1,1,1,0,0,0,0,0,0,0,1,1,1,1,1,1,1,1,0]","location_rts":"[816,405,785,396,354,395,240,432,721,341,350,361,262,354,419,394,224,303,112,538,257,304,271,269,411]","trial_type":"fractal-mutation","trial_index":59,"time_elapsed":4020869,"internal_node_id":"0.0-5.0-5.0"},{"group":"tri cycles (cube, non-group)","fractal_assignment":["../images/org_blu.png","../images/ylw_pnk.png","../images/pnk_blu.png","../images/ylw_slt.png","../images/blu_wht.png","../images/grn_red.png","../images/gry_blk.png","../images/cyn_red.png"],"mutagen_generator_assignment":[1,0],"goal":4,"start":5,"action_noise":0.1,"location_history":"[5,1,0,2,1,0,2,1,5,1,5,2,1,0,3,4]","action_history":"[0,0,0,0,0,0,1,1,1,1,1,0,0,1,1]","mutagen_history":"[1,1,1,1,1,1,0,0,0,0,0,1,1,0,0]","location_rts":"[912,382,315,285,685,337,779,324,369,363,341,648,324,448,497]","trial_type":"fractal-mutation","trial_index":60,"time_elapsed":4047429,"internal_node_id":"0.0-5.0-6.0"},{"group":"tri cycles (cube, non-group)","fractal_assignment":["../images/org_blu.png","../images/ylw_pnk.png","../images/pnk_blu.png","../images/ylw_slt.png","../images/blu_wht.png","../images/grn_red.png","../images/gry_blk.png","../images/cyn_red.png"],"mutagen_generator_assignment":[1,0],"goal":2,"start":4,"action_noise":0.1,"location_history":"[4,7,6,4,0,3,4,0,2]","action_history":"[0,0,0,1,1,1,1,0]","mutagen_history":"[1,1,1,0,0,0,0,1]","location_rts":"[406,352,366,607,278,512,864,413]","trial_type":"fractal-mutation","trial_index":61,"time_elapsed":4063237,"internal_node_id":"0.0-5.0-7.0"},{"group":"tri cycles (cube, non-group)","fractal_assignment":["../images/org_blu.png","../images/ylw_pnk.png","../images/pnk_blu.png","../images/ylw_slt.png","../images/blu_wht.png","../images/grn_red.png","../images/gry_blk.png","../images/cyn_red.png"],"mutagen_generator_assignment":[1,0],"goal":3,"start":2,"action_noise":0.1,"location_history":"[2,1,0,2,1,5,2,6,4,0,2,6,5,2,1,5,2,6,5,2,6,5,2,6,5,2,1,0,2,1,0,3]","action_history":"[0,0,0,1,1,1,1,0,0,0,1,1,1,0,0,1,1,1,1,1,1,1,1,1,1,0,0,0,0,0,1]","mutagen_history":"[1,1,1,0,0,0,0,1,1,1,0,0,0,1,1,0,0,0,0,0,0,0,0,0,0,1,1,1,1,1,0]","location_rts":"[458,351,433,711,299,328,632,749,465,356,545,642,934,1104,300,103,266,312,293,369,272,285,359,387,394,505,284,282,626,271,387]","trial_type":"fractal-mutation","trial_index":62,"time_elapsed":4113343,"internal_node_id":"0.0-5.0-8.0"},{"group":"tri cycles (cube, non-group)","fractal_assignment":["../images/org_blu.png","../images/ylw_pnk.png","../images/pnk_blu.png","../images/ylw_slt.png","../images/blu_wht.png","../images/grn_red.png","../images/gry_blk.png","../images/cyn_red.png"],"mutagen_generator_assignment":[1,0],"goal":7,"start":3,"action_noise":0.1,"location_history":"[3,7]","action_history":"[0]","mutagen_history":"[1]","location_rts":"[1024]","trial_type":"fractal-mutation","trial_index":63,"time_elapsed":4118932,"internal_node_id":"0.0-5.0-9.0"},{"group":"tri cycles (cube, non-group)","fractal_assignment":["../images/org_blu.png","../images/ylw_pnk.png","../images/pnk_blu.png","../images/ylw_slt.png","../images/blu_wht.png","../images/grn_red.png","../images/gry_blk.png","../images/cyn_red.png"],"mutagen_generator_assignment":[1,0],"goal":0,"start":7,"action_noise":0.1,"location_history":"[7,3,7,6,4,0]","action_history":"[0,0,0,1,1]","mutagen_history":"[1,1,1,0,0]","location_rts":"[536,312,289,462,350]","trial_type":"fractal-mutation","trial_index":64,"time_elapsed":4129687,"internal_node_id":"0.0-5.0-10.0"},{"group":"tri cycles (cube, non-group)","fractal_assignment":["../images/org_blu.png","../images/ylw_pnk.png","../images/pnk_blu.png","../images/ylw_slt.png","../images/blu_wht.png","../images/grn_red.png","../images/gry_blk.png","../images/cyn_red.png"],"mutagen_generator_assignment":[1,0],"goal":1,"start":0,"action_noise":0.1,"location_history":"[0,2,1]","action_history":"[0,0]","mutagen_history":"[1,1]","location_rts":"[566,345]","trial_type":"fractal-mutation","trial_index":65,"time_elapsed":4136257,"internal_node_id":"0.0-5.0-11.0"},{"group":"tri cycles (cube, non-group)","fractal_assignment":["../images/org_blu.png","../images/ylw_pnk.png","../images/pnk_blu.png","../images/ylw_slt.png","../images/blu_wht.png","../images/grn_red.png","../images/gry_blk.png","../images/cyn_red.png"],"mutagen_generator_assignment":[1,0],"goal":6,"start":1,"action_noise":0.1,"location_history":"[1,0,2,6]","action_history":"[0,0,0]","mutagen_history":"[1,1,1]","location_rts":"[479,288,267]","trial_type":"fractal-mutation","trial_index":66,"time_elapsed":4144001,"internal_node_id":"0.0-5.0-12.0"},{"group":"tri cycles (cube, non-group)","fractal_assignment":["../images/org_blu.png","../images/ylw_pnk.png","../images/pnk_blu.png","../images/ylw_slt.png","../images/blu_wht.png","../images/grn_red.png","../images/gry_blk.png","../images/cyn_red.png"],"mutagen_generator_assignment":[1,0],"goal":4,"start":6,"action_noise":0.1,"location_history":"[6,4]","action_history":"[0]","mutagen_history":"[1]","location_rts":"[265]","trial_type":"fractal-mutation","trial_index":67,"time_elapsed":4148852,"internal_node_id":"0.0-5.0-13.0"},{"group":"tri cycles (cube, non-group)","fractal_assignment":["../images/org_blu.png","../images/ylw_pnk.png","../images/pnk_blu.png","../images/ylw_slt.png","../images/blu_wht.png","../images/grn_red.png","../images/gry_blk.png","../images/cyn_red.png"],"mutagen_generator_assignment":[1,0],"goal":5,"start":4,"action_noise":0.1,"location_history":"[4,7,6,4,7,6,4,0,3,4,7,3,7,6,4,7,3,4,0,3,4,0,2,1,5]","action_history":"[0,0,0,0,0,0,1,1,1,1,1,0,0,0,0,1,1,1,1,1,1,0,0,0]","mutagen_history":"[1,1,1,1,1,1,0,0,0,0,0,1,1,1,1,0,0,0,0,0,0,1,1,1]","location_rts":"[281,300,315,374,853,328,280,250,283,271,438,379,249,369,282,482,286,240,336,263,438,227,474,307]","trial_type":"fractal-mutation","trial_index":68,"time_elapsed":4186197,"internal_node_id":"0.0-5.0-14.0"},{"group":"tri cycles (cube, non-group)","fractal_assignment":["../images/org_blu.png","../images/ylw_pnk.png","../images/pnk_blu.png","../images/ylw_slt.png","../images/blu_wht.png","../images/grn_red.png","../images/gry_blk.png","../images/cyn_red.png"],"mutagen_generator_assignment":[1,0],"goal":4,"start":5,"action_noise":0.1,"location_history":"[5,1,0,3,7,6,5,2,6,4]","action_history":"[0,0,0,0,0,1,1,1,1]","mutagen_history":"[1,1,1,1,1,0,0,0,0]","location_rts":"[413,259,244,406,454,656,306,481,358]","trial_type":"fractal-mutation","trial_index":69,"time_elapsed":4202844,"internal_node_id":"0.0-5.0-15.0"},{"group":"tri cycles (cube, non-group)","fractal_assignment":["../images/org_blu.png","../images/ylw_pnk.png","../images/pnk_blu.png","../images/ylw_slt.png","../images/blu_wht.png","../images/grn_red.png","../images/gry_blk.png","../images/cyn_red.png"],"mutagen_generator_assignment":[1,0],"goal":0,"start":4,"action_noise":0.1,"location_history":"[4,7,6,4,7,6,5,2,6,5,2,1,0]","action_history":"[0,0,0,0,0,1,1,1,1,1,0,0]","mutagen_history":"[1,1,1,1,1,0,0,0,0,0,1,1]","location_rts":"[267,384,275,287,374,443,561,322,335,447,492,457]","trial_type":"fractal-mutation","trial_index":70,"time_elapsed":4223729,"internal_node_id":"0.0-5.0-16.0"},{"group":"tri cycles (cube, non-group)","fractal_assignment":["../images/org_blu.png","../images/ylw_pnk.png","../images/pnk_blu.png","../images/ylw_slt.png","../images/blu_wht.png","../images/grn_red.png","../images/gry_blk.png","../images/cyn_red.png"],"mutagen_generator_assignment":[1,0],"goal":7,"start":0,"action_noise":0.1,"location_history":"[0,2,1,0,2,6,4,0,3,4,0,3,4,0,2,6,4,0,3,4,7]","action_history":"[0,0,0,0,0,0,0,1,1,1,1,1,1,0,0,0,1,1,1,0]","mutagen_history":"[1,1,1,1,1,1,1,0,0,0,0,0,0,1,1,1,0,0,0,1]","location_rts":"[378,278,312,238,301,359,295,571,282,239,593,301,331,563,277,234,455,456,306,464]","trial_type":"fractal-mutation","trial_index":71,"time_elapsed":4255674,"internal_node_id":"0.0-5.0-17.0"},{"group":"tri cycles (cube, non-group)","fractal_assignment":["../images/org_blu.png","../images/ylw_pnk.png","../images/pnk_blu.png","../images/ylw_slt.png","../images/blu_wht.png","../images/grn_red.png","../images/gry_blk.png","../images/cyn_red.png"],"mutagen_generator_assignment":[1,0],"goal":2,"start":7,"action_noise":0.1,"location_history":"[7,6,4,7,6,4,7,6,5,2]","action_history":"[0,0,0,0,0,0,1,1,1]","mutagen_history":"[1,1,1,1,1,1,0,0,0]","location_rts":"[222,281,234,248,287,253,401,357,230]","trial_type":"fractal-mutation","trial_index":72,"time_elapsed":4271262,"internal_node_id":"0.0-5.0-18.0"},{"group":"tri cycles (cube, non-group)","fractal_assignment":["../images/org_blu.png","../images/ylw_pnk.png","../images/pnk_blu.png","../images/ylw_slt.png","../images/blu_wht.png","../images/grn_red.png","../images/gry_blk.png","../images/cyn_red.png"],"mutagen_generator_assignment":[1,0],"goal":1,"start":2,"action_noise":0.1,"location_history":"[2,6,5,1]","action_history":"[1,1,0]","mutagen_history":"[0,0,1]","location_rts":"[473,432,663]","trial_type":"fractal-mutation","trial_index":73,"time_elapsed":4279501,"internal_node_id":"0.0-5.0-19.0"},{"group":"tri cycles (cube, non-group)","fractal_assignment":["../images/org_blu.png","../images/ylw_pnk.png","../images/pnk_blu.png","../images/ylw_slt.png","../images/blu_wht.png","../images/grn_red.png","../images/gry_blk.png","../images/cyn_red.png"],"mutagen_generator_assignment":[1,0],"goal":3,"start":1,"action_noise":0.1,"location_history":"[1,5,1,0,2,6,4,7,3]","action_history":"[0,0,0,0,0,0,0,1]","mutagen_history":"[1,1,1,1,1,1,1,0]","location_rts":"[264,277,273,237,405,284,337,179]","trial_type":"fractal-mutation","trial_index":74,"time_elapsed":4293794,"internal_node_id":"0.0-5.0-20.0"},{"group":"tri cycles (cube, non-group)","fractal_assignment":["../images/org_blu.png","../images/ylw_pnk.png","../images/pnk_blu.png","../images/ylw_slt.png","../images/blu_wht.png","../images/grn_red.png","../images/gry_blk.png","../images/cyn_red.png"],"mutagen_generator_assignment":[1,0],"goal":6,"start":3,"action_noise":0.1,"location_history":"[3,7,6]","action_history":"[0,0]","mutagen_history":"[1,1]","location_rts":"[497,267]","trial_type":"fractal-mutation","trial_index":75,"time_elapsed":4300213,"internal_node_id":"0.0-5.0-21.0"},{"group":"tri cycles (cube, non-group)","fractal_assignment":["../images/org_blu.png","../images/ylw_pnk.png","../images/pnk_blu.png","../images/ylw_slt.png","../images/blu_wht.png","../images/grn_red.png","../images/gry_blk.png","../images/cyn_red.png"],"mutagen_generator_assignment":[1,0],"goal":5,"start":6,"action_noise":0.1,"location_history":"[6,4,7,6,5]","action_history":"[0,0,0,1]","mutagen_history":"[1,1,1,0]","location_rts":"[427,294,285,242]","trial_type":"fractal-mutation","trial_index":76,"time_elapsed":4309262,"internal_node_id":"0.0-5.0-22.0"},{"group":"tri cycles (cube, non-group)","fractal_assignment":["../images/org_blu.png","../images/ylw_pnk.png","../images/pnk_blu.png","../images/ylw_slt.png","../images/blu_wht.png","../images/grn_red.png","../images/gry_blk.png","../images/cyn_red.png"],"mutagen_generator_assignment":[1,0],"goal":3,"start":5,"action_noise":0.1,"location_history":"[5,1,0,2,6,5,2,6,4,7,6,4,7,3]","action_history":"[0,0,0,1,1,1,1,0,0,0,0,0,1]","mutagen_history":"[1,1,1,0,0,0,0,1,1,1,1,1,0]","location_rts":"[266,297,275,241,361,275,428,542,316,290,1167,469,337]","trial_type":"fractal-mutation","trial_index":77,"time_elapsed":4331977,"internal_node_id":"0.0-5.0-23.0"},{"group":"tri cycles (cube, non-group)","fractal_assignment":["../images/org_blu.png","../images/ylw_pnk.png","../images/pnk_blu.png","../images/ylw_slt.png","../images/blu_wht.png","../images/grn_red.png","../images/gry_blk.png","../images/cyn_red.png"],"mutagen_generator_assignment":[1,0],"goal":0,"start":3,"action_noise":0.1,"location_history":"[3,4,0]","action_history":"[1,1]","mutagen_history":"[0,0]","location_rts":"[4702,443]","trial_type":"fractal-mutation","trial_index":78,"time_elapsed":4343681,"internal_node_id":"0.0-5.0-24.0"},{"group":"tri cycles (cube, non-group)","fractal_assignment":["../images/org_blu.png","../images/ylw_pnk.png","../images/pnk_blu.png","../images/ylw_slt.png","../images/blu_wht.png","../images/grn_red.png","../images/gry_blk.png","../images/cyn_red.png"],"mutagen_generator_assignment":[1,0],"goal":7,"start":0,"action_noise":0.1,"location_history":"[0,2,6,4,7]","action_history":"[0,0,0,0]","mutagen_history":"[1,1,1,1]","location_rts":"[573,323,292,260]","trial_type":"fractal-mutation","trial_index":79,"time_elapsed":4352909,"internal_node_id":"0.0-5.0-25.0"},{"group":"tri cycles (cube, non-group)","fractal_assignment":["../images/org_blu.png","../images/ylw_pnk.png","../images/pnk_blu.png","../images/ylw_slt.png","../images/blu_wht.png","../images/grn_red.png","../images/gry_blk.png","../images/cyn_red.png"],"mutagen_generator_assignment":[1,0],"goal":2,"start":7,"action_noise":0.1,"location_history":"[7,3,7,3,4,7,6,4,7,3,7,3,7,3,4,7,6,4,7,6,5,2]","action_history":"[1,1,1,0,0,0,0,0,0,1,1,1,1,1,0,0,0,0,0,1,1]","mutagen_history":"[0,0,0,1,1,1,1,1,1,0,0,0,0,0,1,1,1,1,1,0,0]","location_rts":"[851,568,348,289,264,300,269,292,294,216,278,306,313,616,248,247,701,390,515,247,341]","trial_type":"fractal-mutation","trial_index":80,"time_elapsed":4386596,"internal_node_id":"0.0-5.0-26.0"},{"group":"tri cycles (cube, non-group)","fractal_assignment":["../images/org_blu.png","../images/ylw_pnk.png","../images/pnk_blu.png","../images/ylw_slt.png","../images/blu_wht.png","../images/grn_red.png","../images/gry_blk.png","../images/cyn_red.png"],"mutagen_generator_assignment":[1,0],"goal":1,"start":2,"action_noise":0.1,"location_history":"[2,6,4,7,6,4,0,2,1]","action_history":"[0,0,0,0,0,1,0,0]","mutagen_history":"[1,1,1,1,1,0,1,1]","location_rts":"[269,319,237,272,432,514,818,623]","trial_type":"fractal-mutation","trial_index":81,"time_elapsed":4402116,"internal_node_id":"0.0-5.0-27.0"},{"group":"tri cycles (cube, non-group)","fractal_assignment":["../images/org_blu.png","../images/ylw_pnk.png","../images/pnk_blu.png","../images/ylw_slt.png","../images/blu_wht.png","../images/grn_red.png","../images/gry_blk.png","../images/cyn_red.png"],"mutagen_generator_assignment":[1,0],"goal":5,"start":1,"action_noise":0.1,"location_history":"[1,0,2,1,5]","action_history":"[0,0,0,1]","mutagen_history":"[1,1,1,0]","location_rts":"[270,758,301,451]","trial_type":"fractal-mutation","trial_index":82,"time_elapsed":4411687,"internal_node_id":"0.0-5.0-28.0"},{"group":"tri cycles (cube, non-group)","fractal_assignment":["../images/org_blu.png","../images/ylw_pnk.png","../images/pnk_blu.png","../images/ylw_slt.png","../images/blu_wht.png","../images/grn_red.png","../images/gry_blk.png","../images/cyn_red.png"],"mutagen_generator_assignment":[1,0],"goal":4,"start":5,"action_noise":0.1,"location_history":"[5,1,5,2,1,0,2,6,5,1,5,2,1,0,2,1,0,3,4]","action_history":"[0,0,0,0,0,0,1,1,1,1,1,0,0,0,0,0,1,1]","mutagen_history":"[1,1,1,1,1,1,0,0,0,0,0,1,1,1,1,1,0,0]","location_rts":"[329,370,304,438,341,406,488,314,238,259,355,385,445,325,689,577,363,546]","trial_type":"fractal-mutation","trial_index":83,"time_elapsed":4441462,"internal_node_id":"0.0-5.0-29.0"},{"group":"tri cycles (cube, non-group)","fractal_assignment":["../images/org_blu.png","../images/ylw_pnk.png","../images/pnk_blu.png","../images/ylw_slt.png","../images/blu_wht.png","../images/grn_red.png","../images/gry_blk.png","../images/cyn_red.png"],"mutagen_generator_assignment":[1,0],"goal":6,"start":4,"action_noise":0.1,"location_history":"[4,0,2,1,0,3,7,3,4,0,3,4,7,6]","action_history":"[0,0,0,0,1,1,1,1,1,1,0,0,0]","mutagen_history":"[1,1,1,1,0,0,0,0,0,0,1,1,1]","location_rts":"[283,589,353,383,212,320,280,272,388,315,505,270,181]","trial_type":"fractal-mutation","trial_index":84,"time_elapsed":4463110,"internal_node_id":"0.0-5.0-30.0"},{"group":"tri cycles (cube, non-group)","fractal_assignment":["../images/org_blu.png","../images/ylw_pnk.png","../images/pnk_blu.png","../images/ylw_slt.png","../images/blu_wht.png","../images/grn_red.png","../images/gry_blk.png","../images/cyn_red.png"],"mutagen_generator_assignment":[1,0],"goal":4,"start":6,"action_noise":0.1,"location_history":"[6,4]","action_history":"[0]","mutagen_history":"[1]","location_rts":"[256]","trial_type":"fractal-mutation","trial_index":85,"time_elapsed":4467930,"internal_node_id":"0.0-5.0-31.0"},{"group":"tri cycles (cube, non-group)","fractal_assignment":["../images/org_blu.png","../images/ylw_pnk.png","../images/pnk_blu.png","../images/ylw_slt.png","../images/blu_wht.png","../images/grn_red.png","../images/gry_blk.png","../images/cyn_red.png"],"mutagen_generator_assignment":[1,0],"goal":2,"start":4,"action_noise":0.1,"location_history":"[4,7,6,4,7,3,4,0,3,7,6,5,2]","action_history":"[0,0,0,0,1,1,1,1,0,0,1,1]","mutagen_history":"[1,1,1,1,0,0,0,0,1,1,0,0]","location_rts":"[384,221,447,446,348,271,386,402,405,372,718,405]","trial_type":"fractal-mutation","trial_index":86,"time_elapsed":4488954,"internal_node_id":"0.0-5.0-32.0"},{"group":"tri cycles (cube, non-group)","fractal_assignment":["../images/org_blu.png","../images/ylw_pnk.png","../images/pnk_blu.png","../images/ylw_slt.png","../images/blu_wht.png","../images/grn_red.png","../images/gry_blk.png","../images/cyn_red.png"],"mutagen_generator_assignment":[1,0],"goal":0,"start":2,"action_noise":0.1,"location_history":"[2,1,0]","action_history":"[0,0]","mutagen_history":"[1,1]","location_rts":"[886,354]","trial_type":"fractal-mutation","trial_index":87,"time_elapsed":4495868,"internal_node_id":"0.0-5.0-33.0"},{"group":"tri cycles (cube, non-group)","fractal_assignment":["../images/org_blu.png","../images/ylw_pnk.png","../images/pnk_blu.png","../images/ylw_slt.png","../images/blu_wht.png","../images/grn_red.png","../images/gry_blk.png","../images/cyn_red.png"],"mutagen_generator_assignment":[1,0],"goal":5,"start":0,"action_noise":0.1,"location_history":"[0,2,1,0,2,1,5]","action_history":"[0,0,0,0,0,1]","mutagen_history":"[1,1,1,1,1,0]","location_rts":"[282,345,337,235,254,387]","trial_type":"fractal-mutation","trial_index":88,"time_elapsed":4507651,"internal_node_id":"0.0-5.0-34.0"},{"group":"tri cycles (cube, non-group)","fractal_assignment":["../images/org_blu.png","../images/ylw_pnk.png","../images/pnk_blu.png","../images/ylw_slt.png","../images/blu_wht.png","../images/grn_red.png","../images/gry_blk.png","../images/cyn_red.png"],"mutagen_generator_assignment":[1,0],"goal":1,"start":5,"action_noise":0.1,"location_history":"[5,1]","action_history":"[0]","mutagen_history":"[1]","location_rts":"[304]","trial_type":"fractal-mutation","trial_index":89,"time_elapsed":4512542,"internal_node_id":"0.0-5.0-35.0"},{"group":"tri cycles (cube, non-group)","fractal_assignment":["../images/org_blu.png","../images/ylw_pnk.png","../images/pnk_blu.png","../images/ylw_slt.png","../images/blu_wht.png","../images/grn_red.png","../images/gry_blk.png","../images/cyn_red.png"],"mutagen_generator_assignment":[1,0],"goal":7,"start":1,"action_noise":0.1,"location_history":"[1,0,3,7]","action_history":"[0,0,0]","mutagen_history":"[1,1,1]","location_rts":"[438,293,248]","trial_type":"fractal-mutation","trial_index":90,"time_elapsed":4520230,"internal_node_id":"0.0-5.0-36.0"},{"group":"tri cycles (cube, non-group)","fractal_assignment":["../images/org_blu.png","../images/ylw_pnk.png","../images/pnk_blu.png","../images/ylw_slt.png","../images/blu_wht.png","../images/grn_red.png","../images/gry_blk.png","../images/cyn_red.png"],"mutagen_generator_assignment":[1,0],"goal":3,"start":7,"action_noise":0.1,"location_history":"[7,6,4,7,3]","action_history":"[0,0,1,1]","mutagen_history":"[1,1,0,0]","location_rts":"[249,402,407,292]","trial_type":"fractal-mutation","trial_index":91,"time_elapsed":4529362,"internal_node_id":"0.0-5.0-37.0"},{"group":"tri cycles (cube, non-group)","fractal_assignment":["../images/org_blu.png","../images/ylw_pnk.png","../images/pnk_blu.png","../images/ylw_slt.png","../images/blu_wht.png","../images/grn_red.png","../images/gry_blk.png","../images/cyn_red.png"],"mutagen_generator_assignment":[1,0],"goal":6,"start":3,"action_noise":0.1,"location_history":"[3,7,6]","action_history":"[0,0]","mutagen_history":"[1,1]","location_rts":"[307,292]","trial_type":"fractal-mutation","trial_index":92,"time_elapsed":4535590,"internal_node_id":"0.0-5.0-38.0"},{"group":"tri cycles (cube, non-group)","fractal_assignment":["../images/org_blu.png","../images/ylw_pnk.png","../images/pnk_blu.png","../images/ylw_slt.png","../images/blu_wht.png","../images/grn_red.png","../images/gry_blk.png","../images/cyn_red.png"],"mutagen_generator_assignment":[1,0],"goal":2,"start":6,"action_noise":0.1,"location_history":"[6,4,7,6,4,7,6,5,2]","action_history":"[0,0,0,0,0,0,1,1]","mutagen_history":"[1,1,1,1,1,1,0,0]","location_rts":"[311,452,327,284,276,291,233,343]","trial_type":"fractal-mutation","trial_index":93,"time_elapsed":4550164,"internal_node_id":"0.0-5.0-39.0"},{"group":"tri cycles (cube, non-group)","fractal_assignment":["../images/org_blu.png","../images/ylw_pnk.png","../images/pnk_blu.png","../images/ylw_slt.png","../images/blu_wht.png","../images/grn_red.png","../images/gry_blk.png","../images/cyn_red.png"],"mutagen_generator_assignment":[1,0],"goal":1,"start":2,"action_noise":0.1,"location_history":"[2,1]","action_history":"[0]","mutagen_history":"[1]","location_rts":"[411]","trial_type":"fractal-mutation","trial_index":94,"time_elapsed":4555140,"internal_node_id":"0.0-5.0-40.0"},{"group":"tri cycles (cube, non-group)","fractal_assignment":["../images/org_blu.png","../images/ylw_pnk.png","../images/pnk_blu.png","../images/ylw_slt.png","../images/blu_wht.png","../images/grn_red.png","../images/gry_blk.png","../images/cyn_red.png"],"mutagen_generator_assignment":[1,0],"goal":0,"start":1,"action_noise":0.1,"location_history":"[1,0]","action_history":"[0]","mutagen_history":"[1]","location_rts":"[415]","trial_type":"fractal-mutation","trial_index":95,"time_elapsed":4560146,"internal_node_id":"0.0-5.0-41.0"},{"group":"tri cycles (cube, non-group)","fractal_assignment":["../images/org_blu.png","../images/ylw_pnk.png","../images/pnk_blu.png","../images/ylw_slt.png","../images/blu_wht.png","../images/grn_red.png","../images/gry_blk.png","../images/cyn_red.png"],"mutagen_generator_assignment":[1,0],"goal":4,"start":0,"action_noise":0.1,"location_history":"[0,2,1,0,3,4]","action_history":"[0,0,0,1,1]","mutagen_history":"[1,1,1,0,0]","location_rts":"[443,507,388,403,385]","trial_type":"fractal-mutation","trial_index":96,"time_elapsed":4571120,"internal_node_id":"0.0-5.0-42.0"},{"group":"tri cycles (cube, non-group)","fractal_assignment":["../images/org_blu.png","../images/ylw_pnk.png","../images/pnk_blu.png","../images/ylw_slt.png","../images/blu_wht.png","../images/grn_red.png","../images/gry_blk.png","../images/cyn_red.png"],"mutagen_generator_assignment":[1,0],"goal":6,"start":4,"action_noise":0.1,"location_history":"[4,7,3,4,0,2,6]","action_history":"[0,0,1,1,1,1]","mutagen_history":"[1,1,0,0,0,0]","location_rts":"[297,355,578,372,333,403]","trial_type":"fractal-mutation","trial_index":97,"time_elapsed":4583303,"internal_node_id":"0.0-5.0-43.0"},{"group":"tri cycles (cube, non-group)","fractal_assignment":["../images/org_blu.png","../images/ylw_pnk.png","../images/pnk_blu.png","../images/ylw_slt.png","../images/blu_wht.png","../images/grn_red.png","../images/gry_blk.png","../images/cyn_red.png"],"mutagen_generator_assignment":[1,0],"goal":3,"start":6,"action_noise":0.1,"location_history":"[6,4,7,6,5,2,6,5,2,1,0,3]","action_history":"[0,0,0,1,1,1,1,1,0,0,0]","mutagen_history":"[1,1,1,0,0,0,0,0,1,1,1]","location_rts":"[585,311,282,420,268,278,318,342,338,334,273]","trial_type":"fractal-mutation","trial_index":98,"time_elapsed":4602207,"internal_node_id":"0.0-5.0-44.0"},{"group":"tri cycles (cube, non-group)","fractal_assignment":["../images/org_blu.png","../images/ylw_pnk.png","../images/pnk_blu.png","../images/ylw_slt.png","../images/blu_wht.png","../images/grn_red.png","../images/gry_blk.png","../images/cyn_red.png"],"mutagen_generator_assignment":[1,0],"goal":7,"start":3,"action_noise":0.1,"location_history":"[3,4,7]","action_history":"[0,0]","mutagen_history":"[1,1]","location_rts":"[253,255]","trial_type":"fractal-mutation","trial_index":99,"time_elapsed":4608375,"internal_node_id":"0.0-5.0-45.0"},{"group":"tri cycles (cube, non-group)","fractal_assignment":["../images/org_blu.png","../images/ylw_pnk.png","../images/pnk_blu.png","../images/ylw_slt.png","../images/blu_wht.png","../images/grn_red.png","../images/gry_blk.png","../images/cyn_red.png"],"mutagen_generator_assignment":[1,0],"goal":5,"start":7,"action_noise":0.1,"location_history":"[7,6,4,7,6,4,7,3,4,0,3,4,0,3,4,7,6,4,7,3,4,0,3,7,6,4,0,3,4,0,2,1,5]","action_history":"[0,0,0,0,0,0,1,1,1,1,1,1,1,1,0,0,0,0,1,1,1,1,0,0,0,1,1,1,1,0,0,1]","mutagen_history":"[1,1,1,1,1,1,0,0,0,0,0,0,0,0,1,1,1,1,0,0,0,0,1,1,1,0,0,0,0,1,1,0]","location_rts":"[252,309,293,382,263,258,248,304,277,421,340,335,409,344,570,529,478,454,263,265,82,242,522,345,298,258,369,327,306,276,353,763]","trial_type":"fractal-mutation","trial_index":100,"time_elapsed":4656843,"internal_node_id":"0.0-5.0-46.0"},{"group":"tri cycles (cube, non-group)","fractal_assignment":["../images/org_blu.png","../images/ylw_pnk.png","../images/pnk_blu.png","../images/ylw_slt.png","../images/blu_wht.png","../images/grn_red.png","../images/gry_blk.png","../images/cyn_red.png"],"mutagen_generator_assignment":[1,0],"goal":1,"start":5,"action_noise":0.1,"location_history":"[5,1]","action_history":"[0]","mutagen_history":"[1]","location_rts":"[265]","trial_type":"fractal-mutation","trial_index":101,"time_elapsed":4661675,"internal_node_id":"0.0-5.0-47.0"},{"group":"tri cycles (cube, non-group)","fractal_assignment":["../images/org_blu.png","../images/ylw_pnk.png","../images/pnk_blu.png","../images/ylw_slt.png","../images/blu_wht.png","../images/grn_red.png","../images/gry_blk.png","../images/cyn_red.png"],"mutagen_generator_assignment":[1,0],"goal":6,"start":1,"action_noise":0.1,"location_history":"[1,0,2,1,0,2,1,5,2,1,0,2,6]","action_history":"[0,0,0,0,0,1,1,1,0,0,0,0]","mutagen_history":"[1,1,1,1,1,0,0,0,1,1,1,1]","location_rts":"[860,2375,505,276,472,401,537,341,384,320,456,295]","trial_type":"fractal-mutation","trial_index":102,"time_elapsed":4685309,"internal_node_id":"0.0-5.0-48.0"},{"group":"tri cycles (cube, non-group)","fractal_assignment":["../images/org_blu.png","../images/ylw_pnk.png","../images/pnk_blu.png","../images/ylw_slt.png","../images/blu_wht.png","../images/grn_red.png","../images/gry_blk.png","../images/cyn_red.png"],"mutagen_generator_assignment":[1,0],"goal":0,"start":6,"action_noise":0.1,"location_history":"[6,4,7,3,4,0]","action_history":"[0,0,0,1,1]","mutagen_history":"[1,1,1,0,0]","location_rts":"[261,376,315,253,301]","trial_type":"fractal-mutation","trial_index":103,"time_elapsed":4695649,"internal_node_id":"0.0-5.0-49.0"},{"view_history":"[{\"page_index\":0,\"viewing_time\":2288}]","rt":2289,"trial_type":"instructions","trial_index":104,"time_elapsed":4698938,"internal_node_id":"0.0-6.0"},{"rt":4115,"responses":"{\"Q0\":\"no\"}","trial_type":"survey-text","trial_index":105,"time_elapsed":4704085,"internal_node_id":"0.0-7.0"}]