[{"view_history":"[{\"page_index\":0,\"viewing_time\":587435},{\"page_index\":1,\"viewing_time\":22656}]","rt":610091,"trial_type":"instructions","trial_index":0,"time_elapsed":610092,"internal_node_id":"0.0-0.0"},{"view_history":"[{\"page_index\":0,\"viewing_time\":7361},{\"page_index\":1,\"viewing_time\":28489}]","rt":35850,"trial_type":"instructions","trial_index":1,"time_elapsed":646942,"internal_node_id":"0.0-1.0"},{"group":"tri cycles (cube, non-group)","room_assignment":["grey","pink","brown","blue","yellow","red","purple","green"],"door_color_assignment":["white","black"],"door_generator_assignment":[0,1],"goal":6,"start":3,"action_noise":0.1,"location_history":"[3,4,0,3,4,7,6]","action_history":"[1,1,1,1,0,0]","door_history":"[1,1,1,1,0,0]","location_rts":"[1242,459,324,319,392,320]","trial_type":"two-door-navigation","trial_index":2,"time_elapsed":659878,"internal_node_id":"0.0-2.0-0.0"},{"group":"tri cycles (cube, non-group)","room_assignment":["grey","pink","brown","blue","yellow","red","purple","green"],"door_color_assignment":["white","black"],"door_generator_assignment":[0,1],"goal":1,"start":6,"action_noise":0.1,"location_history":"[6,5,1]","action_history":"[1,0]","door_history":"[1,0]","location_rts":"[1843,8]","trial_type":"two-door-navigation","trial_index":3,"time_elapsed":667363,"internal_node_id":"0.0-2.0-1.0"},{"group":"tri cycles (cube, non-group)","room_assignment":["grey","pink","brown","blue","yellow","red","purple","green"],"door_color_assignment":["white","black"],"door_generator_assignment":[0,1],"goal":2,"start":1,"action_noise":0.1,"location_history":"[1,5,1,0,2]","action_history":"[1,0,0,0]","door_history":"[1,0,0,0]","location_rts":"[440,20,180,250]","trial_type":"two-door-navigation","trial_index":4,"time_elapsed":675996,"internal_node_id":"0.0-2.0-2.0"},{"group":"tri cycles (cube, non-group)","room_assignment":["grey","pink","brown","blue","yellow","red","purple","green"],"door_color_assignment":["white","black"],"door_generator_assignment":[0,1],"goal":0,"start":2,"action_noise":0.1,"location_history":"[2,6,5,1,5,1,5,1,5,2,6,5,2,1,0]","action_history":"[1,1,0,0,0,1,1,1,1,1,1,1,0,0]","door_history":"[1,1,0,0,0,1,1,1,1,1,1,1,0,0]","location_rts":"[483,198,236,337,290,357,426,395,335,314,334,332,343,281]","trial_type":"two-door-navigation","trial_index":5,"time_elapsed":698998,"internal_node_id":"0.0-2.0-3.0"},{"group":"tri cycles (cube, non-group)","room_assignment":["grey","pink","brown","blue","yellow","red","purple","green"],"door_color_assignment":["white","black"],"door_generator_assignment":[0,1],"goal":7,"start":0,"action_noise":0.1,"location_history":"[0,2,1,5,2,1,5,1,0,3,4,0,2,6,5,2,1,0,2,6,4,0,3,4,0,3,7]","action_history":"[1,1,1,1,0,0,0,0,1,1,1,1,1,1,1,0,0,0,0,0,1,1,1,1,1,0]","door_history":"[1,1,1,1,0,0,0,0,1,1,1,1,1,1,1,0,0,0,0,0,1,1,1,1,1,0]","location_rts":"[658,204,255,222,212,215,245,225,242,291,193,257,245,320,204,1237,241,172,191,175,193,129,207,122,248,229]","trial_type":"two-door-navigation","trial_index":6,"time_elapsed":737163,"internal_node_id":"0.0-2.0-4.0"},{"group":"tri cycles (cube, non-group)","room_assignment":["grey","pink","brown","blue","yellow","red","purple","green"],"door_color_assignment":["white","black"],"door_generator_assignment":[0,1],"goal":5,"start":7,"action_noise":0.1,"location_history":"[7,3,4,0,3,4,0,3,4,7,6,4,7,3,4,0,2,6,5]","action_history":"[1,1,1,1,1,1,1,1,0,0,0,0,1,1,1,0,1,0]","door_history":"[1,1,1,1,1,1,1,1,0,0,0,0,1,1,1,0,1,0]","location_rts":"[475,139,116,211,106,387,184,359,282,194,281,312,3667,320,291,365,1363,242]","trial_type":"two-door-navigation","trial_index":7,"time_elapsed":769045,"internal_node_id":"0.0-2.0-5.0"},{"group":"tri cycles (cube, non-group)","room_assignment":["grey","pink","brown","blue","yellow","red","purple","green"],"door_color_assignment":["white","black"],"door_generator_assignment":[0,1],"goal":4,"start":5,"action_noise":0.1,"location_history":"[5,2,6,4]","action_history":"[1,1,0]","door_history":"[1,1,0]","location_rts":"[961,411,333]","trial_type":"two-door-navigation","trial_index":8,"time_elapsed":777443,"internal_node_id":"0.0-2.0-6.0"},{"group":"tri cycles (cube, non-group)","room_assignment":["grey","pink","brown","blue","yellow","red","purple","green"],"door_color_assignment":["white","black"],"door_generator_assignment":[0,1],"goal":2,"start":4,"action_noise":0.1,"location_history":"[4,7,6,5,2]","action_history":"[0,0,1,1]","door_history":"[0,0,1,1]","location_rts":"[4480,456,2,465]","trial_type":"two-door-navigation","trial_index":9,"time_elapsed":790592,"internal_node_id":"0.0-2.0-7.0"},{"group":"tri cycles (cube, non-group)","room_assignment":["grey","pink","brown","blue","yellow","red","purple","green"],"door_color_assignment":["white","black"],"door_generator_assignment":[0,1],"goal":3,"start":2,"action_noise":0.1,"location_history":"[2,1,0,3]","action_history":"[0,0,1]","door_history":"[0,0,1]","location_rts":"[1821,1899,353]","trial_type":"two-door-navigation","trial_index":10,"time_elapsed":801358,"internal_node_id":"0.0-2.0-8.0"},{"group":"tri cycles (cube, non-group)","room_assignment":["grey","pink","brown","blue","yellow","red","purple","green"],"door_color_assignment":["white","black"],"door_generator_assignment":[0,1],"goal":7,"start":3,"action_noise":0.1,"location_history":"[3,4,0,2,6,4,0,2,6,4,7]","action_history":"[1,1,0,1,0,1,0,1,0,0]","door_history":"[1,1,0,1,0,1,0,1,0,0]","location_rts":"[6122,4570,2157,10361,1025,344,1271,5908,597,1175]","trial_type":"two-door-navigation","trial_index":11,"time_elapsed":848961,"internal_node_id":"0.0-2.0-9.0"},{"group":"tri cycles (cube, non-group)","room_assignment":["grey","pink","brown","blue","yellow","red","purple","green"],"door_color_assignment":["white","black"],"door_generator_assignment":[0,1],"goal":0,"start":7,"action_noise":0.1,"location_history":"[7,6,5,1,0]","action_history":"[0,1,0,0]","door_history":"[0,1,0,0]","location_rts":"[1263,215,3025,1302]","trial_type":"two-door-navigation","trial_index":12,"time_elapsed":862508,"internal_node_id":"0.0-2.0-10.0"},{"group":"tri cycles (cube, non-group)","room_assignment":["grey","pink","brown","blue","yellow","red","purple","green"],"door_color_assignment":["white","black"],"door_generator_assignment":[0,1],"goal":1,"start":0,"action_noise":0.1,"location_history":"[0,2,6,5,1]","action_history":"[0,1,1,0]","door_history":"[0,1,1,0]","location_rts":"[4232,454,5545,2823]","trial_type":"two-door-navigation","trial_index":13,"time_elapsed":883311,"internal_node_id":"0.0-2.0-11.0"},{"group":"tri cycles (cube, non-group)","room_assignment":["grey","pink","brown","blue","yellow","red","purple","green"],"door_color_assignment":["white","black"],"door_generator_assignment":[0,1],"goal":6,"start":1,"action_noise":0.1,"location_history":"[1,0,2,6]","action_history":"[0,0,1]","door_history":"[0,0,1]","location_rts":"[445,278,6347]","trial_type":"two-door-navigation","trial_index":14,"time_elapsed":897070,"internal_node_id":"0.0-2.0-12.0"},{"group":"tri cycles (cube, non-group)","room_assignment":["grey","pink","brown","blue","yellow","red","purple","green"],"door_color_assignment":["white","black"],"door_generator_assignment":[0,1],"goal":4,"start":6,"action_noise":0.1,"location_history":"[6,4]","action_history":"[0]","door_history":"[0]","location_rts":"[4292]","trial_type":"two-door-navigation","trial_index":15,"time_elapsed":905932,"internal_node_id":"0.0-2.0-13.0"},{"group":"tri cycles (cube, non-group)","room_assignment":["grey","pink","brown","blue","yellow","red","purple","green"],"door_color_assignment":["white","black"],"door_generator_assignment":[0,1],"goal":5,"start":4,"action_noise":0.1,"location_history":"[4,0,2,1,0,3,7,3,4,0,3,4,0,3,7,6,5]","action_history":"[1,0,0,0,1,0,1,0,1,1,1,1,1,0,0,1]","door_history":"[1,0,0,0,1,0,1,0,1,1,1,1,1,0,0,1]","location_rts":"[6153,801,1054,1762,1262,625,259,554,192,312,183,158,510,231,102,369]","trial_type":"two-door-navigation","trial_index":16,"time_elapsed":940895,"internal_node_id":"0.0-2.0-14.0"},{"group":"tri cycles (cube, non-group)","room_assignment":["grey","pink","brown","blue","yellow","red","purple","green"],"door_color_assignment":["white","black"],"door_generator_assignment":[0,1],"goal":4,"start":5,"action_noise":0.1,"location_history":"[5,1,0,2,6,5,1,0,3,4]","action_history":"[0,0,0,1,1,0,0,1,0]","door_history":"[0,0,0,1,1,0,0,1,0]","location_rts":"[952,454,857,347,448,107,42,72,875]","trial_type":"two-door-navigation","trial_index":17,"time_elapsed":958072,"internal_node_id":"0.0-2.0-15.0"},{"group":"tri cycles (cube, non-group)","room_assignment":["grey","pink","brown","blue","yellow","red","purple","green"],"door_color_assignment":["white","black"],"door_generator_assignment":[0,1],"goal":0,"start":4,"action_noise":0.1,"location_history":"[4,0]","action_history":"[1]","door_history":"[1]","location_rts":"[551]","trial_type":"two-door-navigation","trial_index":18,"time_elapsed":963193,"internal_node_id":"0.0-2.0-16.0"},{"group":"tri cycles (cube, non-group)","room_assignment":["grey","pink","brown","blue","yellow","red","purple","green"],"door_color_assignment":["white","black"],"door_generator_assignment":[0,1],"goal":7,"start":0,"action_noise":0.1,"location_history":"[0,2,1,0,2,1,0,3,4,7]","action_history":"[0,0,0,0,0,0,1,1,0]","door_history":"[0,0,0,0,0,0,1,1,0]","location_rts":"[621,217,265,30,317,108,81,270,131]","trial_type":"two-door-navigation","trial_index":19,"time_elapsed":978252,"internal_node_id":"0.0-2.0-17.0"},{"group":"tri cycles (cube, non-group)","room_assignment":["grey","pink","brown","blue","yellow","red","purple","green"],"door_color_assignment":["white","black"],"door_generator_assignment":[0,1],"goal":2,"start":7,"action_noise":0.1,"location_history":"[7,3,4,0,3,4,7,6,4,7,6,4,0,3,4,7,6,4,0,3,7,3,4,0,3,7,3,7,3,7,6,5,2]","action_history":"[1,1,1,1,1,0,0,0,0,0,0,1,1,1,0,0,0,1,0,0,0,1,1,1,0,0,0,0,0,1,1,1]","door_history":"[1,1,1,1,1,0,0,0,0,0,0,1,1,1,0,0,0,1,0,0,0,1,1,1,0,0,0,0,0,1,1,1]","location_rts":"[606,83,356,245,476,145,151,199,245,309,324,207,406,260,239,115,347,65,739,150,336,337,162,322,618,44,272,274,227,597,184,304]","trial_type":"two-door-navigation","trial_index":20,"time_elapsed":1025010,"internal_node_id":"0.0-2.0-18.0"},{"group":"tri cycles (cube, non-group)","room_assignment":["grey","pink","brown","blue","yellow","red","purple","green"],"door_color_assignment":["white","black"],"door_generator_assignment":[0,1],"goal":1,"start":2,"action_noise":0.1,"location_history":"[2,1]","action_history":"[1]","door_history":"[1]","location_rts":"[519]","trial_type":"two-door-navigation","trial_index":21,"time_elapsed":1030094,"internal_node_id":"0.0-2.0-19.0"},{"group":"tri cycles (cube, non-group)","room_assignment":["grey","pink","brown","blue","yellow","red","purple","green"],"door_color_assignment":["white","black"],"door_generator_assignment":[0,1],"goal":3,"start":1,"action_noise":0.1,"location_history":"[1,5,2,1,0,3]","action_history":"[1,1,0,0,0]","door_history":"[1,1,0,0,0]","location_rts":"[382,503,335,386,379]","trial_type":"two-door-navigation","trial_index":22,"time_elapsed":1040872,"internal_node_id":"0.0-2.0-20.0"},{"group":"tri cycles (cube, non-group)","room_assignment":["grey","pink","brown","blue","yellow","red","purple","green"],"door_color_assignment":["white","black"],"door_generator_assignment":[0,1],"goal":6,"start":3,"action_noise":0.1,"location_history":"[3,7,6]","action_history":"[0,0]","door_history":"[0,0]","location_rts":"[531,93]","trial_type":"two-door-navigation","trial_index":23,"time_elapsed":1047123,"internal_node_id":"0.0-2.0-21.0"},{"group":"tri cycles (cube, non-group)","room_assignment":["grey","pink","brown","blue","yellow","red","purple","green"],"door_color_assignment":["white","black"],"door_generator_assignment":[0,1],"goal":5,"start":6,"action_noise":0.1,"location_history":"[6,5]","action_history":"[1]","door_history":"[1]","location_rts":"[346]","trial_type":"two-door-navigation","trial_index":24,"time_elapsed":1052040,"internal_node_id":"0.0-2.0-22.0"},{"group":"tri cycles (cube, non-group)","room_assignment":["grey","pink","brown","blue","yellow","red","purple","green"],"door_color_assignment":["white","black"],"door_generator_assignment":[0,1],"goal":3,"start":5,"action_noise":0.1,"location_history":"[5,2,6,5,1,0,3]","action_history":"[1,1,1,0,0,0]","door_history":"[1,1,1,0,0,0]","location_rts":"[527,127,223,352,344,352]","trial_type":"two-door-navigation","trial_index":25,"time_elapsed":1063829,"internal_node_id":"0.0-2.0-23.0"},{"group":"tri cycles (cube, non-group)","room_assignment":["grey","pink","brown","blue","yellow","red","purple","green"],"door_color_assignment":["white","black"],"door_generator_assignment":[0,1],"goal":0,"start":3,"action_noise":0.1,"location_history":"[3,4,0]","action_history":"[1,1]","door_history":"[1,1]","location_rts":"[500,324]","trial_type":"two-door-navigation","trial_index":26,"time_elapsed":1070286,"internal_node_id":"0.0-2.0-24.0"},{"group":"tri cycles (cube, non-group)","room_assignment":["grey","pink","brown","blue","yellow","red","purple","green"],"door_color_assignment":["white","black"],"door_generator_assignment":[0,1],"goal":7,"start":0,"action_noise":0.1,"location_history":"[0,2,1,0,2,6,5,1,5,2,1,5,2,6,5,2,1,0,2,1,0,2,1,0,3,4,0,3,4,0,3,4,0,3,4,0,3,7]","action_history":"[0,0,0,0,1,1,1,1,1,1,1,1,1,1,1,0,0,0,0,0,0,0,0,1,1,1,1,1,1,1,1,1,1,1,1,0,0]","door_history":"[0,0,0,0,1,1,1,1,1,1,1,1,1,1,1,0,0,0,0,0,0,0,0,1,1,1,1,1,1,1,1,1,1,1,1,0,0]","location_rts":"[592,204,303,288,201,438,82,270,258,454,183,346,237,327,332,781,424,707,299,966,300,237,233,263,269,202,34,323,21,181,81,164,228,396,253,50,54]","trial_type":"two-door-navigation","trial_index":27,"time_elapsed":1123929,"internal_node_id":"0.0-2.0-25.0"},{"group":"tri cycles (cube, non-group)","room_assignment":["grey","pink","brown","blue","yellow","red","purple","green"],"door_color_assignment":["white","black"],"door_generator_assignment":[0,1],"goal":2,"start":7,"action_noise":0.1,"location_history":"[7,3,4,0,3,4,7,3,7,3,4,0,2]","action_history":"[1,1,1,1,1,1,1,1,1,1,1,0]","door_history":"[1,1,1,1,1,1,1,1,1,1,1,0]","location_rts":"[481,138,147,259,205,211,300,49,95,60,453,122]","trial_type":"two-door-navigation","trial_index":28,"time_elapsed":1142665,"internal_node_id":"0.0-2.0-26.0"},{"group":"tri cycles (cube, non-group)","room_assignment":["grey","pink","brown","blue","yellow","red","purple","green"],"door_color_assignment":["white","black"],"door_generator_assignment":[0,1],"goal":1,"start":2,"action_noise":0.1,"location_history":"[2,1]","action_history":"[0]","door_history":"[0]","location_rts":"[1707]","trial_type":"two-door-navigation","trial_index":29,"time_elapsed":1148936,"internal_node_id":"0.0-2.0-27.0"},{"group":"tri cycles (cube, non-group)","room_assignment":["grey","pink","brown","blue","yellow","red","purple","green"],"door_color_assignment":["white","black"],"door_generator_assignment":[0,1],"goal":5,"start":1,"action_noise":0.1,"location_history":"[1,0,3,7,3,7,3,7,3,4,0,3,4,0,3,4,0,2,6,4,7,6,4,7,6,4,7,3,4,0,2,6,5]","action_history":"[0,0,0,0,0,1,1,1,1,1,1,1,1,1,1,1,0,0,0,0,0,0,0,0,0,0,1,1,1,1,1,1]","door_history":"[0,0,0,0,0,1,1,1,1,1,1,1,1,1,1,1,0,0,0,0,0,0,0,0,0,0,1,1,1,1,1,1]","location_rts":"[140,85,7,128,172,316,94,441,347,286,215,201,127,203,376,152,431,216,212,185,281,130,204,279,150,260,288,186,282,142,258,204]","trial_type":"two-door-navigation","trial_index":30,"time_elapsed":1193300,"internal_node_id":"0.0-2.0-28.0"},{"group":"tri cycles (cube, non-group)","room_assignment":["grey","pink","brown","blue","yellow","red","purple","green"],"door_color_assignment":["white","black"],"door_generator_assignment":[0,1],"goal":4,"start":5,"action_noise":0.1,"location_history":"[5,1,0,2,1,0,3,7,3,7,3,7,6,4]","action_history":"[0,0,0,0,0,0,0,0,0,0,0,0,0]","door_history":"[0,0,0,0,0,0,0,0,0,0,0,0,0]","location_rts":"[642,52,169,117,132,256,312,171,201,150,225,245,259]","trial_type":"two-door-navigation","trial_index":31,"time_elapsed":1213493,"internal_node_id":"0.0-2.0-29.0"},{"group":"tri cycles (cube, non-group)","room_assignment":["grey","pink","brown","blue","yellow","red","purple","green"],"door_color_assignment":["white","black"],"door_generator_assignment":[0,1],"goal":6,"start":4,"action_noise":0.1,"location_history":"[4,7,6]","action_history":"[0,0]","door_history":"[0,0]","location_rts":"[750,408]","trial_type":"two-door-navigation","trial_index":32,"time_elapsed":1220282,"internal_node_id":"0.0-2.0-30.0"},{"group":"tri cycles (cube, non-group)","room_assignment":["grey","pink","brown","blue","yellow","red","purple","green"],"door_color_assignment":["white","black"],"door_generator_assignment":[0,1],"goal":4,"start":6,"action_noise":0.1,"location_history":"[6,4]","action_history":"[0]","door_history":"[0]","location_rts":"[537]","trial_type":"two-door-navigation","trial_index":33,"time_elapsed":1225387,"internal_node_id":"0.0-2.0-31.0"},{"group":"tri cycles (cube, non-group)","room_assignment":["grey","pink","brown","blue","yellow","red","purple","green"],"door_color_assignment":["white","black"],"door_generator_assignment":[0,1],"goal":2,"start":4,"action_noise":0.1,"location_history":"[4,0,3,4,0,3,4,0,3,4,7,6,4,7,3,7,6,4,0,3,7,3,7,6,5,2]","action_history":"[1,1,1,1,1,1,1,1,1,0,0,0,0,0,0,0,0,0,1,1,1,0,0,1,1]","door_history":"[1,1,1,1,1,1,1,1,1,0,0,0,0,0,0,0,0,0,1,1,1,0,0,1,1]","location_rts":"[3761,2095,1044,1142,539,312,556,399,350,368,115,521,320,150,138,1413,258,149,139,257,533,609,303,1829,484]","trial_type":"two-door-navigation","trial_index":34,"time_elapsed":1273122,"internal_node_id":"0.0-2.0-32.0"},{"group":"tri cycles (cube, non-group)","room_assignment":["grey","pink","brown","blue","yellow","red","purple","green"],"door_color_assignment":["white","black"],"door_generator_assignment":[0,1],"goal":0,"start":2,"action_noise":0.1,"location_history":"[2,6,5,1,5,1,5,2,1,0]","action_history":"[1,1,1,1,1,1,1,0,0]","door_history":"[1,1,1,1,1,1,1,0,0]","location_rts":"[566,1251,826,565,1991,1316,693,611,577]","trial_type":"two-door-navigation","trial_index":35,"time_elapsed":1294560,"internal_node_id":"0.0-2.0-33.0"},{"group":"tri cycles (cube, non-group)","room_assignment":["grey","pink","brown","blue","yellow","red","purple","green"],"door_color_assignment":["white","black"],"door_generator_assignment":[0,1],"goal":5,"start":0,"action_noise":0.1,"location_history":"[0,3,4,0,3,4,7,6,4,7,6,5]","action_history":"[1,1,1,1,1,0,0,0,0,0,1]","door_history":"[1,1,1,1,1,0,0,0,0,0,1]","location_rts":"[367,295,116,152,270,6,51,320,194,227,237]","trial_type":"two-door-navigation","trial_index":36,"time_elapsed":1311954,"internal_node_id":"0.0-2.0-34.0"},{"group":"tri cycles (cube, non-group)","room_assignment":["grey","pink","brown","blue","yellow","red","purple","green"],"door_color_assignment":["white","black"],"door_generator_assignment":[0,1],"goal":1,"start":5,"action_noise":0.1,"location_history":"[5,2,6,5,2,6,5,2,6,4,0,3,7,6,4,7,6,4,7,6,4,7,6,4,7,6,4,7,6,4,7,6,5,2,6,5,2,1]","action_history":"[1,1,1,1,1,1,1,1,1,1,0,0,0,0,0,0,0,0,0,0,0,0,0,0,0,0,0,0,0,0,0,1,1,1,1,1,1]","door_history":"[1,1,1,1,1,1,1,1,1,1,0,0,0,0,0,0,0,0,0,0,0,0,0,0,0,0,0,0,0,0,0,1,1,1,1,1,1]","location_rts":"[714,359,104,63,226,47,67,364,35,98,62,1125,872,48,59,624,46,89,642,55,40,150,244,76,210,266,1198,190,257,196,197,278,246,184,208,531,713]","trial_type":"two-door-navigation","trial_index":37,"time_elapsed":1365489,"internal_node_id":"0.0-2.0-35.0"},{"group":"tri cycles (cube, non-group)","room_assignment":["grey","pink","brown","blue","yellow","red","purple","green"],"door_color_assignment":["white","black"],"door_generator_assignment":[0,1],"goal":7,"start":1,"action_noise":0.1,"location_history":"[1,0,3,7]","action_history":"[1,1,0]","door_history":"[1,1,0]","location_rts":"[782,13,23]","trial_type":"two-door-navigation","trial_index":38,"time_elapsed":1372984,"internal_node_id":"0.0-2.0-36.0"},{"group":"tri cycles (cube, non-group)","room_assignment":["grey","pink","brown","blue","yellow","red","purple","green"],"door_color_assignment":["white","black"],"door_generator_assignment":[0,1],"goal":3,"start":7,"action_noise":0.1,"location_history":"[7,3]","action_history":"[1]","door_history":"[1]","location_rts":"[622]","trial_type":"two-door-navigation","trial_index":39,"time_elapsed":1378179,"internal_node_id":"0.0-2.0-37.0"},{"group":"tri cycles (cube, non-group)","room_assignment":["grey","pink","brown","blue","yellow","red","purple","green"],"door_color_assignment":["white","black"],"door_generator_assignment":[0,1],"goal":6,"start":3,"action_noise":0.1,"location_history":"[3,7,6]","action_history":"[1,1]","door_history":"[1,1]","location_rts":"[681,120]","trial_type":"two-door-navigation","trial_index":40,"time_elapsed":1384602,"internal_node_id":"0.0-2.0-38.0"},{"group":"tri cycles (cube, non-group)","room_assignment":["grey","pink","brown","blue","yellow","red","purple","green"],"door_color_assignment":["white","black"],"door_generator_assignment":[0,1],"goal":2,"start":6,"action_noise":0.1,"location_history":"[6,4,7,6,5,2]","action_history":"[0,0,0,0,0]","door_history":"[0,0,0,0,0]","location_rts":"[618,340,94,397,380]","trial_type":"two-door-navigation","trial_index":41,"time_elapsed":1395243,"internal_node_id":"0.0-2.0-39.0"},{"group":"tri cycles (cube, non-group)","room_assignment":["grey","pink","brown","blue","yellow","red","purple","green"],"door_color_assignment":["white","black"],"door_generator_assignment":[0,1],"goal":1,"start":2,"action_noise":0.1,"location_history":"[2,6,5,2,6,5,2,6,5,2,6,5,2,6,5,2,1]","action_history":"[1,1,1,1,1,1,1,1,1,1,1,1,1,1,1,0]","door_history":"[1,1,1,1,1,1,1,1,1,1,1,1,1,1,1,0]","location_rts":"[637,409,101,456,209,683,631,312,411,99,170,237,324,273,74,281]","trial_type":"two-door-navigation","trial_index":42,"time_elapsed":1421001,"internal_node_id":"0.0-2.0-40.0"},{"group":"tri cycles (cube, non-group)","room_assignment":["grey","pink","brown","blue","yellow","red","purple","green"],"door_color_assignment":["white","black"],"door_generator_assignment":[0,1],"goal":0,"start":1,"action_noise":0.1,"location_history":"[1,5,2,6,5,1,5,2,6,5,2,6,5,2,6,5,2,6,5,2,6,5,1,0]","action_history":"[1,1,1,1,1,1,1,1,1,1,1,1,1,1,1,1,1,1,1,1,1,0,0]","door_history":"[1,1,1,1,1,1,1,1,1,1,1,1,1,1,1,1,1,1,1,1,1,0,0]","location_rts":"[529,407,419,374,372,192,172,783,141,454,372,1723,333,899,428,2067,370,262,8,295,616,207,488]","trial_type":"two-door-navigation","trial_index":43,"time_elapsed":1460756,"internal_node_id":"0.0-2.0-41.0"},{"group":"tri cycles (cube, non-group)","room_assignment":["grey","pink","brown","blue","yellow","red","purple","green"],"door_color_assignment":["white","black"],"door_generator_assignment":[0,1],"goal":4,"start":0,"action_noise":0.1,"location_history":"[0,3,4]","action_history":"[1,1]","door_history":"[1,1]","location_rts":"[906,266]","trial_type":"two-door-navigation","trial_index":44,"time_elapsed":1467557,"internal_node_id":"0.0-2.0-42.0"},{"group":"tri cycles (cube, non-group)","room_assignment":["grey","pink","brown","blue","yellow","red","purple","green"],"door_color_assignment":["white","black"],"door_generator_assignment":[0,1],"goal":6,"start":4,"action_noise":0.1,"location_history":"[4,0,3,4,0,3,4,0,3,4,7,6]","action_history":"[1,1,1,1,1,1,1,1,1,0,0]","door_history":"[1,1,1,1,1,1,1,1,1,0,0]","location_rts":"[519,225,63,15,273,13,58,421,69,645,189]","trial_type":"two-door-navigation","trial_index":45,"time_elapsed":1485199,"internal_node_id":"0.0-2.0-43.0"},{"group":"tri cycles (cube, non-group)","room_assignment":["grey","pink","brown","blue","yellow","red","purple","green"],"door_color_assignment":["white","black"],"door_generator_assignment":[0,1],"goal":3,"start":6,"action_noise":0.1,"location_history":"[6,5,2,6,5,1,5,2,6,5,2,1,5,2,1,0,2,6,4,0,2,1,5,2,6,4,0,3]","action_history":"[1,1,1,1,0,1,1,1,1,1,1,1,1,0,0,0,0,0,1,1,1,1,1,1,1,1,1]","door_history":"[1,1,1,1,0,1,1,1,1,1,1,1,1,0,0,0,0,0,1,1,1,1,1,1,1,1,1]","location_rts":"[579,140,155,22,977,1150,1632,403,315,98,282,298,146,259,391,204,149,216,50,533,164,168,88,195,80,344,364]","trial_type":"two-door-navigation","trial_index":46,"time_elapsed":1526690,"internal_node_id":"0.0-2.0-44.0"},{"group":"tri cycles (cube, non-group)","room_assignment":["grey","pink","brown","blue","yellow","red","purple","green"],"door_color_assignment":["white","black"],"door_generator_assignment":[0,1],"goal":7,"start":3,"action_noise":0.1,"location_history":"[3,7]","action_history":"[0]","door_history":"[0]","location_rts":"[549]","trial_type":"two-door-navigation","trial_index":47,"time_elapsed":1531810,"internal_node_id":"0.0-2.0-45.0"},{"group":"tri cycles (cube, non-group)","room_assignment":["grey","pink","brown","blue","yellow","red","purple","green"],"door_color_assignment":["white","black"],"door_generator_assignment":[0,1],"goal":5,"start":7,"action_noise":0.1,"location_history":"[7,3,4,0,3,4,7,3,4,0,3,7,3,4,0,3,4,0,3,4,0,3,4,0,3,7,3,4,0,2,1,0,2,1,0,2,6,5]","action_history":"[1,1,1,1,1,1,1,1,1,1,1,1,1,1,1,1,1,1,1,1,1,1,1,1,1,1,1,1,0,0,0,0,0,0,0,1,1]","door_history":"[1,1,1,1,1,1,1,1,1,1,1,1,1,1,1,1,1,1,1,1,1,1,1,1,1,1,1,1,0,0,0,0,0,0,0,1,1]","location_rts":"[512,287,252,329,357,244,322,277,320,200,341,247,307,89,320,281,525,181,365,320,154,334,318,326,63,284,109,236,213,94,229,81,197,129,160,2670,248]","trial_type":"two-door-navigation","trial_index":48,"time_elapsed":1586446,"internal_node_id":"0.0-2.0-46.0"},{"group":"tri cycles (cube, non-group)","room_assignment":["grey","pink","brown","blue","yellow","red","purple","green"],"door_color_assignment":["white","black"],"door_generator_assignment":[0,1],"goal":1,"start":5,"action_noise":0.1,"location_history":"[5,2,6,5,2,6,5,2,6,5,2,1]","action_history":"[1,1,1,1,1,1,1,1,1,1,1]","door_history":"[1,1,1,1,1,1,1,1,1,1,1]","location_rts":"[4422,518,112,125,186,398,587,297,354,509,379]","trial_type":"two-door-navigation","trial_index":49,"time_elapsed":1609480,"internal_node_id":"0.0-2.0-47.0"},{"group":"tri cycles (cube, non-group)","room_assignment":["grey","pink","brown","blue","yellow","red","purple","green"],"door_color_assignment":["white","black"],"door_generator_assignment":[0,1],"goal":6,"start":1,"action_noise":0.1,"location_history":"[1,5,2,6]","action_history":"[1,1,1]","door_history":"[1,1,1]","location_rts":"[447,308,167]","trial_type":"two-door-navigation","trial_index":50,"time_elapsed":1617086,"internal_node_id":"0.0-2.0-48.0"},{"group":"tri cycles (cube, non-group)","room_assignment":["grey","pink","brown","blue","yellow","red","purple","green"],"door_color_assignment":["white","black"],"door_generator_assignment":[0,1],"goal":0,"start":6,"action_noise":0.1,"location_history":"[6,5,2,6,5,2,6,5,2,6,5,2,1,0]","action_history":"[1,1,1,1,1,1,1,1,1,1,1,0,0]","door_history":"[1,1,1,1,1,1,1,1,1,1,1,0,0]","location_rts":"[660,344,239,481,231,386,323,347,155,709,361,420,378]","trial_type":"two-door-navigation","trial_index":51,"time_elapsed":1639411,"internal_node_id":"0.0-2.0-49.0"},{"view_history":"[{\"page_index\":0,\"viewing_time\":3138}]","rt":3139,"trial_type":"instructions","trial_index":52,"time_elapsed":1643552,"internal_node_id":"0.0-3.0"},{"view_history":"[{\"page_index\":0,\"viewing_time\":2159},{\"page_index\":1,\"viewing_time\":4739}]","rt":6898,"trial_type":"instructions","trial_index":53,"time_elapsed":1651451,"internal_node_id":"0.0-4.0"},{"group":"square cycles (cube, non-group)","fractal_assignment":["../images/org_blu.png","../images/cyn_red.png","../images/blu_wht.png","../images/pnk_blu.png","../images/gry_blk.png","../images/ylw_slt.png","../images/ylw_pnk.png","../images/grn_red.png"],"mutagen_generator_assignment":[0,1],"goal":6,"start":3,"action_noise":0.1,"location_history":"[3,0,1,2,3,0,4,5,1,0,4,5,4,7,6]","action_history":"[0,0,0,0,0,1,1,1,1,1,1,0,0,0]","mutagen_history":"[0,0,0,0,0,1,1,1,1,1,1,0,0,0]","location_rts":"[7625,253,436,2872,594,436,480,437,272,944,798,596,727,676]","trial_type":"fractal-mutation","trial_index":54,"time_elapsed":1687009,"internal_node_id":"0.0-5.0-0.0"},{"group":"square cycles (cube, non-group)","fractal_assignment":["../images/org_blu.png","../images/cyn_red.png","../images/blu_wht.png","../images/pnk_blu.png","../images/gry_blk.png","../images/ylw_slt.png","../images/ylw_pnk.png","../images/grn_red.png"],"mutagen_generator_assignment":[0,1],"goal":1,"start":6,"action_noise":0.1,"location_history":"[6,7,3,2,6,7,6,5,4,7,3,2,6,7,6,5,1]","action_history":"[1,1,1,1,1,0,0,0,0,1,1,0,1,0,0,1]","mutagen_history":"[1,1,1,1,1,0,0,0,0,1,1,0,1,0,0,1]","location_rts":"[441,817,80,13,184,92,134,143,207,72,85,232,167,173,247,179]","trial_type":"fractal-mutation","trial_index":55,"time_elapsed":1710790,"internal_node_id":"0.0-5.0-1.0"},{"group":"square cycles (cube, non-group)","fractal_assignment":["../images/org_blu.png","../images/cyn_red.png","../images/blu_wht.png","../images/pnk_blu.png","../images/gry_blk.png","../images/ylw_slt.png","../images/ylw_pnk.png","../images/grn_red.png"],"mutagen_generator_assignment":[0,1],"goal":2,"start":1,"action_noise":0.1,"location_history":"[1,0,4,5,4,7,6,5,1,2]","action_history":"[1,1,1,0,0,0,0,1,0]","mutagen_history":"[1,1,1,0,0,0,0,1,0]","location_rts":"[313,149,230,130,198,208,147,144,52]","trial_type":"fractal-mutation","trial_index":56,"time_elapsed":1725405,"internal_node_id":"0.0-5.0-2.0"},{"group":"square cycles (cube, non-group)","fractal_assignment":["../images/org_blu.png","../images/cyn_red.png","../images/blu_wht.png","../images/pnk_blu.png","../images/gry_blk.png","../images/ylw_slt.png","../images/ylw_pnk.png","../images/grn_red.png"],"mutagen_generator_assignment":[0,1],"goal":0,"start":2,"action_noise":0.1,"location_history":"[2,6,7,3,0]","action_history":"[1,1,1,0]","mutagen_history":"[1,1,1,0]","location_rts":"[476,150,9,90]","trial_type":"fractal-mutation","trial_index":57,"time_elapsed":1733883,"internal_node_id":"0.0-5.0-3.0"},{"group":"square cycles (cube, non-group)","fractal_assignment":["../images/org_blu.png","../images/cyn_red.png","../images/blu_wht.png","../images/pnk_blu.png","../images/gry_blk.png","../images/ylw_slt.png","../images/ylw_pnk.png","../images/grn_red.png"],"mutagen_generator_assignment":[0,1],"goal":7,"start":0,"action_noise":0.1,"location_history":"[0,1,2,6,5,1,2,6,5,4,7]","action_history":"[0,0,1,1,1,0,0,0,0,0]","mutagen_history":"[0,0,1,1,1,0,0,0,0,0]","location_rts":"[775,12,133,219,35,43,64,175,249,387]","trial_type":"fractal-mutation","trial_index":58,"time_elapsed":1750095,"internal_node_id":"0.0-5.0-4.0"},{"group":"square cycles (cube, non-group)","fractal_assignment":["../images/org_blu.png","../images/cyn_red.png","../images/blu_wht.png","../images/pnk_blu.png","../images/gry_blk.png","../images/ylw_slt.png","../images/ylw_pnk.png","../images/grn_red.png"],"mutagen_generator_assignment":[0,1],"goal":5,"start":7,"action_noise":0.1,"location_history":"[7,6,5]","action_history":"[0,0]","mutagen_history":"[0,0]","location_rts":"[1304,149]","trial_type":"fractal-mutation","trial_index":59,"time_elapsed":1757166,"internal_node_id":"0.0-5.0-5.0"},{"group":"square cycles (cube, non-group)","fractal_assignment":["../images/org_blu.png","../images/cyn_red.png","../images/blu_wht.png","../images/pnk_blu.png","../images/gry_blk.png","../images/ylw_slt.png","../images/ylw_pnk.png","../images/grn_red.png"],"mutagen_generator_assignment":[0,1],"goal":4,"start":5,"action_noise":0.1,"location_history":"[5,4]","action_history":"[1]","mutagen_history":"[1]","location_rts":"[163]","trial_type":"fractal-mutation","trial_index":60,"time_elapsed":1761902,"internal_node_id":"0.0-5.0-6.0"},{"group":"square cycles (cube, non-group)","fractal_assignment":["../images/org_blu.png","../images/cyn_red.png","../images/blu_wht.png","../images/pnk_blu.png","../images/gry_blk.png","../images/ylw_slt.png","../images/ylw_pnk.png","../images/grn_red.png"],"mutagen_generator_assignment":[0,1],"goal":2,"start":4,"action_noise":0.1,"location_history":"[4,5,1,2]","action_history":"[1,1,0]","mutagen_history":"[1,1,0]","location_rts":"[53,237,56]","trial_type":"fractal-mutation","trial_index":61,"time_elapsed":1768940,"internal_node_id":"0.0-5.0-7.0"},{"group":"square cycles (cube, non-group)","fractal_assignment":["../images/org_blu.png","../images/cyn_red.png","../images/blu_wht.png","../images/pnk_blu.png","../images/gry_blk.png","../images/ylw_slt.png","../images/ylw_pnk.png","../images/grn_red.png"],"mutagen_generator_assignment":[0,1],"goal":3,"start":2,"action_noise":0.1,"location_history":"[2,3]","action_history":"[0]","mutagen_history":"[0]","location_rts":"[61]","trial_type":"fractal-mutation","trial_index":62,"time_elapsed":1773570,"internal_node_id":"0.0-5.0-8.0"},{"group":"square cycles (cube, non-group)","fractal_assignment":["../images/org_blu.png","../images/cyn_red.png","../images/blu_wht.png","../images/pnk_blu.png","../images/gry_blk.png","../images/ylw_slt.png","../images/ylw_pnk.png","../images/grn_red.png"],"mutagen_generator_assignment":[0,1],"goal":7,"start":3,"action_noise":0.1,"location_history":"[3,2,6,5,1,0,1,2,3,2,6,5,4,7]","action_history":"[1,1,1,1,1,0,0,0,0,1,0,0,0]","mutagen_history":"[1,1,1,1,1,0,0,0,0,1,0,0,0]","location_rts":"[3334,40,142,8,8,37,130,137,151,18,188,138,6]","trial_type":"fractal-mutation","trial_index":63,"time_elapsed":1795199,"internal_node_id":"0.0-5.0-9.0"},{"group":"square cycles (cube, non-group)","fractal_assignment":["../images/org_blu.png","../images/cyn_red.png","../images/blu_wht.png","../images/pnk_blu.png","../images/gry_blk.png","../images/ylw_slt.png","../images/ylw_pnk.png","../images/grn_red.png"],"mutagen_generator_assignment":[0,1],"goal":0,"start":7,"action_noise":0.1,"location_history":"[7,3,0]","action_history":"[1,1]","mutagen_history":"[1,1]","location_rts":"[530,300]","trial_type":"fractal-mutation","trial_index":64,"time_elapsed":1801653,"internal_node_id":"0.0-5.0-10.0"},{"group":"square cycles (cube, non-group)","fractal_assignment":["../images/org_blu.png","../images/cyn_red.png","../images/blu_wht.png","../images/pnk_blu.png","../images/gry_blk.png","../images/ylw_slt.png","../images/ylw_pnk.png","../images/grn_red.png"],"mutagen_generator_assignment":[0,1],"goal":1,"start":0,"action_noise":0.1,"location_history":"[0,1]","action_history":"[0]","mutagen_history":"[0]","location_rts":"[217]","trial_type":"fractal-mutation","trial_index":65,"time_elapsed":1806441,"internal_node_id":"0.0-5.0-11.0"},{"group":"square cycles (cube, non-group)","fractal_assignment":["../images/org_blu.png","../images/cyn_red.png","../images/blu_wht.png","../images/pnk_blu.png","../images/gry_blk.png","../images/ylw_slt.png","../images/ylw_pnk.png","../images/grn_red.png"],"mutagen_generator_assignment":[0,1],"goal":6,"start":1,"action_noise":0.1,"location_history":"[1,0,1,2,3,0,4,5,1,0,4,5,4,5,1,0,1,0,4,5,4,7,3,0,4,5,1,2,6]","action_history":"[0,0,0,0,0,1,1,1,1,1,1,0,1,1,1,0,1,1,1,0,0,1,0,1,1,1,0,1]","mutagen_history":"[0,0,0,0,0,1,1,1,1,1,1,0,1,1,1,0,1,1,1,0,0,1,0,1,1,1,0,1]","location_rts":"[71,164,9,10,160,83,15,80,55,9,141,207,153,215,44,204,112,165,16,9,16,194,195,24,95,104,44,132]","trial_type":"fractal-mutation","trial_index":66,"time_elapsed":1842349,"internal_node_id":"0.0-5.0-12.0"},{"group":"square cycles (cube, non-group)","fractal_assignment":["../images/org_blu.png","../images/cyn_red.png","../images/blu_wht.png","../images/pnk_blu.png","../images/gry_blk.png","../images/ylw_slt.png","../images/ylw_pnk.png","../images/grn_red.png"],"mutagen_generator_assignment":[0,1],"goal":4,"start":6,"action_noise":0.1,"location_history":"[6,7,3,2,3,2,6,7,3,0,1,2,6,7,6,5,4]","action_history":"[1,1,1,0,0,1,1,0,0,0,0,1,1,1,0,0]","mutagen_history":"[1,1,1,0,0,1,1,0,0,0,0,1,1,1,0,0]","location_rts":"[131,432,167,577,98,182,130,68,1,165,7,843,49,21,97,120]","trial_type":"fractal-mutation","trial_index":67,"time_elapsed":1865896,"internal_node_id":"0.0-5.0-13.0"},{"group":"square cycles (cube, non-group)","fractal_assignment":["../images/org_blu.png","../images/cyn_red.png","../images/blu_wht.png","../images/pnk_blu.png","../images/gry_blk.png","../images/ylw_slt.png","../images/ylw_pnk.png","../images/grn_red.png"],"mutagen_generator_assignment":[0,1],"goal":5,"start":4,"action_noise":0.1,"location_history":"[4,5]","action_history":"[1]","mutagen_history":"[1]","location_rts":"[59]","trial_type":"fractal-mutation","trial_index":68,"time_elapsed":1870524,"internal_node_id":"0.0-5.0-14.0"},{"group":"square cycles (cube, non-group)","fractal_assignment":["../images/org_blu.png","../images/cyn_red.png","../images/blu_wht.png","../images/pnk_blu.png","../images/gry_blk.png","../images/ylw_slt.png","../images/ylw_pnk.png","../images/grn_red.png"],"mutagen_generator_assignment":[0,1],"goal":4,"start":5,"action_noise":0.1,"location_history":"[5,4]","action_history":"[0]","mutagen_history":"[0]","location_rts":"[6]","trial_type":"fractal-mutation","trial_index":69,"time_elapsed":1875098,"internal_node_id":"0.0-5.0-15.0"},{"group":"square cycles (cube, non-group)","fractal_assignment":["../images/org_blu.png","../images/cyn_red.png","../images/blu_wht.png","../images/pnk_blu.png","../images/gry_blk.png","../images/ylw_slt.png","../images/ylw_pnk.png","../images/grn_red.png"],"mutagen_generator_assignment":[0,1],"goal":0,"start":4,"action_noise":0.1,"location_history":"[4,7,6,5,1,2,6,7,6,5,4,5,4,7,6,7,6,5,4,7,6,5,4,7,3,0]","action_history":"[0,0,1,1,0,1,1,0,0,0,1,0,0,0,0,0,0,0,0,0,0,0,0,0,0]","mutagen_history":"[0,0,1,1,0,1,1,0,0,0,1,0,0,0,0,0,0,0,0,0,0,0,0,0,0]","location_rts":"[141,133,158,1027,535,103,135,137,35,192,22,414,287,188,960,438,609,853,276,193,99,39,52,1432,28]","trial_type":"fractal-mutation","trial_index":70,"time_elapsed":1913607,"internal_node_id":"0.0-5.0-16.0"},{"group":"square cycles (cube, non-group)","fractal_assignment":["../images/org_blu.png","../images/cyn_red.png","../images/blu_wht.png","../images/pnk_blu.png","../images/gry_blk.png","../images/ylw_slt.png","../images/ylw_pnk.png","../images/grn_red.png"],"mutagen_generator_assignment":[0,1],"goal":7,"start":0,"action_noise":0.1,"location_history":"[0,1,2,3,0,1,2,3,0,1,2,3,0,1,2,6,5,4,7]","action_history":"[0,0,0,0,0,0,0,0,0,0,0,0,0,0,0,0,0,0]","mutagen_history":"[0,0,0,0,0,0,0,0,0,0,0,0,0,0,0,0,0,0]","location_rts":"[788,5801,105,384,420,395,36,201,114,971,108,93,12,102,153,94,220,303]","trial_type":"fractal-mutation","trial_index":71,"time_elapsed":1946516,"internal_node_id":"0.0-5.0-17.0"},{"group":"square cycles (cube, non-group)","fractal_assignment":["../images/org_blu.png","../images/cyn_red.png","../images/blu_wht.png","../images/pnk_blu.png","../images/gry_blk.png","../images/ylw_slt.png","../images/ylw_pnk.png","../images/grn_red.png"],"mutagen_generator_assignment":[0,1],"goal":2,"start":7,"action_noise":0.1,"location_history":"[7,6,5,1,2]","action_history":"[0,0,0,0]","mutagen_history":"[0,0,0,0]","location_rts":"[29987,463,198,1475]","trial_type":"fractal-mutation","trial_index":72,"time_elapsed":1986397,"internal_node_id":"0.0-5.0-18.0"},{"group":"square cycles (cube, non-group)","fractal_assignment":["../images/org_blu.png","../images/cyn_red.png","../images/blu_wht.png","../images/pnk_blu.png","../images/gry_blk.png","../images/ylw_slt.png","../images/ylw_pnk.png","../images/grn_red.png"],"mutagen_generator_assignment":[0,1],"goal":1,"start":2,"action_noise":0.1,"location_history":"[2,3,2,3,0,1]","action_history":"[0,0,0,0,0]","mutagen_history":"[0,0,0,0,0]","location_rts":"[1041,33,91,165,163]","trial_type":"fractal-mutation","trial_index":73,"time_elapsed":1996701,"internal_node_id":"0.0-5.0-19.0"},{"group":"square cycles (cube, non-group)","fractal_assignment":["../images/org_blu.png","../images/cyn_red.png","../images/blu_wht.png","../images/pnk_blu.png","../images/gry_blk.png","../images/ylw_slt.png","../images/ylw_pnk.png","../images/grn_red.png"],"mutagen_generator_assignment":[0,1],"goal":3,"start":1,"action_noise":0.1,"location_history":"[1,0,1,2,3]","action_history":"[0,0,0,0]","mutagen_history":"[0,0,0,0]","location_rts":"[1089,1,245,196]","trial_type":"fractal-mutation","trial_index":74,"time_elapsed":2005988,"internal_node_id":"0.0-5.0-20.0"},{"group":"square cycles (cube, non-group)","fractal_assignment":["../images/org_blu.png","../images/cyn_red.png","../images/blu_wht.png","../images/pnk_blu.png","../images/gry_blk.png","../images/ylw_slt.png","../images/ylw_pnk.png","../images/grn_red.png"],"mutagen_generator_assignment":[0,1],"goal":6,"start":3,"action_noise":0.1,"location_history":"[3,0,1,2,3,2,6]","action_history":"[0,0,0,0,0,0]","mutagen_history":"[0,0,0,0,0,0]","location_rts":"[8,25,154,89,161,7]","trial_type":"fractal-mutation","trial_index":75,"time_elapsed":2016310,"internal_node_id":"0.0-5.0-21.0"},{"group":"square cycles (cube, non-group)","fractal_assignment":["../images/org_blu.png","../images/cyn_red.png","../images/blu_wht.png","../images/pnk_blu.png","../images/gry_blk.png","../images/ylw_slt.png","../images/ylw_pnk.png","../images/grn_red.png"],"mutagen_generator_assignment":[0,1],"goal":5,"start":6,"action_noise":0.1,"location_history":"[6,5]","action_history":"[0]","mutagen_history":"[0]","location_rts":"[260]","trial_type":"fractal-mutation","trial_index":76,"time_elapsed":2021139,"internal_node_id":"0.0-5.0-22.0"},{"group":"square cycles (cube, non-group)","fractal_assignment":["../images/org_blu.png","../images/cyn_red.png","../images/blu_wht.png","../images/pnk_blu.png","../images/gry_blk.png","../images/ylw_slt.png","../images/ylw_pnk.png","../images/grn_red.png"],"mutagen_generator_assignment":[0,1],"goal":3,"start":5,"action_noise":0.1,"location_history":"[5,4,7,6,5,4,7,6,5,4,7,6,5,4,7,6,5,4,7,6,5,4,7,6,5,4,7,3]","action_history":"[0,0,0,0,0,0,0,0,0,0,0,0,0,0,0,0,0,0,0,0,0,0,0,0,0,0,1]","mutagen_history":"[0,0,0,0,0,0,0,0,0,0,0,0,0,0,0,0,0,0,0,0,0,0,0,0,0,0,1]","location_rts":"[1807,223,42,164,41,735,1829,68,1034,5526,1,10,174,249,21,7233,200,177,90,167,149,120,342,54,81,9948,1849]","trial_type":"fractal-mutation","trial_index":77,"time_elapsed":2085566,"internal_node_id":"0.0-5.0-23.0"},{"group":"square cycles (cube, non-group)","fractal_assignment":["../images/org_blu.png","../images/cyn_red.png","../images/blu_wht.png","../images/pnk_blu.png","../images/gry_blk.png","../images/ylw_slt.png","../images/ylw_pnk.png","../images/grn_red.png"],"mutagen_generator_assignment":[0,1],"goal":0,"start":3,"action_noise":0.1,"location_history":"[3,2,6,7,3,2,6,7,3,2,6,7,3,2,6,7,6,5,4,5,1,0]","action_history":"[1,1,1,1,0,1,1,1,1,1,1,1,1,1,1,0,0,0,1,1,1]","mutagen_history":"[1,1,1,1,0,1,1,1,1,1,1,1,1,1,1,0,0,0,1,1,1]","location_rts":"[133,179,155,222,184,14,215,143,134,94,76,80,184,33,6,212,124,100,38,204,177]","trial_type":"fractal-mutation","trial_index":78,"time_elapsed":2114062,"internal_node_id":"0.0-5.0-24.0"},{"group":"square cycles (cube, non-group)","fractal_assignment":["../images/org_blu.png","../images/cyn_red.png","../images/blu_wht.png","../images/pnk_blu.png","../images/gry_blk.png","../images/ylw_slt.png","../images/ylw_pnk.png","../images/grn_red.png"],"mutagen_generator_assignment":[0,1],"goal":7,"start":0,"action_noise":0.1,"location_history":"[0,1,0,4,7]","action_history":"[1,1,1,0]","mutagen_history":"[1,1,1,0]","location_rts":"[50,186,72,118]","trial_type":"fractal-mutation","trial_index":79,"time_elapsed":2122229,"internal_node_id":"0.0-5.0-25.0"},{"group":"square cycles (cube, non-group)","fractal_assignment":["../images/org_blu.png","../images/cyn_red.png","../images/blu_wht.png","../images/pnk_blu.png","../images/gry_blk.png","../images/ylw_slt.png","../images/ylw_pnk.png","../images/grn_red.png"],"mutagen_generator_assignment":[0,1],"goal":2,"start":7,"action_noise":0.1,"location_history":"[7,6,5,4,7,6,5,1,2]","action_history":"[0,0,0,0,0,0,0,0]","mutagen_history":"[0,0,0,0,0,0,0,0]","location_rts":"[95,127,251,2078,54,8,708,171]","trial_type":"fractal-mutation","trial_index":80,"time_elapsed":2137712,"internal_node_id":"0.0-5.0-26.0"},{"group":"square cycles (cube, non-group)","fractal_assignment":["../images/org_blu.png","../images/cyn_red.png","../images/blu_wht.png","../images/pnk_blu.png","../images/gry_blk.png","../images/ylw_slt.png","../images/ylw_pnk.png","../images/grn_red.png"],"mutagen_generator_assignment":[0,1],"goal":1,"start":2,"action_noise":0.1,"location_history":"[2,3,0,1]","action_history":"[0,0,0]","mutagen_history":"[0,0,0]","location_rts":"[248,311,132]","trial_type":"fractal-mutation","trial_index":81,"time_elapsed":2145094,"internal_node_id":"0.0-5.0-27.0"},{"group":"square cycles (cube, non-group)","fractal_assignment":["../images/org_blu.png","../images/cyn_red.png","../images/blu_wht.png","../images/pnk_blu.png","../images/gry_blk.png","../images/ylw_slt.png","../images/ylw_pnk.png","../images/grn_red.png"],"mutagen_generator_assignment":[0,1],"goal":5,"start":1,"action_noise":0.1,"location_history":"[1,2,3,0,1,2,3,0,1,2,3,0,1,0,1,2,3,0,1,2,3,0,1,2,3,0,1,2,3,2,3,0,1,2,3,0,1,2,6,5]","action_history":"[0,0,0,0,0,0,0,0,0,0,0,0,0,0,0,0,0,0,0,0,0,0,0,0,0,0,0,0,0,0,0,0,0,0,0,0,0,0,0]","mutagen_history":"[0,0,0,0,0,0,0,0,0,0,0,0,0,0,0,0,0,0,0,0,0,0,0,0,0,0,0,0,0,0,0,0,0,0,0,0,0,0,0]","location_rts":"[224,171,156,154,135,80,136,123,37,346,136,152,202,160,366,114,67,166,118,55,7,237,154,101,92,187,78,284,107,58,365,107,77,219,745,505,995,601,1324]","trial_type":"fractal-mutation","trial_index":82,"time_elapsed":2199307,"internal_node_id":"0.0-5.0-28.0"},{"group":"square cycles (cube, non-group)","fractal_assignment":["../images/org_blu.png","../images/cyn_red.png","../images/blu_wht.png","../images/pnk_blu.png","../images/gry_blk.png","../images/ylw_slt.png","../images/ylw_pnk.png","../images/grn_red.png"],"mutagen_generator_assignment":[0,1],"goal":4,"start":5,"action_noise":0.1,"location_history":"[5,4]","action_history":"[0]","mutagen_history":"[0]","location_rts":"[758]","trial_type":"fractal-mutation","trial_index":83,"time_elapsed":2204636,"internal_node_id":"0.0-5.0-29.0"},{"group":"square cycles (cube, non-group)","fractal_assignment":["../images/org_blu.png","../images/cyn_red.png","../images/blu_wht.png","../images/pnk_blu.png","../images/gry_blk.png","../images/ylw_slt.png","../images/ylw_pnk.png","../images/grn_red.png"],"mutagen_generator_assignment":[0,1],"goal":6,"start":4,"action_noise":0.1,"location_history":"[4,7,3,2,3,0,1,2,3,0,1,2,3,0,1,2,3,0,1,2,3,0,1,2,3,0,1,2,6]","action_history":"[0,0,0,0,0,0,0,0,0,0,0,0,0,0,0,0,0,0,0,0,0,0,0,0,0,0,0,0]","mutagen_history":"[0,0,0,0,0,0,0,0,0,0,0,0,0,0,0,0,0,0,0,0,0,0,0,0,0,0,0,0]","location_rts":"[287,384,566,230,367,254,215,138,153,71,460,333,215,271,127,602,172,1618,197,41,262,521,191,336,107,42,234,150]","trial_type":"fractal-mutation","trial_index":84,"time_elapsed":2246404,"internal_node_id":"0.0-5.0-30.0"},{"group":"square cycles (cube, non-group)","fractal_assignment":["../images/org_blu.png","../images/cyn_red.png","../images/blu_wht.png","../images/pnk_blu.png","../images/gry_blk.png","../images/ylw_slt.png","../images/ylw_pnk.png","../images/grn_red.png"],"mutagen_generator_assignment":[0,1],"goal":4,"start":6,"action_noise":0.1,"location_history":"[6,5,1,0,4]","action_history":"[0,1,1,1]","mutagen_history":"[0,1,1,1]","location_rts":"[913,1920,127,175]","trial_type":"fractal-mutation","trial_index":85,"time_elapsed":2257295,"internal_node_id":"0.0-5.0-31.0"},{"group":"square cycles (cube, non-group)","fractal_assignment":["../images/org_blu.png","../images/cyn_red.png","../images/blu_wht.png","../images/pnk_blu.png","../images/gry_blk.png","../images/ylw_slt.png","../images/ylw_pnk.png","../images/grn_red.png"],"mutagen_generator_assignment":[0,1],"goal":2,"start":4,"action_noise":0.1,"location_history":"[4,5,1,2]","action_history":"[1,1,1]","mutagen_history":"[1,1,1]","location_rts":"[118,210,166]","trial_type":"fractal-mutation","trial_index":86,"time_elapsed":2264487,"internal_node_id":"0.0-5.0-32.0"},{"group":"square cycles (cube, non-group)","fractal_assignment":["../images/org_blu.png","../images/cyn_red.png","../images/blu_wht.png","../images/pnk_blu.png","../images/gry_blk.png","../images/ylw_slt.png","../images/ylw_pnk.png","../images/grn_red.png"],"mutagen_generator_assignment":[0,1],"goal":0,"start":2,"action_noise":0.1,"location_history":"[2,3,2,6,5,1,2,3,0]","action_history":"[0,1,1,0,1,1,0,0]","mutagen_history":"[0,1,1,0,1,1,0,0]","location_rts":"[387,163,179,216,63,168,143,208]","trial_type":"fractal-mutation","trial_index":87,"time_elapsed":2278013,"internal_node_id":"0.0-5.0-33.0"},{"group":"square cycles (cube, non-group)","fractal_assignment":["../images/org_blu.png","../images/cyn_red.png","../images/blu_wht.png","../images/pnk_blu.png","../images/gry_blk.png","../images/ylw_slt.png","../images/ylw_pnk.png","../images/grn_red.png"],"mutagen_generator_assignment":[0,1],"goal":5,"start":0,"action_noise":0.1,"location_history":"[0,4,5]","action_history":"[1,1]","mutagen_history":"[1,1]","location_rts":"[473,166]","trial_type":"fractal-mutation","trial_index":88,"time_elapsed":2284289,"internal_node_id":"0.0-5.0-34.0"},{"group":"square cycles (cube, non-group)","fractal_assignment":["../images/org_blu.png","../images/cyn_red.png","../images/blu_wht.png","../images/pnk_blu.png","../images/gry_blk.png","../images/ylw_slt.png","../images/ylw_pnk.png","../images/grn_red.png"],"mutagen_generator_assignment":[0,1],"goal":1,"start":5,"action_noise":0.1,"location_history":"[5,1]","action_history":"[1]","mutagen_history":"[1]","location_rts":"[318]","trial_type":"fractal-mutation","trial_index":89,"time_elapsed":2289179,"internal_node_id":"0.0-5.0-35.0"},{"group":"square cycles (cube, non-group)","fractal_assignment":["../images/org_blu.png","../images/cyn_red.png","../images/blu_wht.png","../images/pnk_blu.png","../images/gry_blk.png","../images/ylw_slt.png","../images/ylw_pnk.png","../images/grn_red.png"],"mutagen_generator_assignment":[0,1],"goal":7,"start":1,"action_noise":0.1,"location_history":"[1,2,3,0,1,2,3,0,4,7]","action_history":"[0,0,0,0,0,0,0,0,0]","mutagen_history":"[0,0,0,0,0,0,0,0,0]","location_rts":"[586,107,161,22,180,94,90,67,118]","trial_type":"fractal-mutation","trial_index":90,"time_elapsed":2303660,"internal_node_id":"0.0-5.0-36.0"},{"group":"square cycles (cube, non-group)","fractal_assignment":["../images/org_blu.png","../images/cyn_red.png","../images/blu_wht.png","../images/pnk_blu.png","../images/gry_blk.png","../images/ylw_slt.png","../images/ylw_pnk.png","../images/grn_red.png"],"mutagen_generator_assignment":[0,1],"goal":3,"start":7,"action_noise":0.1,"location_history":"[7,3]","action_history":"[1]","mutagen_history":"[1]","location_rts":"[144]","trial_type":"fractal-mutation","trial_index":91,"time_elapsed":2308378,"internal_node_id":"0.0-5.0-37.0"},{"group":"square cycles (cube, non-group)","fractal_assignment":["../images/org_blu.png","../images/cyn_red.png","../images/blu_wht.png","../images/pnk_blu.png","../images/gry_blk.png","../images/ylw_slt.png","../images/ylw_pnk.png","../images/grn_red.png"],"mutagen_generator_assignment":[0,1],"goal":6,"start":3,"action_noise":0.1,"location_history":"[3,0,1,2,3,0,1,0,1,0,4,7,6]","action_history":"[0,0,0,0,0,0,1,0,1,1,0,0]","mutagen_history":"[0,0,0,0,0,0,1,0,1,1,0,0]","location_rts":"[65,116,113,101,124,149,70,173,143,138,193,269]","trial_type":"fractal-mutation","trial_index":92,"time_elapsed":2326259,"internal_node_id":"0.0-5.0-38.0"},{"group":"square cycles (cube, non-group)","fractal_assignment":["../images/org_blu.png","../images/cyn_red.png","../images/blu_wht.png","../images/pnk_blu.png","../images/gry_blk.png","../images/ylw_slt.png","../images/ylw_pnk.png","../images/grn_red.png"],"mutagen_generator_assignment":[0,1],"goal":2,"start":6,"action_noise":0.1,"location_history":"[6,7,3,2]","action_history":"[1,1,1]","mutagen_history":"[1,1,1]","location_rts":"[339,86,173]","trial_type":"fractal-mutation","trial_index":93,"time_elapsed":2333544,"internal_node_id":"0.0-5.0-39.0"},{"group":"square cycles (cube, non-group)","fractal_assignment":["../images/org_blu.png","../images/cyn_red.png","../images/blu_wht.png","../images/pnk_blu.png","../images/gry_blk.png","../images/ylw_slt.png","../images/ylw_pnk.png","../images/grn_red.png"],"mutagen_generator_assignment":[0,1],"goal":1,"start":2,"action_noise":0.1,"location_history":"[2,3,0,1]","action_history":"[0,0,0]","mutagen_history":"[0,0,0]","location_rts":"[2214,50,75]","trial_type":"fractal-mutation","trial_index":94,"time_elapsed":2342584,"internal_node_id":"0.0-5.0-40.0"},{"group":"square cycles (cube, non-group)","fractal_assignment":["../images/org_blu.png","../images/cyn_red.png","../images/blu_wht.png","../images/pnk_blu.png","../images/gry_blk.png","../images/ylw_slt.png","../images/ylw_pnk.png","../images/grn_red.png"],"mutagen_generator_assignment":[0,1],"goal":0,"start":1,"action_noise":0.1,"location_history":"[1,2,6,7,3,2,6,7,3,2,6,5,4,5,4,7,6,5,4,7,6,5,4,7,3,2,6,7,3,2,3,0]","action_history":"[1,1,1,1,1,1,1,1,1,1,0,0,0,0,0,0,0,0,0,0,0,0,0,1,1,1,1,1,1,0,0]","mutagen_history":"[1,1,1,1,1,1,1,1,1,1,0,0,0,0,0,0,0,0,0,0,0,0,0,1,1,1,1,1,1,0,0]","location_rts":"[92,55,58,82,66,120,192,186,130,86,113,143,55,102,121,163,182,93,144,125,107,104,166,213,216,127,89,140,52,4,9]","trial_type":"fractal-mutation","trial_index":95,"time_elapsed":2382489,"internal_node_id":"0.0-5.0-41.0"},{"group":"square cycles (cube, non-group)","fractal_assignment":["../images/org_blu.png","../images/cyn_red.png","../images/blu_wht.png","../images/pnk_blu.png","../images/gry_blk.png","../images/ylw_slt.png","../images/ylw_pnk.png","../images/grn_red.png"],"mutagen_generator_assignment":[0,1],"goal":4,"start":0,"action_noise":0.1,"location_history":"[0,1,2,3,0,1,0,1,2,3,0,1,2,3,0,1,0,1,0,4]","action_history":"[0,0,0,0,0,0,0,0,0,0,0,0,0,0,0,1,1,1,1]","mutagen_history":"[0,0,0,0,0,0,0,0,0,0,0,0,0,0,0,1,1,1,1]","location_rts":"[38,159,98,97,78,130,129,22,26,293,154,271,142,270,9,195,180,322,61]","trial_type":"fractal-mutation","trial_index":96,"time_elapsed":2408777,"internal_node_id":"0.0-5.0-42.0"},{"group":"square cycles (cube, non-group)","fractal_assignment":["../images/org_blu.png","../images/cyn_red.png","../images/blu_wht.png","../images/pnk_blu.png","../images/gry_blk.png","../images/ylw_slt.png","../images/ylw_pnk.png","../images/grn_red.png"],"mutagen_generator_assignment":[0,1],"goal":6,"start":4,"action_noise":0.1,"location_history":"[4,7,6]","action_history":"[0,0]","mutagen_history":"[0,0]","location_rts":"[591,120]","trial_type":"fractal-mutation","trial_index":97,"time_elapsed":2415111,"internal_node_id":"0.0-5.0-43.0"},{"group":"square cycles (cube, non-group)","fractal_assignment":["../images/org_blu.png","../images/cyn_red.png","../images/blu_wht.png","../images/pnk_blu.png","../images/gry_blk.png","../images/ylw_slt.png","../images/ylw_pnk.png","../images/grn_red.png"],"mutagen_generator_assignment":[0,1],"goal":3,"start":6,"action_noise":0.1,"location_history":"[6,7,6,5,4,7,6,5,1,2,6,7,3]","action_history":"[0,0,0,0,0,0,1,1,1,1,1,1]","mutagen_history":"[0,0,0,0,0,0,1,1,1,1,1,1]","location_rts":"[40,94,52,69,106,76,193,27,175,209,217,15]","trial_type":"fractal-mutation","trial_index":98,"time_elapsed":2432615,"internal_node_id":"0.0-5.0-44.0"},{"group":"square cycles (cube, non-group)","fractal_assignment":["../images/org_blu.png","../images/cyn_red.png","../images/blu_wht.png","../images/pnk_blu.png","../images/gry_blk.png","../images/ylw_slt.png","../images/ylw_pnk.png","../images/grn_red.png"],"mutagen_generator_assignment":[0,1],"goal":7,"start":3,"action_noise":0.1,"location_history":"[3,0,1,2,3,2,3,2,3,2,3,0,1,2,3,0,1,0,1,0,1,0,4,7]","action_history":"[0,0,0,0,0,0,0,0,0,0,0,0,0,0,0,0,0,0,1,1,1,1,1]","mutagen_history":"[0,0,0,0,0,0,0,0,0,0,0,0,0,0,0,0,0,0,1,1,1,1,1]","location_rts":"[114,177,54,273,278,220,155,87,79,79,44,382,171,307,65,96,224,251,28,56,306,76,251]","trial_type":"fractal-mutation","trial_index":99,"time_elapsed":2464309,"internal_node_id":"0.0-5.0-45.0"},{"group":"square cycles (cube, non-group)","fractal_assignment":["../images/org_blu.png","../images/cyn_red.png","../images/blu_wht.png","../images/pnk_blu.png","../images/gry_blk.png","../images/ylw_slt.png","../images/ylw_pnk.png","../images/grn_red.png"],"mutagen_generator_assignment":[0,1],"goal":5,"start":7,"action_noise":0.1,"location_history":"[7,3,0,1,0,4,7,6,5]","action_history":"[1,0,0,1,1,0,0,0]","mutagen_history":"[1,0,0,1,1,0,0,0]","location_rts":"[63,169,214,188,82,7,95,169]","trial_type":"fractal-mutation","trial_index":100,"time_elapsed":2477284,"internal_node_id":"0.0-5.0-46.0"},{"group":"square cycles (cube, non-group)","fractal_assignment":["../images/org_blu.png","../images/cyn_red.png","../images/blu_wht.png","../images/pnk_blu.png","../images/gry_blk.png","../images/ylw_slt.png","../images/ylw_pnk.png","../images/grn_red.png"],"mutagen_generator_assignment":[0,1],"goal":1,"start":5,"action_noise":0.1,"location_history":"[5,1]","action_history":"[1]","mutagen_history":"[1]","location_rts":"[2136]","trial_type":"fractal-mutation","trial_index":101,"time_elapsed":2483996,"internal_node_id":"0.0-5.0-47.0"},{"group":"square cycles (cube, non-group)","fractal_assignment":["../images/org_blu.png","../images/cyn_red.png","../images/blu_wht.png","../images/pnk_blu.png","../images/gry_blk.png","../images/ylw_slt.png","../images/ylw_pnk.png","../images/grn_red.png"],"mutagen_generator_assignment":[0,1],"goal":6,"start":1,"action_noise":0.1,"location_history":"[1,2,3,2,6]","action_history":"[0,0,1,1]","mutagen_history":"[0,0,1,1]","location_rts":"[201,40,172,143]","trial_type":"fractal-mutation","trial_index":102,"time_elapsed":2492305,"internal_node_id":"0.0-5.0-48.0"},{"group":"square cycles (cube, non-group)","fractal_assignment":["../images/org_blu.png","../images/cyn_red.png","../images/blu_wht.png","../images/pnk_blu.png","../images/gry_blk.png","../images/ylw_slt.png","../images/ylw_pnk.png","../images/grn_red.png"],"mutagen_generator_assignment":[0,1],"goal":0,"start":6,"action_noise":0.1,"location_history":"[6,5,4,7,3,2,6,5,4,7,6,7,6,7,3,2,3,0]","action_history":"[0,0,0,1,1,1,1,0,1,0,1,1,1,1,0,0,0]","mutagen_history":"[0,0,0,1,1,1,1,0,1,0,1,1,1,1,0,0,0]","location_rts":"[302,259,64,120,189,311,157,60,51,818,461,192,88,82,261,264,243]","trial_type":"fractal-mutation","trial_index":103,"time_elapsed":2517764,"internal_node_id":"0.0-5.0-49.0"},{"view_history":"[{\"page_index\":0,\"viewing_time\":18295}]","rt":18296,"trial_type":"instructions","trial_index":104,"time_elapsed":2537065,"internal_node_id":"0.0-6.0"},{"rt":7107,"responses":"{\"Q0\":\"Fun survey.\"}","trial_type":"survey-text","trial_index":105,"time_elapsed":2545180,"internal_node_id":"0.0-7.0"}]