[{"view_history":"[{\"page_index\":0,\"viewing_time\":4869},{\"page_index\":1,\"viewing_time\":17703}]","rt":22573,"trial_type":"instructions","trial_index":0,"time_elapsed":22576,"internal_node_id":"0.0-0.0"},{"view_history":"[{\"page_index\":0,\"viewing_time\":3173},{\"page_index\":1,\"viewing_time\":11592}]","rt":14765,"trial_type":"instructions","trial_index":1,"time_elapsed":38344,"internal_node_id":"0.0-1.0"},{"group":"tri cycles (cube, non-group)","room_assignment":["yellow","pink","brown","green","purple","grey","red","blue"],"door_color_assignment":["white","black"],"door_generator_assignment":[1,0],"goal":6,"start":3,"action_noise":0.1,"location_history":"[3,7,3,4,7,3,7,6]","action_history":"[1,1,1,1,1,0,0]","door_history":"[0,0,0,0,0,1,1]","location_rts":"[8119,595,489,801,764,891,628]","trial_type":"two-door-navigation","trial_index":2,"time_elapsed":61966,"internal_node_id":"0.0-2.0-0.0"},{"group":"tri cycles (cube, non-group)","room_assignment":["yellow","pink","brown","green","purple","grey","red","blue"],"door_color_assignment":["white","black"],"door_generator_assignment":[1,0],"goal":1,"start":6,"action_noise":0.1,"location_history":"[6,5,1]","action_history":"[1,0]","door_history":"[0,1]","location_rts":"[1014,899]","trial_type":"two-door-navigation","trial_index":3,"time_elapsed":69722,"internal_node_id":"0.0-2.0-1.0"},{"group":"tri cycles (cube, non-group)","room_assignment":["yellow","pink","brown","green","purple","grey","red","blue"],"door_color_assignment":["white","black"],"door_generator_assignment":[1,0],"goal":2,"start":1,"action_noise":0.1,"location_history":"[1,5,2]","action_history":"[1,1]","door_history":"[0,0]","location_rts":"[786,1564]","trial_type":"two-door-navigation","trial_index":4,"time_elapsed":77751,"internal_node_id":"0.0-2.0-2.0"},{"group":"tri cycles (cube, non-group)","room_assignment":["yellow","pink","brown","green","purple","grey","red","blue"],"door_color_assignment":["white","black"],"door_generator_assignment":[1,0],"goal":0,"start":2,"action_noise":0.1,"location_history":"[2,6,5,2,1,0]","action_history":"[1,1,1,0,0]","door_history":"[0,0,0,1,1]","location_rts":"[1795,863,768,1195,1016]","trial_type":"two-door-navigation","trial_index":5,"time_elapsed":92089,"internal_node_id":"0.0-2.0-3.0"},{"group":"tri cycles (cube, non-group)","room_assignment":["yellow","pink","brown","green","purple","grey","red","blue"],"door_color_assignment":["white","black"],"door_generator_assignment":[1,0],"goal":7,"start":0,"action_noise":0.1,"location_history":"[0,3,4,0,3,7]","action_history":"[1,1,1,1,0]","door_history":"[0,0,0,0,1]","location_rts":"[839,275,750,451,4770]","trial_type":"two-door-navigation","trial_index":6,"time_elapsed":107973,"internal_node_id":"0.0-2.0-4.0"},{"group":"tri cycles (cube, non-group)","room_assignment":["yellow","pink","brown","green","purple","grey","red","blue"],"door_color_assignment":["white","black"],"door_generator_assignment":[1,0],"goal":5,"start":7,"action_noise":0.1,"location_history":"[7,3,4,0,2,1,0,2,1,5]","action_history":"[1,1,0,0,0,0,0,1,1]","door_history":"[0,0,1,1,1,1,1,0,0]","location_rts":"[652,471,962,435,430,1301,8377,1045,483]","trial_type":"two-door-navigation","trial_index":7,"time_elapsed":135184,"internal_node_id":"0.0-2.0-5.0"},{"group":"tri cycles (cube, non-group)","room_assignment":["yellow","pink","brown","green","purple","grey","red","blue"],"door_color_assignment":["white","black"],"door_generator_assignment":[1,0],"goal":4,"start":5,"action_noise":0.1,"location_history":"[5,2,6,5,2,6,4]","action_history":"[1,1,1,1,1,0]","door_history":"[0,0,0,0,0,1]","location_rts":"[1821,1090,599,530,721,849]","trial_type":"two-door-navigation","trial_index":8,"time_elapsed":150646,"internal_node_id":"0.0-2.0-6.0"},{"group":"tri cycles (cube, non-group)","room_assignment":["yellow","pink","brown","green","purple","grey","red","blue"],"door_color_assignment":["white","black"],"door_generator_assignment":[1,0],"goal":2,"start":4,"action_noise":0.1,"location_history":"[4,7,6,4,0,3,4,0,3,7,3,7,6,5,2]","action_history":"[0,0,0,1,1,1,1,1,0,1,0,0,1,1]","door_history":"[1,1,1,0,0,0,0,0,1,0,1,1,0,0]","location_rts":"[1470,439,678,635,651,653,499,567,1223,1170,1443,888,1285,840]","trial_type":"two-door-navigation","trial_index":9,"time_elapsed":181619,"internal_node_id":"0.0-2.0-7.0"},{"group":"tri cycles (cube, non-group)","room_assignment":["yellow","pink","brown","green","purple","grey","red","blue"],"door_color_assignment":["white","black"],"door_generator_assignment":[1,0],"goal":3,"start":2,"action_noise":0.1,"location_history":"[2,6,5,2,1,0,2,1,0,3]","action_history":"[1,1,1,0,0,0,0,0,1]","door_history":"[0,0,0,1,1,1,1,1,0]","location_rts":"[557,361,1814,386,509,1087,913,641,315]","trial_type":"two-door-navigation","trial_index":10,"time_elapsed":201060,"internal_node_id":"0.0-2.0-8.0"},{"group":"tri cycles (cube, non-group)","room_assignment":["yellow","pink","brown","green","purple","grey","red","blue"],"door_color_assignment":["white","black"],"door_generator_assignment":[1,0],"goal":7,"start":3,"action_noise":0.1,"location_history":"[3,7]","action_history":"[1]","door_history":"[0]","location_rts":"[1493]","trial_type":"two-door-navigation","trial_index":11,"time_elapsed":207124,"internal_node_id":"0.0-2.0-9.0"},{"group":"tri cycles (cube, non-group)","room_assignment":["yellow","pink","brown","green","purple","grey","red","blue"],"door_color_assignment":["white","black"],"door_generator_assignment":[1,0],"goal":0,"start":7,"action_noise":0.1,"location_history":"[7,3,7,3,7,6,4,0]","action_history":"[1,1,1,0,0,0,1]","door_history":"[0,0,0,1,1,1,0]","location_rts":"[1391,722,722,235,466,500,1489]","trial_type":"two-door-navigation","trial_index":12,"time_elapsed":223717,"internal_node_id":"0.0-2.0-10.0"},{"group":"tri cycles (cube, non-group)","room_assignment":["yellow","pink","brown","green","purple","grey","red","blue"],"door_color_assignment":["white","black"],"door_generator_assignment":[1,0],"goal":1,"start":0,"action_noise":0.1,"location_history":"[0,3,7,3,7,6,4,7,6,5,2,6,5,2,6,5,1]","action_history":"[1,1,1,0,0,0,0,0,1,1,1,1,1,1,1,0]","door_history":"[0,0,0,1,1,1,1,1,0,0,0,0,0,0,0,1]","location_rts":"[1229,351,555,505,442,309,427,444,759,432,506,418,393,510,320,757]","trial_type":"two-door-navigation","trial_index":13,"time_elapsed":252506,"internal_node_id":"0.0-2.0-11.0"},{"group":"tri cycles (cube, non-group)","room_assignment":["yellow","pink","brown","green","purple","grey","red","blue"],"door_color_assignment":["white","black"],"door_generator_assignment":[1,0],"goal":6,"start":1,"action_noise":0.1,"location_history":"[1,5,2,1,0,2,1,5,2,6]","action_history":"[1,1,0,0,0,0,1,1,1]","door_history":"[0,0,1,1,1,1,0,0,0]","location_rts":"[1465,775,920,511,706,507,578,686,718]","trial_type":"two-door-navigation","trial_index":14,"time_elapsed":272663,"internal_node_id":"0.0-2.0-12.0"},{"group":"tri cycles (cube, non-group)","room_assignment":["yellow","pink","brown","green","purple","grey","red","blue"],"door_color_assignment":["white","black"],"door_generator_assignment":[1,0],"goal":4,"start":6,"action_noise":0.1,"location_history":"[6,5,2,1,0,2,1,0,3,4]","action_history":"[1,1,1,0,0,0,0,1,1]","door_history":"[0,0,0,1,1,1,1,0,0]","location_rts":"[960,889,551,857,317,490,530,917,477]","trial_type":"two-door-navigation","trial_index":15,"time_elapsed":292238,"internal_node_id":"0.0-2.0-13.0"},{"group":"tri cycles (cube, non-group)","room_assignment":["yellow","pink","brown","green","purple","grey","red","blue"],"door_color_assignment":["white","black"],"door_generator_assignment":[1,0],"goal":5,"start":4,"action_noise":0.1,"location_history":"[4,7,3,4,7,6,4,7,3,4,0,3,4,7,3,4,7,3,4,0,3,7,3,4,0,2,1,0,3,7,6,4,7,6,4,7,6,5]","action_history":"[1,1,1,0,0,0,0,1,1,1,1,1,0,1,1,0,0,1,1,1,1,1,1,1,0,0,0,0,0,0,0,0,0,0,0,0,1]","door_history":"[0,0,0,1,1,1,1,0,0,0,0,0,1,0,0,1,1,0,0,0,0,0,0,0,1,1,1,1,1,1,1,1,1,1,1,1,0]","location_rts":"[1204,733,966,986,421,2950,736,492,349,281,476,387,585,544,596,611,1103,406,998,1466,626,474,404,675,1232,666,560,1195,401,350,354,578,480,851,710,523,1412]","trial_type":"two-door-navigation","trial_index":16,"time_elapsed":362888,"internal_node_id":"0.0-2.0-14.0"},{"group":"tri cycles (cube, non-group)","room_assignment":["yellow","pink","brown","green","purple","grey","red","blue"],"door_color_assignment":["white","black"],"door_generator_assignment":[1,0],"goal":4,"start":5,"action_noise":0.1,"location_history":"[5,2,6,5,2,1,0,2,6,4]","action_history":"[1,1,1,1,0,0,0,1,1]","door_history":"[0,0,0,0,1,1,1,0,0]","location_rts":"[1252,673,598,690,352,613,516,1028,557]","trial_type":"two-door-navigation","trial_index":17,"time_elapsed":382172,"internal_node_id":"0.0-2.0-15.0"},{"group":"tri cycles (cube, non-group)","room_assignment":["yellow","pink","brown","green","purple","grey","red","blue"],"door_color_assignment":["white","black"],"door_generator_assignment":[1,0],"goal":0,"start":4,"action_noise":0.1,"location_history":"[4,0]","action_history":"[1]","door_history":"[0]","location_rts":"[941]","trial_type":"two-door-navigation","trial_index":18,"time_elapsed":387889,"internal_node_id":"0.0-2.0-16.0"},{"group":"tri cycles (cube, non-group)","room_assignment":["yellow","pink","brown","green","purple","grey","red","blue"],"door_color_assignment":["white","black"],"door_generator_assignment":[1,0],"goal":7,"start":0,"action_noise":0.1,"location_history":"[0,3,4,0,2,1,0,3,4,0,3,7]","action_history":"[1,1,1,0,0,0,1,1,1,0,0]","door_history":"[0,0,0,1,1,1,0,0,0,1,1]","location_rts":"[1151,496,322,1643,469,1287,930,608,556,931,642]","trial_type":"two-door-navigation","trial_index":19,"time_elapsed":412245,"internal_node_id":"0.0-2.0-17.0"},{"group":"tri cycles (cube, non-group)","room_assignment":["yellow","pink","brown","green","purple","grey","red","blue"],"door_color_assignment":["white","black"],"door_generator_assignment":[1,0],"goal":2,"start":7,"action_noise":0.1,"location_history":"[7,6,4,7,3,7,3,4,7,6,4,7,3,7,3,7,6,4,7,6,5,2]","action_history":"[0,0,0,1,0,1,1,1,0,0,0,1,0,1,1,0,0,0,0,1,1]","door_history":"[1,1,1,0,1,0,0,0,1,1,1,0,1,0,0,1,1,1,1,0,0]","location_rts":"[1431,777,874,303,978,1187,521,415,697,331,418,450,743,1139,491,345,508,815,998,679,647]","trial_type":"two-door-navigation","trial_index":20,"time_elapsed":452455,"internal_node_id":"0.0-2.0-18.0"},{"group":"tri cycles (cube, non-group)","room_assignment":["yellow","pink","brown","green","purple","grey","red","blue"],"door_color_assignment":["white","black"],"door_generator_assignment":[1,0],"goal":1,"start":2,"action_noise":0.1,"location_history":"[2,6,5,2,6,5,2,1]","action_history":"[1,1,1,1,1,0,0]","door_history":"[0,0,0,0,0,1,1]","location_rts":"[1267,716,600,560,447,1038,553]","trial_type":"two-door-navigation","trial_index":21,"time_elapsed":468382,"internal_node_id":"0.0-2.0-19.0"},{"group":"tri cycles (cube, non-group)","room_assignment":["yellow","pink","brown","green","purple","grey","red","blue"],"door_color_assignment":["white","black"],"door_generator_assignment":[1,0],"goal":3,"start":1,"action_noise":0.1,"location_history":"[1,5,2,1,0,2,1,0,2,6,5,2,6,4,7,6,4,7,3]","action_history":"[1,1,1,0,0,0,0,1,1,1,1,1,0,0,0,0,0,1]","door_history":"[0,0,0,1,1,1,1,0,0,0,0,0,1,1,1,1,1,0]","location_rts":"[1126,393,448,898,494,456,1755,369,700,799,402,460,266,542,912,576,408,874]","trial_type":"two-door-navigation","trial_index":22,"time_elapsed":502881,"internal_node_id":"0.0-2.0-20.0"},{"group":"tri cycles (cube, non-group)","room_assignment":["yellow","pink","brown","green","purple","grey","red","blue"],"door_color_assignment":["white","black"],"door_generator_assignment":[1,0],"goal":6,"start":3,"action_noise":0.1,"location_history":"[3,4,0,2,1,0,3,4,0,2,6]","action_history":"[1,1,0,0,0,1,1,1,0,1]","door_history":"[0,0,1,1,1,0,0,0,1,0]","location_rts":"[1625,561,1217,712,1951,1571,577,400,632,264]","trial_type":"two-door-navigation","trial_index":23,"time_elapsed":526646,"internal_node_id":"0.0-2.0-21.0"},{"group":"tri cycles (cube, non-group)","room_assignment":["yellow","pink","brown","green","purple","grey","red","blue"],"door_color_assignment":["white","black"],"door_generator_assignment":[1,0],"goal":5,"start":6,"action_noise":0.1,"location_history":"[6,4,7,3,4,0,2,1,5]","action_history":"[0,0,0,1,1,0,0,1]","door_history":"[1,1,1,0,0,1,1,0]","location_rts":"[12480,6584,433,668,415,294,499,617]","trial_type":"two-door-navigation","trial_index":24,"time_elapsed":560770,"internal_node_id":"0.0-2.0-22.0"},{"group":"tri cycles (cube, non-group)","room_assignment":["yellow","pink","brown","green","purple","grey","red","blue"],"door_color_assignment":["white","black"],"door_generator_assignment":[1,0],"goal":3,"start":5,"action_noise":0.1,"location_history":"[5,2,6,5,1,0,3]","action_history":"[1,1,1,0,0,1]","door_history":"[0,0,0,1,1,0]","location_rts":"[1069,612,452,880,811,653]","trial_type":"two-door-navigation","trial_index":25,"time_elapsed":575354,"internal_node_id":"0.0-2.0-23.0"},{"group":"tri cycles (cube, non-group)","room_assignment":["yellow","pink","brown","green","purple","grey","red","blue"],"door_color_assignment":["white","black"],"door_generator_assignment":[1,0],"goal":0,"start":3,"action_noise":0.1,"location_history":"[3,7,6,5,2,6,4,7,3,7,6,5,2,6,5,2,1,0]","action_history":"[1,0,1,1,1,0,0,0,0,0,1,0,0,1,1,0,0]","door_history":"[0,1,0,0,0,1,1,1,1,1,0,1,1,0,0,1,1]","location_rts":"[1233,639,815,1104,537,706,354,402,643,501,535,460,434,375,416,672,550]","trial_type":"two-door-navigation","trial_index":26,"time_elapsed":607707,"internal_node_id":"0.0-2.0-24.0"},{"group":"tri cycles (cube, non-group)","room_assignment":["yellow","pink","brown","green","purple","grey","red","blue"],"door_color_assignment":["white","black"],"door_generator_assignment":[1,0],"goal":7,"start":0,"action_noise":0.1,"location_history":"[0,2,1,5,2,6,5,2,6,5,2,6,4,7]","action_history":"[0,0,1,1,1,1,1,1,0,0,1,0,0]","door_history":"[1,1,0,0,0,0,0,0,1,1,0,1,1]","location_rts":"[1399,518,1111,458,831,884,743,696,1119,547,713,830,618]","trial_type":"two-door-navigation","trial_index":27,"time_elapsed":635751,"internal_node_id":"0.0-2.0-25.0"},{"group":"tri cycles (cube, non-group)","room_assignment":["yellow","pink","brown","green","purple","grey","red","blue"],"door_color_assignment":["white","black"],"door_generator_assignment":[1,0],"goal":2,"start":7,"action_noise":0.1,"location_history":"[7,3,4,0,3,7,6,5,1,5,2]","action_history":"[1,1,1,1,0,0,1,0,1,1]","door_history":"[0,0,0,0,1,1,0,1,0,0]","location_rts":"[2601,460,486,344,1303,477,798,1013,1193,980]","trial_type":"two-door-navigation","trial_index":28,"time_elapsed":659577,"internal_node_id":"0.0-2.0-26.0"},{"group":"tri cycles (cube, non-group)","room_assignment":["yellow","pink","brown","green","purple","grey","red","blue"],"door_color_assignment":["white","black"],"door_generator_assignment":[1,0],"goal":1,"start":2,"action_noise":0.1,"location_history":"[2,6,4,7,6,5,1]","action_history":"[1,0,0,1,1,0]","door_history":"[0,1,1,0,0,1]","location_rts":"[924,1495,1123,942,402,1201]","trial_type":"two-door-navigation","trial_index":29,"time_elapsed":675390,"internal_node_id":"0.0-2.0-27.0"},{"group":"tri cycles (cube, non-group)","room_assignment":["yellow","pink","brown","green","purple","grey","red","blue"],"door_color_assignment":["white","black"],"door_generator_assignment":[1,0],"goal":5,"start":1,"action_noise":0.1,"location_history":"[1,5]","action_history":"[1]","door_history":"[0]","location_rts":"[1510]","trial_type":"two-door-navigation","trial_index":30,"time_elapsed":681430,"internal_node_id":"0.0-2.0-28.0"},{"group":"tri cycles (cube, non-group)","room_assignment":["yellow","pink","brown","green","purple","grey","red","blue"],"door_color_assignment":["white","black"],"door_generator_assignment":[1,0],"goal":4,"start":5,"action_noise":0.1,"location_history":"[5,1,0,2,6,5,1,5,2,1,0,2,1,0,3,7,3,7,3,7,3,7,6,4]","action_history":"[0,0,0,1,1,1,1,1,0,0,0,0,0,1,0,1,0,1,1,1,0,0,0]","door_history":"[1,1,1,0,0,0,0,0,1,1,1,1,1,0,1,0,1,0,0,0,1,1,1]","location_rts":"[1960,505,1446,1408,509,460,565,633,975,511,605,586,474,1289,1112,1136,1613,831,316,536,1100,479,801]","trial_type":"two-door-navigation","trial_index":31,"time_elapsed":729328,"internal_node_id":"0.0-2.0-29.0"},{"group":"tri cycles (cube, non-group)","room_assignment":["yellow","pink","brown","green","purple","grey","red","blue"],"door_color_assignment":["white","black"],"door_generator_assignment":[1,0],"goal":6,"start":4,"action_noise":0.1,"location_history":"[4,7,6]","action_history":"[0,0]","door_history":"[1,1]","location_rts":"[1831,534]","trial_type":"two-door-navigation","trial_index":32,"time_elapsed":737357,"internal_node_id":"0.0-2.0-30.0"},{"group":"tri cycles (cube, non-group)","room_assignment":["yellow","pink","brown","green","purple","grey","red","blue"],"door_color_assignment":["white","black"],"door_generator_assignment":[1,0],"goal":4,"start":6,"action_noise":0.1,"location_history":"[6,4]","action_history":"[0]","door_history":"[1]","location_rts":"[1093]","trial_type":"two-door-navigation","trial_index":33,"time_elapsed":742983,"internal_node_id":"0.0-2.0-31.0"},{"group":"tri cycles (cube, non-group)","room_assignment":["yellow","pink","brown","green","purple","grey","red","blue"],"door_color_assignment":["white","black"],"door_generator_assignment":[1,0],"goal":2,"start":4,"action_noise":0.1,"location_history":"[4,7,3,4,0,3,4,7,6,5,2]","action_history":"[0,0,1,1,1,1,0,0,1,1]","door_history":"[1,1,0,0,0,0,1,1,0,0]","location_rts":"[545,389,1362,429,1028,478,328,650,771,701]","trial_type":"two-door-navigation","trial_index":34,"time_elapsed":763763,"internal_node_id":"0.0-2.0-32.0"},{"group":"tri cycles (cube, non-group)","room_assignment":["yellow","pink","brown","green","purple","grey","red","blue"],"door_color_assignment":["white","black"],"door_generator_assignment":[1,0],"goal":0,"start":2,"action_noise":0.1,"location_history":"[2,6,4,7,3,4,0]","action_history":"[1,0,0,1,1,0]","door_history":"[0,1,1,0,0,1]","location_rts":"[3336,1277,812,3227,480,1031]","trial_type":"two-door-navigation","trial_index":35,"time_elapsed":784198,"internal_node_id":"0.0-2.0-33.0"},{"group":"tri cycles (cube, non-group)","room_assignment":["yellow","pink","brown","green","purple","grey","red","blue"],"door_color_assignment":["white","black"],"door_generator_assignment":[1,0],"goal":5,"start":0,"action_noise":0.1,"location_history":"[0,2,1,0,2,1,0,3,4,0,3,7,3,7,6,5]","action_history":"[0,0,1,0,0,0,1,1,1,1,0,1,0,0,1]","door_history":"[1,1,0,1,1,1,0,0,0,0,1,0,1,1,0]","location_rts":"[1395,420,1125,1054,442,741,1248,728,466,440,715,1101,796,762,903]","trial_type":"two-door-navigation","trial_index":36,"time_elapsed":816349,"internal_node_id":"0.0-2.0-34.0"},{"group":"tri cycles (cube, non-group)","room_assignment":["yellow","pink","brown","green","purple","grey","red","blue"],"door_color_assignment":["white","black"],"door_generator_assignment":[1,0],"goal":1,"start":5,"action_noise":0.1,"location_history":"[5,2,6,5,1]","action_history":"[1,1,1,0]","door_history":"[0,0,0,1]","location_rts":"[1156,1466,399,938]","trial_type":"two-door-navigation","trial_index":37,"time_elapsed":828239,"internal_node_id":"0.0-2.0-35.0"},{"group":"tri cycles (cube, non-group)","room_assignment":["yellow","pink","brown","green","purple","grey","red","blue"],"door_color_assignment":["white","black"],"door_generator_assignment":[1,0],"goal":7,"start":1,"action_noise":0.1,"location_history":"[1,0,3,7]","action_history":"[0,1,0]","door_history":"[1,0,1]","location_rts":"[1125,1619,1640]","trial_type":"two-door-navigation","trial_index":38,"time_elapsed":839405,"internal_node_id":"0.0-2.0-36.0"},{"group":"tri cycles (cube, non-group)","room_assignment":["yellow","pink","brown","green","purple","grey","red","blue"],"door_color_assignment":["white","black"],"door_generator_assignment":[1,0],"goal":3,"start":7,"action_noise":0.1,"location_history":"[7,6,4,7,3]","action_history":"[0,0,1,1]","door_history":"[1,1,0,0]","location_rts":"[1234,486,1010,514]","trial_type":"two-door-navigation","trial_index":39,"time_elapsed":850402,"internal_node_id":"0.0-2.0-37.0"},{"group":"tri cycles (cube, non-group)","room_assignment":["yellow","pink","brown","green","purple","grey","red","blue"],"door_color_assignment":["white","black"],"door_generator_assignment":[1,0],"goal":6,"start":3,"action_noise":0.1,"location_history":"[3,7,6]","action_history":"[1,1]","door_history":"[0,0]","location_rts":"[888,495]","trial_type":"two-door-navigation","trial_index":40,"time_elapsed":857393,"internal_node_id":"0.0-2.0-38.0"},{"group":"tri cycles (cube, non-group)","room_assignment":["yellow","pink","brown","green","purple","grey","red","blue"],"door_color_assignment":["white","black"],"door_generator_assignment":[1,0],"goal":2,"start":6,"action_noise":0.1,"location_history":"[6,5,1,0,3,7,6,4,7,3,4,0,2]","action_history":"[1,1,0,1,0,0,0,0,1,1,0,0]","door_history":"[0,0,1,0,1,1,1,1,0,0,1,1]","location_rts":"[1042,924,1145,1379,877,851,491,555,624,525,904,536]","trial_type":"two-door-navigation","trial_index":41,"time_elapsed":883444,"internal_node_id":"0.0-2.0-39.0"},{"group":"tri cycles (cube, non-group)","room_assignment":["yellow","pink","brown","green","purple","grey","red","blue"],"door_color_assignment":["white","black"],"door_generator_assignment":[1,0],"goal":1,"start":2,"action_noise":0.1,"location_history":"[2,1]","action_history":"[0]","door_history":"[1]","location_rts":"[1229]","trial_type":"two-door-navigation","trial_index":42,"time_elapsed":889394,"internal_node_id":"0.0-2.0-40.0"},{"group":"tri cycles (cube, non-group)","room_assignment":["yellow","pink","brown","green","purple","grey","red","blue"],"door_color_assignment":["white","black"],"door_generator_assignment":[1,0],"goal":0,"start":1,"action_noise":0.1,"location_history":"[1,0]","action_history":"[0]","door_history":"[1]","location_rts":"[1192]","trial_type":"two-door-navigation","trial_index":43,"time_elapsed":895114,"internal_node_id":"0.0-2.0-41.0"},{"group":"tri cycles (cube, non-group)","room_assignment":["yellow","pink","brown","green","purple","grey","red","blue"],"door_color_assignment":["white","black"],"door_generator_assignment":[1,0],"goal":4,"start":0,"action_noise":0.1,"location_history":"[0,2,6,5,1,0,3,4]","action_history":"[0,1,1,0,0,1,1]","door_history":"[1,0,0,1,1,0,0]","location_rts":"[1824,6356,570,1070,536,1251,840]","trial_type":"two-door-navigation","trial_index":44,"time_elapsed":918787,"internal_node_id":"0.0-2.0-42.0"},{"group":"tri cycles (cube, non-group)","room_assignment":["yellow","pink","brown","green","purple","grey","red","blue"],"door_color_assignment":["white","black"],"door_generator_assignment":[1,0],"goal":6,"start":4,"action_noise":0.1,"location_history":"[4,0,3,4,0,3,7,6]","action_history":"[0,1,1,1,1,0,0]","door_history":"[1,0,0,0,0,1,1]","location_rts":"[1359,802,424,525,508,852,464]","trial_type":"two-door-navigation","trial_index":45,"time_elapsed":934604,"internal_node_id":"0.0-2.0-43.0"},{"group":"tri cycles (cube, non-group)","room_assignment":["yellow","pink","brown","green","purple","grey","red","blue"],"door_color_assignment":["white","black"],"door_generator_assignment":[1,0],"goal":3,"start":6,"action_noise":0.1,"location_history":"[6,5,1,0,3]","action_history":"[0,0,0,1]","door_history":"[1,1,1,0]","location_rts":"[1102,1262,1259,536]","trial_type":"two-door-navigation","trial_index":46,"time_elapsed":946410,"internal_node_id":"0.0-2.0-44.0"},{"group":"tri cycles (cube, non-group)","room_assignment":["yellow","pink","brown","green","purple","grey","red","blue"],"door_color_assignment":["white","black"],"door_generator_assignment":[1,0],"goal":7,"start":3,"action_noise":0.1,"location_history":"[3,4,0,2,1,0,3,4,7]","action_history":"[1,1,0,0,0,1,1,0]","door_history":"[0,0,1,1,1,0,0,1]","location_rts":"[4123,453,778,492,843,969,490,1437]","trial_type":"two-door-navigation","trial_index":47,"time_elapsed":967995,"internal_node_id":"0.0-2.0-45.0"},{"group":"tri cycles (cube, non-group)","room_assignment":["yellow","pink","brown","green","purple","grey","red","blue"],"door_color_assignment":["white","black"],"door_generator_assignment":[1,0],"goal":5,"start":7,"action_noise":0.1,"location_history":"[7,3,7,3,7,6,4,0,3,7,6,5]","action_history":"[1,1,1,0,0,0,1,1,0,0,1]","door_history":"[0,0,0,1,1,1,0,0,1,1,0]","location_rts":"[1072,733,706,888,430,790,508,584,766,348,1151]","trial_type":"two-door-navigation","trial_index":48,"time_elapsed":991436,"internal_node_id":"0.0-2.0-46.0"},{"group":"tri cycles (cube, non-group)","room_assignment":["yellow","pink","brown","green","purple","grey","red","blue"],"door_color_assignment":["white","black"],"door_generator_assignment":[1,0],"goal":1,"start":5,"action_noise":0.1,"location_history":"[5,2,6,4,7,3,7,6,5,2,6,5,2,6,5,1]","action_history":"[1,1,0,0,0,0,0,1,1,1,1,1,1,1,0]","door_history":"[0,0,1,1,1,1,1,0,0,0,0,0,0,0,1]","location_rts":"[1189,430,704,675,558,362,461,617,1199,626,347,311,300,310,605]","trial_type":"two-door-navigation","trial_index":49,"time_elapsed":1019189,"internal_node_id":"0.0-2.0-47.0"},{"group":"tri cycles (cube, non-group)","room_assignment":["yellow","pink","brown","green","purple","grey","red","blue"],"door_color_assignment":["white","black"],"door_generator_assignment":[1,0],"goal":6,"start":1,"action_noise":0.1,"location_history":"[1,5,1,0,2,6]","action_history":"[1,0,0,0,1]","door_history":"[0,1,1,1,0]","location_rts":"[1113,948,582,417,1429]","trial_type":"two-door-navigation","trial_index":50,"time_elapsed":1032341,"internal_node_id":"0.0-2.0-48.0"},{"group":"tri cycles (cube, non-group)","room_assignment":["yellow","pink","brown","green","purple","grey","red","blue"],"door_color_assignment":["white","black"],"door_generator_assignment":[1,0],"goal":0,"start":6,"action_noise":0.1,"location_history":"[6,4,0]","action_history":"[0,0]","door_history":"[1,1]","location_rts":"[1306,403]","trial_type":"two-door-navigation","trial_index":51,"time_elapsed":1039599,"internal_node_id":"0.0-2.0-49.0"},{"view_history":"[{\"page_index\":0,\"viewing_time\":5823}]","rt":5824,"trial_type":"instructions","trial_index":52,"time_elapsed":1046425,"internal_node_id":"0.0-3.0"},{"view_history":"[{\"page_index\":0,\"viewing_time\":4438},{\"page_index\":1,\"viewing_time\":18624}]","rt":23064,"trial_type":"instructions","trial_index":53,"time_elapsed":1070490,"internal_node_id":"0.0-4.0"},{"group":"square cycles (cube, non-group)","fractal_assignment":["../images/grn_red.png","../images/ylw_slt.png","../images/org_blu.png","../images/gry_blk.png","../images/pnk_blu.png","../images/blu_wht.png","../images/ylw_pnk.png","../images/cyn_red.png"],"mutagen_generator_assignment":[1,0],"goal":6,"start":3,"action_noise":0.1,"location_history":"[3,2,6]","action_history":"[1,1]","mutagen_history":"[0,0]","location_rts":"[3060,595]","trial_type":"fractal-mutation","trial_index":54,"time_elapsed":1080210,"internal_node_id":"0.0-5.0-0.0"},{"group":"square cycles (cube, non-group)","fractal_assignment":["../images/grn_red.png","../images/ylw_slt.png","../images/org_blu.png","../images/gry_blk.png","../images/pnk_blu.png","../images/blu_wht.png","../images/ylw_pnk.png","../images/cyn_red.png"],"mutagen_generator_assignment":[1,0],"goal":1,"start":6,"action_noise":0.1,"location_history":"[6,5,4,7,6,5,4,5,1]","action_history":"[0,0,0,0,0,0,1,1]","mutagen_history":"[1,1,1,1,1,1,0,0]","location_rts":"[1867,681,526,544,457,915,383,774]","trial_type":"fractal-mutation","trial_index":55,"time_elapsed":1098534,"internal_node_id":"0.0-5.0-1.0"},{"group":"square cycles (cube, non-group)","fractal_assignment":["../images/grn_red.png","../images/ylw_slt.png","../images/org_blu.png","../images/gry_blk.png","../images/pnk_blu.png","../images/blu_wht.png","../images/ylw_pnk.png","../images/cyn_red.png"],"mutagen_generator_assignment":[1,0],"goal":2,"start":1,"action_noise":0.1,"location_history":"[1,0,4,5,1,0,4,7,6,5,4,7,6,7,6,5,1,0,1,2]","action_history":"[1,1,1,1,1,1,0,0,0,0,0,0,1,0,0,1,1,0,0]","mutagen_history":"[0,0,0,0,0,0,1,1,1,1,1,1,0,1,1,0,0,1,1]","location_rts":"[497,461,401,656,529,517,353,374,414,425,414,846,615,573,664,578,529,616,781]","trial_type":"fractal-mutation","trial_index":56,"time_elapsed":1132768,"internal_node_id":"0.0-5.0-2.0"},{"group":"square cycles (cube, non-group)","fractal_assignment":["../images/grn_red.png","../images/ylw_slt.png","../images/org_blu.png","../images/gry_blk.png","../images/pnk_blu.png","../images/blu_wht.png","../images/ylw_pnk.png","../images/cyn_red.png"],"mutagen_generator_assignment":[1,0],"goal":0,"start":2,"action_noise":0.1,"location_history":"[2,6,7,3,2,6,5,4,7,6,7,3,2,3,2,3,2,6,7,3,2,3,0]","action_history":"[1,1,1,0,0,0,0,0,0,1,1,1,0,1,0,1,1,1,1,1,0,0]","mutagen_history":"[0,0,0,1,1,1,1,1,1,0,0,0,1,0,1,0,0,0,0,0,1,1]","location_rts":"[66,760,779,543,458,527,587,470,431,625,921,547,623,610,581,799,305,312,332,459,473,920]","trial_type":"fractal-mutation","trial_index":57,"time_elapsed":1172168,"internal_node_id":"0.0-5.0-3.0"},{"group":"square cycles (cube, non-group)","fractal_assignment":["../images/grn_red.png","../images/ylw_slt.png","../images/org_blu.png","../images/gry_blk.png","../images/pnk_blu.png","../images/blu_wht.png","../images/ylw_pnk.png","../images/cyn_red.png"],"mutagen_generator_assignment":[1,0],"goal":7,"start":0,"action_noise":0.1,"location_history":"[0,1,2,3,2,6,7]","action_history":"[0,0,0,1,1,1]","mutagen_history":"[1,1,1,0,0,0]","location_rts":"[674,465,263,585,490,468]","trial_type":"fractal-mutation","trial_index":58,"time_elapsed":1185084,"internal_node_id":"0.0-5.0-4.0"},{"group":"square cycles (cube, non-group)","fractal_assignment":["../images/grn_red.png","../images/ylw_slt.png","../images/org_blu.png","../images/gry_blk.png","../images/pnk_blu.png","../images/blu_wht.png","../images/ylw_pnk.png","../images/cyn_red.png"],"mutagen_generator_assignment":[1,0],"goal":5,"start":7,"action_noise":0.1,"location_history":"[7,3,0,1,2,6,5]","action_history":"[0,0,0,0,1,1]","mutagen_history":"[1,1,1,1,0,0]","location_rts":"[593,532,497,692,504,1187]","trial_type":"fractal-mutation","trial_index":59,"time_elapsed":1199485,"internal_node_id":"0.0-5.0-5.0"},{"group":"square cycles (cube, non-group)","fractal_assignment":["../images/grn_red.png","../images/ylw_slt.png","../images/org_blu.png","../images/gry_blk.png","../images/pnk_blu.png","../images/blu_wht.png","../images/ylw_pnk.png","../images/cyn_red.png"],"mutagen_generator_assignment":[1,0],"goal":4,"start":5,"action_noise":0.1,"location_history":"[5,1,2,3,0,1,2,6,7,3,2,6,5,4]","action_history":"[1,0,0,0,0,0,1,1,1,1,1,0,0]","mutagen_history":"[0,1,1,1,1,1,0,0,0,0,0,1,1]","location_rts":"[672,440,372,344,389,375,448,347,382,432,758,287,756]","trial_type":"fractal-mutation","trial_index":60,"time_elapsed":1222882,"internal_node_id":"0.0-5.0-6.0"},{"group":"square cycles (cube, non-group)","fractal_assignment":["../images/grn_red.png","../images/ylw_slt.png","../images/org_blu.png","../images/gry_blk.png","../images/pnk_blu.png","../images/blu_wht.png","../images/ylw_pnk.png","../images/cyn_red.png"],"mutagen_generator_assignment":[1,0],"goal":2,"start":4,"action_noise":0.1,"location_history":"[4,5,1,0,4,7,6,5,4,7,6,7,3,2]","action_history":"[1,1,1,1,0,0,0,0,0,0,1,1,1]","mutagen_history":"[0,0,0,0,1,1,1,1,1,1,0,0,0]","location_rts":"[1869,384,416,700,771,419,614,1072,384,432,701,743,1047]","trial_type":"fractal-mutation","trial_index":61,"time_elapsed":1249881,"internal_node_id":"0.0-5.0-7.0"},{"group":"square cycles (cube, non-group)","fractal_assignment":["../images/grn_red.png","../images/ylw_slt.png","../images/org_blu.png","../images/gry_blk.png","../images/pnk_blu.png","../images/blu_wht.png","../images/ylw_pnk.png","../images/cyn_red.png"],"mutagen_generator_assignment":[1,0],"goal":3,"start":2,"action_noise":0.1,"location_history":"[2,6,5,1,2,6,7,3]","action_history":"[0,0,0,0,1,1,1]","mutagen_history":"[1,1,1,1,0,0,0]","location_rts":"[557,323,527,421,620,351,446]","trial_type":"fractal-mutation","trial_index":62,"time_elapsed":1264420,"internal_node_id":"0.0-5.0-8.0"},{"group":"square cycles (cube, non-group)","fractal_assignment":["../images/grn_red.png","../images/ylw_slt.png","../images/org_blu.png","../images/gry_blk.png","../images/pnk_blu.png","../images/blu_wht.png","../images/ylw_pnk.png","../images/cyn_red.png"],"mutagen_generator_assignment":[1,0],"goal":7,"start":3,"action_noise":0.1,"location_history":"[3,2,3,0,1,0,4,5,1,0,1,2,3,0,4,5,4,7]","action_history":"[1,0,0,0,0,1,1,1,1,0,0,0,0,1,1,0,0]","mutagen_history":"[0,1,1,1,1,0,0,0,0,1,1,1,1,0,0,1,1]","location_rts":"[755,461,275,434,478,591,479,412,521,612,416,463,820,362,419,1084,534]","trial_type":"fractal-mutation","trial_index":63,"time_elapsed":1294934,"internal_node_id":"0.0-5.0-9.0"},{"group":"square cycles (cube, non-group)","fractal_assignment":["../images/grn_red.png","../images/ylw_slt.png","../images/org_blu.png","../images/gry_blk.png","../images/pnk_blu.png","../images/blu_wht.png","../images/ylw_pnk.png","../images/cyn_red.png"],"mutagen_generator_assignment":[1,0],"goal":0,"start":7,"action_noise":0.1,"location_history":"[7,3,2,6,5,4,7,6,7,6,7,6,5,4,7,6,5,1,0]","action_history":"[1,1,1,0,0,0,0,1,1,1,0,0,0,0,0,0,1,1]","mutagen_history":"[0,0,0,1,1,1,1,0,0,0,1,1,1,1,1,1,0,0]","location_rts":"[688,625,483,438,376,409,573,436,562,480,340,350,516,480,426,567,372,539]","trial_type":"fractal-mutation","trial_index":64,"time_elapsed":1326366,"internal_node_id":"0.0-5.0-10.0"},{"group":"square cycles (cube, non-group)","fractal_assignment":["../images/grn_red.png","../images/ylw_slt.png","../images/org_blu.png","../images/gry_blk.png","../images/pnk_blu.png","../images/blu_wht.png","../images/ylw_pnk.png","../images/cyn_red.png"],"mutagen_generator_assignment":[1,0],"goal":1,"start":0,"action_noise":0.1,"location_history":"[0,4,5,4,7,6,7,3,0,1]","action_history":"[1,1,0,0,0,1,1,0,0]","mutagen_history":"[0,0,1,1,1,0,0,1,1]","location_rts":"[546,507,337,472,372,474,570,401,325]","trial_type":"fractal-mutation","trial_index":65,"time_elapsed":1343779,"internal_node_id":"0.0-5.0-11.0"},{"group":"square cycles (cube, non-group)","fractal_assignment":["../images/grn_red.png","../images/ylw_slt.png","../images/org_blu.png","../images/gry_blk.png","../images/pnk_blu.png","../images/blu_wht.png","../images/ylw_pnk.png","../images/cyn_red.png"],"mutagen_generator_assignment":[1,0],"goal":6,"start":1,"action_noise":0.1,"location_history":"[1,2,6]","action_history":"[0,1]","mutagen_history":"[1,0]","location_rts":"[398,396]","trial_type":"fractal-mutation","trial_index":66,"time_elapsed":1350243,"internal_node_id":"0.0-5.0-12.0"},{"group":"square cycles (cube, non-group)","fractal_assignment":["../images/grn_red.png","../images/ylw_slt.png","../images/org_blu.png","../images/gry_blk.png","../images/pnk_blu.png","../images/blu_wht.png","../images/ylw_pnk.png","../images/cyn_red.png"],"mutagen_generator_assignment":[1,0],"goal":4,"start":6,"action_noise":0.1,"location_history":"[6,5,1,2,3,0,4]","action_history":"[1,1,0,0,1,1]","mutagen_history":"[0,0,1,1,0,0]","location_rts":"[506,690,864,491,801,844]","trial_type":"fractal-mutation","trial_index":67,"time_elapsed":1364481,"internal_node_id":"0.0-5.0-13.0"},{"group":"square cycles (cube, non-group)","fractal_assignment":["../images/grn_red.png","../images/ylw_slt.png","../images/org_blu.png","../images/gry_blk.png","../images/pnk_blu.png","../images/blu_wht.png","../images/ylw_pnk.png","../images/cyn_red.png"],"mutagen_generator_assignment":[1,0],"goal":5,"start":4,"action_noise":0.1,"location_history":"[4,7,6,5]","action_history":"[0,0,0]","mutagen_history":"[1,1,1]","location_rts":"[848,437,467]","trial_type":"fractal-mutation","trial_index":68,"time_elapsed":1372891,"internal_node_id":"0.0-5.0-14.0"},{"group":"square cycles (cube, non-group)","fractal_assignment":["../images/grn_red.png","../images/ylw_slt.png","../images/org_blu.png","../images/gry_blk.png","../images/pnk_blu.png","../images/blu_wht.png","../images/ylw_pnk.png","../images/cyn_red.png"],"mutagen_generator_assignment":[1,0],"goal":4,"start":5,"action_noise":0.1,"location_history":"[5,4]","action_history":"[0]","mutagen_history":"[1]","location_rts":"[356]","trial_type":"fractal-mutation","trial_index":69,"time_elapsed":1378009,"internal_node_id":"0.0-5.0-15.0"},{"group":"square cycles (cube, non-group)","fractal_assignment":["../images/grn_red.png","../images/ylw_slt.png","../images/org_blu.png","../images/gry_blk.png","../images/pnk_blu.png","../images/blu_wht.png","../images/ylw_pnk.png","../images/cyn_red.png"],"mutagen_generator_assignment":[1,0],"goal":0,"start":4,"action_noise":0.1,"location_history":"[4,5,1,0]","action_history":"[1,1,1]","mutagen_history":"[0,0,0]","location_rts":"[1442,610,551]","trial_type":"fractal-mutation","trial_index":70,"time_elapsed":1387308,"internal_node_id":"0.0-5.0-16.0"},{"group":"square cycles (cube, non-group)","fractal_assignment":["../images/grn_red.png","../images/ylw_slt.png","../images/org_blu.png","../images/gry_blk.png","../images/pnk_blu.png","../images/blu_wht.png","../images/ylw_pnk.png","../images/cyn_red.png"],"mutagen_generator_assignment":[1,0],"goal":7,"start":0,"action_noise":0.1,"location_history":"[0,1,2,3,2,3,2,6,5,4,7]","action_history":"[0,0,0,1,1,1,0,0,0,1]","mutagen_history":"[1,1,1,0,0,0,1,1,1,0]","location_rts":"[704,563,507,892,757,904,801,487,522,822]","trial_type":"fractal-mutation","trial_index":71,"time_elapsed":1408438,"internal_node_id":"0.0-5.0-17.0"},{"group":"square cycles (cube, non-group)","fractal_assignment":["../images/grn_red.png","../images/ylw_slt.png","../images/org_blu.png","../images/gry_blk.png","../images/pnk_blu.png","../images/blu_wht.png","../images/ylw_pnk.png","../images/cyn_red.png"],"mutagen_generator_assignment":[1,0],"goal":2,"start":7,"action_noise":0.1,"location_history":"[7,3,2]","action_history":"[1,0]","mutagen_history":"[0,1]","location_rts":"[5517,751]","trial_type":"fractal-mutation","trial_index":72,"time_elapsed":1420517,"internal_node_id":"0.0-5.0-18.0"},{"group":"square cycles (cube, non-group)","fractal_assignment":["../images/grn_red.png","../images/ylw_slt.png","../images/org_blu.png","../images/gry_blk.png","../images/pnk_blu.png","../images/blu_wht.png","../images/ylw_pnk.png","../images/cyn_red.png"],"mutagen_generator_assignment":[1,0],"goal":1,"start":2,"action_noise":0.1,"location_history":"[2,6,7,6,7,3,0,1]","action_history":"[1,1,0,1,1,0,0]","mutagen_history":"[0,0,1,0,0,1,1]","location_rts":"[460,958,882,564,729,890,405]","trial_type":"fractal-mutation","trial_index":73,"time_elapsed":1436441,"internal_node_id":"0.0-5.0-19.0"},{"group":"square cycles (cube, non-group)","fractal_assignment":["../images/grn_red.png","../images/ylw_slt.png","../images/org_blu.png","../images/gry_blk.png","../images/pnk_blu.png","../images/blu_wht.png","../images/ylw_pnk.png","../images/cyn_red.png"],"mutagen_generator_assignment":[1,0],"goal":3,"start":1,"action_noise":0.1,"location_history":"[1,0,4,5,4,7,6,5,1,0,1,2,6,5,4,5,4,7,6,7,6,7,6,5,4,7,3]","action_history":"[1,1,1,0,0,0,1,1,1,0,0,0,0,0,1,1,0,0,1,0,1,0,0,0,0,1]","mutagen_history":"[0,0,0,1,1,1,0,0,0,1,1,1,1,1,0,0,1,1,0,1,0,1,1,1,1,0]","location_rts":"[979,574,513,477,519,739,1160,602,504,711,344,601,477,442,546,551,774,648,1338,1784,743,540,391,796,445,491]","trial_type":"fractal-mutation","trial_index":74,"time_elapsed":1485696,"internal_node_id":"0.0-5.0-20.0"},{"group":"square cycles (cube, non-group)","fractal_assignment":["../images/grn_red.png","../images/ylw_slt.png","../images/org_blu.png","../images/gry_blk.png","../images/pnk_blu.png","../images/blu_wht.png","../images/ylw_pnk.png","../images/cyn_red.png"],"mutagen_generator_assignment":[1,0],"goal":6,"start":3,"action_noise":0.1,"location_history":"[3,0,4,5,1,2,3,0,1,2,3,2,6]","action_history":"[0,1,1,1,0,0,0,0,0,1,1,1]","mutagen_history":"[1,0,0,0,1,1,1,1,1,0,0,0]","location_rts":"[794,1196,322,430,658,429,662,1051,428,658,729,695]","trial_type":"fractal-mutation","trial_index":75,"time_elapsed":1510049,"internal_node_id":"0.0-5.0-21.0"},{"group":"square cycles (cube, non-group)","fractal_assignment":["../images/grn_red.png","../images/ylw_slt.png","../images/org_blu.png","../images/gry_blk.png","../images/pnk_blu.png","../images/blu_wht.png","../images/ylw_pnk.png","../images/cyn_red.png"],"mutagen_generator_assignment":[1,0],"goal":5,"start":6,"action_noise":0.1,"location_history":"[6,5]","action_history":"[0]","mutagen_history":"[1]","location_rts":"[640]","trial_type":"fractal-mutation","trial_index":76,"time_elapsed":1515292,"internal_node_id":"0.0-5.0-22.0"},{"group":"square cycles (cube, non-group)","fractal_assignment":["../images/grn_red.png","../images/ylw_slt.png","../images/org_blu.png","../images/gry_blk.png","../images/pnk_blu.png","../images/blu_wht.png","../images/ylw_pnk.png","../images/cyn_red.png"],"mutagen_generator_assignment":[1,0],"goal":3,"start":5,"action_noise":0.1,"location_history":"[5,4,7,3]","action_history":"[0,0,1]","mutagen_history":"[1,1,0]","location_rts":"[895,472,866]","trial_type":"fractal-mutation","trial_index":77,"time_elapsed":1524312,"internal_node_id":"0.0-5.0-23.0"},{"group":"square cycles (cube, non-group)","fractal_assignment":["../images/grn_red.png","../images/ylw_slt.png","../images/org_blu.png","../images/gry_blk.png","../images/pnk_blu.png","../images/blu_wht.png","../images/ylw_pnk.png","../images/cyn_red.png"],"mutagen_generator_assignment":[1,0],"goal":0,"start":3,"action_noise":0.1,"location_history":"[3,0]","action_history":"[1]","mutagen_history":"[0]","location_rts":"[1025]","trial_type":"fractal-mutation","trial_index":78,"time_elapsed":1529895,"internal_node_id":"0.0-5.0-24.0"},{"group":"square cycles (cube, non-group)","fractal_assignment":["../images/grn_red.png","../images/ylw_slt.png","../images/org_blu.png","../images/gry_blk.png","../images/pnk_blu.png","../images/blu_wht.png","../images/ylw_pnk.png","../images/cyn_red.png"],"mutagen_generator_assignment":[1,0],"goal":7,"start":0,"action_noise":0.1,"location_history":"[0,1,2,6,7]","action_history":"[0,0,0,1]","mutagen_history":"[1,1,1,0]","location_rts":"[956,1373,682,425]","trial_type":"fractal-mutation","trial_index":79,"time_elapsed":1541305,"internal_node_id":"0.0-5.0-25.0"},{"group":"square cycles (cube, non-group)","fractal_assignment":["../images/grn_red.png","../images/ylw_slt.png","../images/org_blu.png","../images/gry_blk.png","../images/pnk_blu.png","../images/blu_wht.png","../images/ylw_pnk.png","../images/cyn_red.png"],"mutagen_generator_assignment":[1,0],"goal":2,"start":7,"action_noise":0.1,"location_history":"[7,3,0,1,2]","action_history":"[1,1,0,0]","mutagen_history":"[0,0,1,1]","location_rts":"[544,385,610,552]","trial_type":"fractal-mutation","trial_index":80,"time_elapsed":1551202,"internal_node_id":"0.0-5.0-26.0"},{"group":"square cycles (cube, non-group)","fractal_assignment":["../images/grn_red.png","../images/ylw_slt.png","../images/org_blu.png","../images/gry_blk.png","../images/pnk_blu.png","../images/blu_wht.png","../images/ylw_pnk.png","../images/cyn_red.png"],"mutagen_generator_assignment":[1,0],"goal":1,"start":2,"action_noise":0.1,"location_history":"[2,3,2,3,0,1]","action_history":"[0,1,0,0,0]","mutagen_history":"[1,0,1,1,1]","location_rts":"[516,799,892,351,484]","trial_type":"fractal-mutation","trial_index":81,"time_elapsed":1563375,"internal_node_id":"0.0-5.0-27.0"},{"group":"square cycles (cube, non-group)","fractal_assignment":["../images/grn_red.png","../images/ylw_slt.png","../images/org_blu.png","../images/gry_blk.png","../images/pnk_blu.png","../images/blu_wht.png","../images/ylw_pnk.png","../images/cyn_red.png"],"mutagen_generator_assignment":[1,0],"goal":5,"start":1,"action_noise":0.1,"location_history":"[1,0,1,0,4,5]","action_history":"[1,0,0,1,1]","mutagen_history":"[0,1,1,0,0]","location_rts":"[800,682,746,619,621]","trial_type":"fractal-mutation","trial_index":82,"time_elapsed":1575766,"internal_node_id":"0.0-5.0-28.0"},{"group":"square cycles (cube, non-group)","fractal_assignment":["../images/grn_red.png","../images/ylw_slt.png","../images/org_blu.png","../images/gry_blk.png","../images/pnk_blu.png","../images/blu_wht.png","../images/ylw_pnk.png","../images/cyn_red.png"],"mutagen_generator_assignment":[1,0],"goal":4,"start":5,"action_noise":0.1,"location_history":"[5,4]","action_history":"[0]","mutagen_history":"[1]","location_rts":"[527]","trial_type":"fractal-mutation","trial_index":83,"time_elapsed":1581000,"internal_node_id":"0.0-5.0-29.0"},{"group":"square cycles (cube, non-group)","fractal_assignment":["../images/grn_red.png","../images/ylw_slt.png","../images/org_blu.png","../images/gry_blk.png","../images/pnk_blu.png","../images/blu_wht.png","../images/ylw_pnk.png","../images/cyn_red.png"],"mutagen_generator_assignment":[1,0],"goal":6,"start":4,"action_noise":0.1,"location_history":"[4,7,6]","action_history":"[0,1]","mutagen_history":"[1,0]","location_rts":"[622,395]","trial_type":"fractal-mutation","trial_index":84,"time_elapsed":1587706,"internal_node_id":"0.0-5.0-30.0"},{"group":"square cycles (cube, non-group)","fractal_assignment":["../images/grn_red.png","../images/ylw_slt.png","../images/org_blu.png","../images/gry_blk.png","../images/pnk_blu.png","../images/blu_wht.png","../images/ylw_pnk.png","../images/cyn_red.png"],"mutagen_generator_assignment":[1,0],"goal":4,"start":6,"action_noise":0.1,"location_history":"[6,5,4]","action_history":"[0,0]","mutagen_history":"[1,1]","location_rts":"[421,519]","trial_type":"fractal-mutation","trial_index":85,"time_elapsed":1594463,"internal_node_id":"0.0-5.0-31.0"},{"group":"square cycles (cube, non-group)","fractal_assignment":["../images/grn_red.png","../images/ylw_slt.png","../images/org_blu.png","../images/gry_blk.png","../images/pnk_blu.png","../images/blu_wht.png","../images/ylw_pnk.png","../images/cyn_red.png"],"mutagen_generator_assignment":[1,0],"goal":2,"start":4,"action_noise":0.1,"location_history":"[4,5,1,2]","action_history":"[0,0,1]","mutagen_history":"[1,1,0]","location_rts":"[535,487,733]","trial_type":"fractal-mutation","trial_index":86,"time_elapsed":1602974,"internal_node_id":"0.0-5.0-32.0"},{"group":"square cycles (cube, non-group)","fractal_assignment":["../images/grn_red.png","../images/ylw_slt.png","../images/org_blu.png","../images/gry_blk.png","../images/pnk_blu.png","../images/blu_wht.png","../images/ylw_pnk.png","../images/cyn_red.png"],"mutagen_generator_assignment":[1,0],"goal":0,"start":2,"action_noise":0.1,"location_history":"[2,3,0]","action_history":"[0,0]","mutagen_history":"[1,1]","location_rts":"[3091,655]","trial_type":"fractal-mutation","trial_index":87,"time_elapsed":1612495,"internal_node_id":"0.0-5.0-33.0"},{"group":"square cycles (cube, non-group)","fractal_assignment":["../images/grn_red.png","../images/ylw_slt.png","../images/org_blu.png","../images/gry_blk.png","../images/pnk_blu.png","../images/blu_wht.png","../images/ylw_pnk.png","../images/cyn_red.png"],"mutagen_generator_assignment":[1,0],"goal":5,"start":0,"action_noise":0.1,"location_history":"[0,1,2,3,2,6,5]","action_history":"[0,0,0,1,1,1]","mutagen_history":"[1,1,1,0,0,0]","location_rts":"[1025,778,575,1174,789,718]","trial_type":"fractal-mutation","trial_index":88,"time_elapsed":1627811,"internal_node_id":"0.0-5.0-34.0"},{"group":"square cycles (cube, non-group)","fractal_assignment":["../images/grn_red.png","../images/ylw_slt.png","../images/org_blu.png","../images/gry_blk.png","../images/pnk_blu.png","../images/blu_wht.png","../images/ylw_pnk.png","../images/cyn_red.png"],"mutagen_generator_assignment":[1,0],"goal":1,"start":5,"action_noise":0.1,"location_history":"[5,4,5,1]","action_history":"[0,1,1]","mutagen_history":"[1,0,0]","location_rts":"[3355,955,1174]","trial_type":"fractal-mutation","trial_index":89,"time_elapsed":1639923,"internal_node_id":"0.0-5.0-35.0"},{"group":"square cycles (cube, non-group)","fractal_assignment":["../images/grn_red.png","../images/ylw_slt.png","../images/org_blu.png","../images/gry_blk.png","../images/pnk_blu.png","../images/blu_wht.png","../images/ylw_pnk.png","../images/cyn_red.png"],"mutagen_generator_assignment":[1,0],"goal":7,"start":1,"action_noise":0.1,"location_history":"[1,0,4,5,1,0,1,2,6,7]","action_history":"[1,0,1,1,1,0,0,1,1]","mutagen_history":"[0,1,0,0,0,1,1,0,0]","location_rts":"[1609,543,955,523,597,569,417,612,483]","trial_type":"fractal-mutation","trial_index":90,"time_elapsed":1659205,"internal_node_id":"0.0-5.0-36.0"},{"group":"square cycles (cube, non-group)","fractal_assignment":["../images/grn_red.png","../images/ylw_slt.png","../images/org_blu.png","../images/gry_blk.png","../images/pnk_blu.png","../images/blu_wht.png","../images/ylw_pnk.png","../images/cyn_red.png"],"mutagen_generator_assignment":[1,0],"goal":3,"start":7,"action_noise":0.1,"location_history":"[7,6,7,3]","action_history":"[0,1,1]","mutagen_history":"[1,0,0]","location_rts":"[2840,1094,762]","trial_type":"fractal-mutation","trial_index":91,"time_elapsed":1670511,"internal_node_id":"0.0-5.0-37.0"},{"group":"square cycles (cube, non-group)","fractal_assignment":["../images/grn_red.png","../images/ylw_slt.png","../images/org_blu.png","../images/gry_blk.png","../images/pnk_blu.png","../images/blu_wht.png","../images/ylw_pnk.png","../images/cyn_red.png"],"mutagen_generator_assignment":[1,0],"goal":6,"start":3,"action_noise":0.1,"location_history":"[3,0,4,5,1,2,3,2,6]","action_history":"[0,0,1,1,0,0,1,1]","mutagen_history":"[1,1,0,0,1,1,0,0]","location_rts":"[1631,481,343,600,938,1120,733,740]","trial_type":"fractal-mutation","trial_index":92,"time_elapsed":1689273,"internal_node_id":"0.0-5.0-38.0"},{"group":"square cycles (cube, non-group)","fractal_assignment":["../images/grn_red.png","../images/ylw_slt.png","../images/org_blu.png","../images/gry_blk.png","../images/pnk_blu.png","../images/blu_wht.png","../images/ylw_pnk.png","../images/cyn_red.png"],"mutagen_generator_assignment":[1,0],"goal":2,"start":6,"action_noise":0.1,"location_history":"[6,5,4,5,1,0,1,2]","action_history":"[0,0,1,1,1,0,0]","mutagen_history":"[1,1,0,0,0,1,1]","location_rts":"[569,484,422,344,569,528,867]","trial_type":"fractal-mutation","trial_index":93,"time_elapsed":1704061,"internal_node_id":"0.0-5.0-39.0"},{"group":"square cycles (cube, non-group)","fractal_assignment":["../images/grn_red.png","../images/ylw_slt.png","../images/org_blu.png","../images/gry_blk.png","../images/pnk_blu.png","../images/blu_wht.png","../images/ylw_pnk.png","../images/cyn_red.png"],"mutagen_generator_assignment":[1,0],"goal":1,"start":2,"action_noise":0.1,"location_history":"[2,3,2,6,7,6,5,4,5,4,7,3,2,6,5,4,7,6,7,3,0,4,7,6,7,6,7,3,0,1]","action_history":"[1,1,1,1,0,0,0,1,0,1,1,1,1,0,0,0,0,1,1,0,1,0,1,1,0,1,1,0,0]","mutagen_history":"[0,0,0,0,1,1,1,0,1,0,0,0,0,1,1,1,1,0,0,1,0,1,0,0,1,0,0,1,1]","location_rts":"[548,492,397,585,389,501,745,442,633,520,807,532,540,329,712,446,660,684,1069,463,1271,643,413,468,729,783,665,533,1902]","trial_type":"fractal-mutation","trial_index":94,"time_elapsed":1758189,"internal_node_id":"0.0-5.0-40.0"},{"group":"square cycles (cube, non-group)","fractal_assignment":["../images/grn_red.png","../images/ylw_slt.png","../images/org_blu.png","../images/gry_blk.png","../images/pnk_blu.png","../images/blu_wht.png","../images/ylw_pnk.png","../images/cyn_red.png"],"mutagen_generator_assignment":[1,0],"goal":0,"start":1,"action_noise":0.1,"location_history":"[1,0]","action_history":"[1]","mutagen_history":"[0]","location_rts":"[720]","trial_type":"fractal-mutation","trial_index":95,"time_elapsed":1763443,"internal_node_id":"0.0-5.0-41.0"},{"group":"square cycles (cube, non-group)","fractal_assignment":["../images/grn_red.png","../images/ylw_slt.png","../images/org_blu.png","../images/gry_blk.png","../images/pnk_blu.png","../images/blu_wht.png","../images/ylw_pnk.png","../images/cyn_red.png"],"mutagen_generator_assignment":[1,0],"goal":4,"start":0,"action_noise":0.1,"location_history":"[0,4]","action_history":"[1]","mutagen_history":"[0]","location_rts":"[611]","trial_type":"fractal-mutation","trial_index":96,"time_elapsed":1768589,"internal_node_id":"0.0-5.0-42.0"},{"group":"square cycles (cube, non-group)","fractal_assignment":["../images/grn_red.png","../images/ylw_slt.png","../images/org_blu.png","../images/gry_blk.png","../images/pnk_blu.png","../images/blu_wht.png","../images/ylw_pnk.png","../images/cyn_red.png"],"mutagen_generator_assignment":[1,0],"goal":6,"start":4,"action_noise":0.1,"location_history":"[4,5,1,2,3,0,1,2,6]","action_history":"[1,1,0,0,0,0,1,1]","mutagen_history":"[0,0,1,1,1,1,0,0]","location_rts":"[715,704,662,572,749,686,405,662]","trial_type":"fractal-mutation","trial_index":97,"time_elapsed":1785879,"internal_node_id":"0.0-5.0-43.0"},{"group":"square cycles (cube, non-group)","fractal_assignment":["../images/grn_red.png","../images/ylw_slt.png","../images/org_blu.png","../images/gry_blk.png","../images/pnk_blu.png","../images/blu_wht.png","../images/ylw_pnk.png","../images/cyn_red.png"],"mutagen_generator_assignment":[1,0],"goal":3,"start":6,"action_noise":0.1,"location_history":"[6,5,4,7,3]","action_history":"[0,0,1,1]","mutagen_history":"[1,1,0,0]","location_rts":"[821,1031,571,524]","trial_type":"fractal-mutation","trial_index":98,"time_elapsed":1796922,"internal_node_id":"0.0-5.0-44.0"},{"group":"square cycles (cube, non-group)","fractal_assignment":["../images/grn_red.png","../images/ylw_slt.png","../images/org_blu.png","../images/gry_blk.png","../images/pnk_blu.png","../images/blu_wht.png","../images/ylw_pnk.png","../images/cyn_red.png"],"mutagen_generator_assignment":[1,0],"goal":7,"start":3,"action_noise":0.1,"location_history":"[3,0,1,0,1,0,1,0,1,2,3,2,3,2,6,7]","action_history":"[0,0,1,0,1,1,1,0,0,1,1,0,0,1,1]","mutagen_history":"[1,1,0,1,0,0,0,1,1,0,0,1,1,0,0]","location_rts":"[503,569,415,892,464,566,451,734,579,528,521,530,598,493,451]","trial_type":"fractal-mutation","trial_index":99,"time_elapsed":1824950,"internal_node_id":"0.0-5.0-45.0"},{"group":"square cycles (cube, non-group)","fractal_assignment":["../images/grn_red.png","../images/ylw_slt.png","../images/org_blu.png","../images/gry_blk.png","../images/pnk_blu.png","../images/blu_wht.png","../images/ylw_pnk.png","../images/cyn_red.png"],"mutagen_generator_assignment":[1,0],"goal":5,"start":7,"action_noise":0.1,"location_history":"[7,6,5]","action_history":"[0,0]","mutagen_history":"[1,1]","location_rts":"[527,640]","trial_type":"fractal-mutation","trial_index":100,"time_elapsed":1831712,"internal_node_id":"0.0-5.0-46.0"},{"group":"square cycles (cube, non-group)","fractal_assignment":["../images/grn_red.png","../images/ylw_slt.png","../images/org_blu.png","../images/gry_blk.png","../images/pnk_blu.png","../images/blu_wht.png","../images/ylw_pnk.png","../images/cyn_red.png"],"mutagen_generator_assignment":[1,0],"goal":1,"start":5,"action_noise":0.1,"location_history":"[5,1]","action_history":"[1]","mutagen_history":"[0]","location_rts":"[802]","trial_type":"fractal-mutation","trial_index":101,"time_elapsed":1837049,"internal_node_id":"0.0-5.0-47.0"},{"group":"square cycles (cube, non-group)","fractal_assignment":["../images/grn_red.png","../images/ylw_slt.png","../images/org_blu.png","../images/gry_blk.png","../images/pnk_blu.png","../images/blu_wht.png","../images/ylw_pnk.png","../images/cyn_red.png"],"mutagen_generator_assignment":[1,0],"goal":6,"start":1,"action_noise":0.1,"location_history":"[1,2,3,2,3,0,1,2,6]","action_history":"[0,0,0,0,0,0,0,1]","mutagen_history":"[1,1,1,1,1,1,1,0]","location_rts":"[649,1093,414,608,1018,544,590,688]","trial_type":"fractal-mutation","trial_index":102,"time_elapsed":1854994,"internal_node_id":"0.0-5.0-48.0"},{"group":"square cycles (cube, non-group)","fractal_assignment":["../images/grn_red.png","../images/ylw_slt.png","../images/org_blu.png","../images/gry_blk.png","../images/pnk_blu.png","../images/blu_wht.png","../images/ylw_pnk.png","../images/cyn_red.png"],"mutagen_generator_assignment":[1,0],"goal":0,"start":6,"action_noise":0.1,"location_history":"[6,7,6,5,4,7,6,7,3,2,6,7,6,5,4,5,1,2,3,0]","action_history":"[1,0,0,0,0,0,1,1,1,1,1,0,0,0,1,1,0,0,0]","mutagen_history":"[0,1,1,1,1,1,0,0,0,0,0,1,1,1,0,0,1,1,1]","location_rts":"[1411,758,586,362,401,622,471,461,1369,638,672,356,475,485,597,713,536,464,559]","trial_type":"fractal-mutation","trial_index":103,"time_elapsed":1891032,"internal_node_id":"0.0-5.0-49.0"},{"view_history":"[{\"page_index\":0,\"viewing_time\":8198}]","rt":8199,"trial_type":"instructions","trial_index":104,"time_elapsed":1900232,"internal_node_id":"0.0-6.0"},{"rt":107890,"responses":"{\"Q0\":\"It seemed much easier today than it was yesterday. I want to say thank you for the fair payment for this set of hits :-) Im enjoying being able to do the work.\"}","trial_type":"survey-text","trial_index":105,"time_elapsed":2009138,"internal_node_id":"0.0-7.0"}]