[{"view_history":"[{\"page_index\":0,\"viewing_time\":45191},{\"page_index\":1,\"viewing_time\":1473}]","rt":46665,"trial_type":"instructions","trial_index":0,"time_elapsed":46665,"internal_node_id":"0.0-0.0"},{"view_history":"[{\"page_index\":0,\"viewing_time\":1141},{\"page_index\":1,\"viewing_time\":1764}]","rt":2905,"trial_type":"instructions","trial_index":1,"time_elapsed":50576,"internal_node_id":"0.0-1.0"},{"group":"tri cycles (cube, non-group)","room_assignment":["green","red","brown","blue","yellow","grey","purple","pink"],"door_color_assignment":["black","white"],"door_generator_assignment":[0,1],"goal":6,"start":3,"action_noise":0.1,"location_history":"[3,7,6]","action_history":"[1,0]","door_history":"[1,0]","location_rts":"[937,507]","trial_type":"two-door-navigation","trial_index":2,"time_elapsed":57708,"internal_node_id":"0.0-2.0-0.0"},{"group":"tri cycles (cube, non-group)","room_assignment":["green","red","brown","blue","yellow","grey","purple","pink"],"door_color_assignment":["black","white"],"door_generator_assignment":[0,1],"goal":1,"start":6,"action_noise":0.1,"location_history":"[6,4,0,3,4,0,3,7,6,4,7,6,4,0,3,4,0,3,4,0,2,6,5,1]","action_history":"[0,0,1,1,1,1,0,0,0,0,0,1,1,1,1,1,1,1,1,1,1,1,0]","door_history":"[0,0,1,1,1,1,0,0,0,0,0,1,1,1,1,1,1,1,1,1,1,1,0]","location_rts":"[450,26,173,284,71,167,1691,40,232,96,48,596,145,12,216,77,37396,158,162,7,92,61,263]","trial_type":"two-door-navigation","trial_index":3,"time_elapsed":127697,"internal_node_id":"0.0-2.0-1.0"},{"group":"tri cycles (cube, non-group)","room_assignment":["green","red","brown","blue","yellow","grey","purple","pink"],"door_color_assignment":["black","white"],"door_generator_assignment":[0,1],"goal":2,"start":1,"action_noise":0.1,"location_history":"[1,0,2]","action_history":"[0,0]","door_history":"[0,0]","location_rts":"[518,6]","trial_type":"two-door-navigation","trial_index":4,"time_elapsed":134115,"internal_node_id":"0.0-2.0-2.0"},{"group":"tri cycles (cube, non-group)","room_assignment":["green","red","brown","blue","yellow","grey","purple","pink"],"door_color_assignment":["black","white"],"door_generator_assignment":[0,1],"goal":0,"start":2,"action_noise":0.1,"location_history":"[2,6,5,2,6,4,0]","action_history":"[1,1,1,1,0,0]","door_history":"[1,1,1,1,0,0]","location_rts":"[6561,153,181,69,105,172]","trial_type":"two-door-navigation","trial_index":5,"time_elapsed":151111,"internal_node_id":"0.0-2.0-3.0"},{"group":"tri cycles (cube, non-group)","room_assignment":["green","red","brown","blue","yellow","grey","purple","pink"],"door_color_assignment":["black","white"],"door_generator_assignment":[0,1],"goal":7,"start":0,"action_noise":0.1,"location_history":"[0,2,1,0,2,6,5,2,6,5,2,1,0,2,6,4,7]","action_history":"[0,0,0,0,0,1,1,1,1,1,0,0,0,0,0,0]","door_history":"[0,0,0,0,0,1,1,1,1,1,0,0,0,0,0,0]","location_rts":"[207,84,249,154,171,6212,59,46,95,7,163,196,205,62,236,489]","trial_type":"two-door-navigation","trial_index":6,"time_elapsed":179883,"internal_node_id":"0.0-2.0-4.0"},{"group":"tri cycles (cube, non-group)","room_assignment":["green","red","brown","blue","yellow","grey","purple","pink"],"door_color_assignment":["black","white"],"door_generator_assignment":[0,1],"goal":5,"start":7,"action_noise":0.1,"location_history":"[7,3,4,0,3,7,3,4,0,3,7,6,4,7,6,4,7,6,5]","action_history":"[1,1,1,1,1,1,1,1,1,0,0,0,0,0,0,0,0,1]","door_history":"[1,1,1,1,1,1,1,1,1,0,0,0,0,0,0,0,0,1]","location_rts":"[7955,172,195,186,136,799,77,189,80,688,401,12,161,96,104,71,196,135]","trial_type":"two-door-navigation","trial_index":7,"time_elapsed":214023,"internal_node_id":"0.0-2.0-5.0"},{"group":"tri cycles (cube, non-group)","room_assignment":["green","red","brown","blue","yellow","grey","purple","pink"],"door_color_assignment":["black","white"],"door_generator_assignment":[0,1],"goal":4,"start":5,"action_noise":0.1,"location_history":"[5,2,6,5,2,1,5,1,0,3,7,6,5,2,6,5,2,1,5,2,1,5,1,0,2,6,4]","action_history":"[1,1,1,1,0,0,0,0,0,0,0,0,1,1,1,1,1,1,1,1,0,0,0,0,1,1]","door_history":"[1,1,1,1,0,0,0,0,0,0,0,0,1,1,1,1,1,1,1,1,0,0,0,0,1,1]","location_rts":"[369,257,195,120,867,125,156,49,173,52,41,181,277,142,161,247,85,185,95,6,705,80,87,316,133,127]","trial_type":"two-door-navigation","trial_index":8,"time_elapsed":249767,"internal_node_id":"0.0-2.0-6.0"},{"group":"tri cycles (cube, non-group)","room_assignment":["green","red","brown","blue","yellow","grey","purple","pink"],"door_color_assignment":["black","white"],"door_generator_assignment":[0,1],"goal":2,"start":4,"action_noise":0.1,"location_history":"[4,0,3,4,7,6,4,7,6,4,0,3,4,0,3,4,0,3,4,7,6,4,7,6,5,1,0,2]","action_history":"[1,1,1,0,0,0,0,0,0,0,1,1,1,1,1,1,1,1,0,0,0,0,0,0,0,0,0]","door_history":"[1,1,1,0,0,0,0,0,0,0,1,1,1,1,1,1,1,1,0,0,0,0,0,0,0,0,0]","location_rts":"[3556,121,119,795,42,62,208,98,214,104,12,60,79,207,101,232,330,51,553,314,42,355,249,229,236,244,133]","trial_type":"two-door-navigation","trial_index":9,"time_elapsed":290081,"internal_node_id":"0.0-2.0-7.0"},{"group":"tri cycles (cube, non-group)","room_assignment":["green","red","brown","blue","yellow","grey","purple","pink"],"door_color_assignment":["black","white"],"door_generator_assignment":[0,1],"goal":3,"start":2,"action_noise":0.1,"location_history":"[2,1,0,2,1,5,2,1,5,2,6,4,0,3]","action_history":"[0,0,0,0,1,1,1,1,1,1,1,1,1]","door_history":"[0,0,0,0,1,1,1,1,1,1,1,1,1]","location_rts":"[414,59,52,73,668,32,109,264,275,171,249,73,98]","trial_type":"two-door-navigation","trial_index":10,"time_elapsed":309634,"internal_node_id":"0.0-2.0-8.0"},{"group":"tri cycles (cube, non-group)","room_assignment":["green","red","brown","blue","yellow","grey","purple","pink"],"door_color_assignment":["black","white"],"door_generator_assignment":[0,1],"goal":7,"start":3,"action_noise":0.1,"location_history":"[3,4,0,3,4,0,3,7]","action_history":"[1,1,1,1,1,1,0]","door_history":"[1,1,1,1,1,1,0]","location_rts":"[399,130,947,215,173,224,304]","trial_type":"two-door-navigation","trial_index":11,"time_elapsed":322811,"internal_node_id":"0.0-2.0-9.0"},{"group":"tri cycles (cube, non-group)","room_assignment":["green","red","brown","blue","yellow","grey","purple","pink"],"door_color_assignment":["black","white"],"door_generator_assignment":[0,1],"goal":0,"start":7,"action_noise":0.1,"location_history":"[7,6,4,7,3,7,3,4,0]","action_history":"[0,0,0,0,0,0,1,1]","door_history":"[0,0,0,0,0,0,1,1]","location_rts":"[652,23,218,394,186,284,99,85]","trial_type":"two-door-navigation","trial_index":12,"time_elapsed":336566,"internal_node_id":"0.0-2.0-10.0"},{"group":"tri cycles (cube, non-group)","room_assignment":["green","red","brown","blue","yellow","grey","purple","pink"],"door_color_assignment":["black","white"],"door_generator_assignment":[0,1],"goal":1,"start":0,"action_noise":0.1,"location_history":"[0,3,4,0,3,4,7,6,4,7,6,4,0,3,4,0,3,4,7,3,4,7,6,4,7,6,5,2,6,5,2,6,4,7,6,4,7,6,5,1]","action_history":"[1,1,1,1,1,0,0,0,0,0,0,0,1,1,1,1,1,1,1,1,0,0,0,0,0,1,1,1,1,1,1,0,0,0,0,0,0,0,0]","door_history":"[1,1,1,1,1,0,0,0,0,0,0,0,1,1,1,1,1,1,1,1,0,0,0,0,0,1,1,1,1,1,1,0,0,0,0,0,0,0,0]","location_rts":"[470,152,1016,27,165,321,218,293,29,122,240,339,347,31,134,26,215,355,107,105,95,155,286,341,270,411,189,95,196,83,135,431,169,85,236,77,235,99,1009]","trial_type":"two-door-navigation","trial_index":13,"time_elapsed":389864,"internal_node_id":"0.0-2.0-11.0"},{"group":"tri cycles (cube, non-group)","room_assignment":["green","red","brown","blue","yellow","grey","purple","pink"],"door_color_assignment":["black","white"],"door_generator_assignment":[0,1],"goal":6,"start":1,"action_noise":0.1,"location_history":"[1,0,2,1,0,2,1,5,1,5,1,5,2,6]","action_history":"[0,0,0,0,0,0,1,1,1,1,1,1,1]","door_history":"[0,0,0,0,0,0,1,1,1,1,1,1,1]","location_rts":"[1595,316,629,232,238,390,291,187,73,84,157,38,90]","trial_type":"two-door-navigation","trial_index":14,"time_elapsed":411160,"internal_node_id":"0.0-2.0-12.0"},{"group":"tri cycles (cube, non-group)","room_assignment":["green","red","brown","blue","yellow","grey","purple","pink"],"door_color_assignment":["black","white"],"door_generator_assignment":[0,1],"goal":4,"start":6,"action_noise":0.1,"location_history":"[6,4]","action_history":"[0]","door_history":"[0]","location_rts":"[404]","trial_type":"two-door-navigation","trial_index":15,"time_elapsed":416109,"internal_node_id":"0.0-2.0-13.0"},{"group":"tri cycles (cube, non-group)","room_assignment":["green","red","brown","blue","yellow","grey","purple","pink"],"door_color_assignment":["black","white"],"door_generator_assignment":[0,1],"goal":5,"start":4,"action_noise":0.1,"location_history":"[4,7,6,4,0,2,1,5]","action_history":"[0,0,0,0,0,0,1]","door_history":"[0,0,0,0,0,0,1]","location_rts":"[746,120,150,153,102,188,1233]","trial_type":"two-door-navigation","trial_index":16,"time_elapsed":429583,"internal_node_id":"0.0-2.0-14.0"},{"group":"tri cycles (cube, non-group)","room_assignment":["green","red","brown","blue","yellow","grey","purple","pink"],"door_color_assignment":["black","white"],"door_generator_assignment":[0,1],"goal":4,"start":5,"action_noise":0.1,"location_history":"[5,1,0,2,1,5,2,6,4]","action_history":"[0,0,0,0,1,1,1,1]","door_history":"[0,0,0,0,1,1,1,1]","location_rts":"[889,439,721,105,1080,228,210,532]","trial_type":"two-door-navigation","trial_index":17,"time_elapsed":446119,"internal_node_id":"0.0-2.0-15.0"},{"group":"tri cycles (cube, non-group)","room_assignment":["green","red","brown","blue","yellow","grey","purple","pink"],"door_color_assignment":["black","white"],"door_generator_assignment":[0,1],"goal":0,"start":4,"action_noise":0.1,"location_history":"[4,7,6,4,7,6,4,7,3,7,3,4,0]","action_history":"[1,1,0,0,0,0,0,1,1,1,1,1]","door_history":"[1,1,0,0,0,0,0,1,1,1,1,1]","location_rts":"[103978,182,11428,177,6,178,126,186,330,100,200,471]","trial_type":"two-door-navigation","trial_index":18,"time_elapsed":580501,"internal_node_id":"0.0-2.0-16.0"},{"group":"tri cycles (cube, non-group)","room_assignment":["green","red","brown","blue","yellow","grey","purple","pink"],"door_color_assignment":["black","white"],"door_generator_assignment":[0,1],"goal":7,"start":0,"action_noise":0.1,"location_history":"[0,3,4,0,3,4,7]","action_history":"[1,1,1,1,1,0]","door_history":"[1,1,1,1,1,0]","location_rts":"[471,375,1,189,267,448]","trial_type":"two-door-navigation","trial_index":19,"time_elapsed":591970,"internal_node_id":"0.0-2.0-17.0"},{"group":"tri cycles (cube, non-group)","room_assignment":["green","red","brown","blue","yellow","grey","purple","pink"],"door_color_assignment":["black","white"],"door_generator_assignment":[0,1],"goal":2,"start":7,"action_noise":0.1,"location_history":"[7,6,4,7,6,5,2]","action_history":"[0,0,0,0,0,1]","door_history":"[0,0,0,0,0,1]","location_rts":"[533,13,75,6,2,550]","trial_type":"two-door-navigation","trial_index":20,"time_elapsed":602879,"internal_node_id":"0.0-2.0-18.0"},{"group":"tri cycles (cube, non-group)","room_assignment":["green","red","brown","blue","yellow","grey","purple","pink"],"door_color_assignment":["black","white"],"door_generator_assignment":[0,1],"goal":1,"start":2,"action_noise":0.1,"location_history":"[2,6,5,2,1]","action_history":"[1,1,1,1]","door_history":"[1,1,1,1]","location_rts":"[699,107,213,50]","trial_type":"two-door-navigation","trial_index":21,"time_elapsed":611615,"internal_node_id":"0.0-2.0-19.0"},{"group":"tri cycles (cube, non-group)","room_assignment":["green","red","brown","blue","yellow","grey","purple","pink"],"door_color_assignment":["black","white"],"door_generator_assignment":[0,1],"goal":3,"start":1,"action_noise":0.1,"location_history":"[1,5,2,1,0,2,1,0,2,1,5,2,1,5,2,6,5,1,0,3]","action_history":"[1,1,1,0,0,0,0,0,0,1,1,1,1,1,1,1,0,0,0]","door_history":"[1,1,1,0,0,0,0,0,0,1,1,1,1,1,1,1,0,0,0]","location_rts":"[25,64,57,518,211,121,252,106,4,348,164,256,167,91,191,196,398,266,17]","trial_type":"two-door-navigation","trial_index":22,"time_elapsed":638295,"internal_node_id":"0.0-2.0-20.0"},{"group":"tri cycles (cube, non-group)","room_assignment":["green","red","brown","blue","yellow","grey","purple","pink"],"door_color_assignment":["black","white"],"door_generator_assignment":[0,1],"goal":6,"start":3,"action_noise":0.1,"location_history":"[3,7,6]","action_history":"[0,0]","door_history":"[0,0]","location_rts":"[1096,200]","trial_type":"two-door-navigation","trial_index":23,"time_elapsed":645180,"internal_node_id":"0.0-2.0-21.0"},{"group":"tri cycles (cube, non-group)","room_assignment":["green","red","brown","blue","yellow","grey","purple","pink"],"door_color_assignment":["black","white"],"door_generator_assignment":[0,1],"goal":5,"start":6,"action_noise":0.1,"location_history":"[6,5]","action_history":"[0]","door_history":"[0]","location_rts":"[454]","trial_type":"two-door-navigation","trial_index":24,"time_elapsed":651113,"internal_node_id":"0.0-2.0-22.0"},{"group":"tri cycles (cube, non-group)","room_assignment":["green","red","brown","blue","yellow","grey","purple","pink"],"door_color_assignment":["black","white"],"door_generator_assignment":[0,1],"goal":3,"start":5,"action_noise":0.1,"location_history":"[5,2,6,5,2,1,0,2,1,0,3]","action_history":"[1,1,1,1,0,0,0,0,0,1]","door_history":"[1,1,1,1,0,0,0,0,0,1]","location_rts":"[42630,1002,87,64,428,112,114,60,112,1246]","trial_type":"two-door-navigation","trial_index":25,"time_elapsed":710916,"internal_node_id":"0.0-2.0-23.0"},{"group":"tri cycles (cube, non-group)","room_assignment":["green","red","brown","blue","yellow","grey","purple","pink"],"door_color_assignment":["black","white"],"door_generator_assignment":[0,1],"goal":0,"start":3,"action_noise":0.1,"location_history":"[3,4,0]","action_history":"[1,1]","door_history":"[1,1]","location_rts":"[903,95]","trial_type":"two-door-navigation","trial_index":26,"time_elapsed":717493,"internal_node_id":"0.0-2.0-24.0"},{"group":"tri cycles (cube, non-group)","room_assignment":["green","red","brown","blue","yellow","grey","purple","pink"],"door_color_assignment":["black","white"],"door_generator_assignment":[0,1],"goal":7,"start":0,"action_noise":0.1,"location_history":"[0,3,4,0,2,1,0,2,1,5,1,5,2,6,5,2,1,0,2,1,0,2,6,5,2,6,5,2,6,4,7]","action_history":"[1,1,1,0,0,0,0,0,1,1,1,1,1,1,0,0,0,0,0,0,0,1,1,1,1,1,1,1,0,0]","door_history":"[1,1,1,0,0,0,0,0,1,1,1,1,1,1,0,0,0,0,0,0,0,1,1,1,1,1,1,1,0,0]","location_rts":"[243,62,64,318,170,123,10,174,67,269,146,93,52,79,66,132,199,92,22,73,110,98,64,99,201,169,17,9,241,35]","trial_type":"two-door-navigation","trial_index":27,"time_elapsed":755643,"internal_node_id":"0.0-2.0-25.0"},{"group":"tri cycles (cube, non-group)","room_assignment":["green","red","brown","blue","yellow","grey","purple","pink"],"door_color_assignment":["black","white"],"door_generator_assignment":[0,1],"goal":2,"start":7,"action_noise":0.1,"location_history":"[7,6,4,0,2]","action_history":"[0,0,0,0]","door_history":"[0,0,0,0]","location_rts":"[2255,49,219,85]","trial_type":"two-door-navigation","trial_index":28,"time_elapsed":765911,"internal_node_id":"0.0-2.0-26.0"},{"group":"tri cycles (cube, non-group)","room_assignment":["green","red","brown","blue","yellow","grey","purple","pink"],"door_color_assignment":["black","white"],"door_generator_assignment":[0,1],"goal":1,"start":2,"action_noise":0.1,"location_history":"[2,1]","action_history":"[0]","door_history":"[0]","location_rts":"[759]","trial_type":"two-door-navigation","trial_index":29,"time_elapsed":771217,"internal_node_id":"0.0-2.0-27.0"},{"group":"tri cycles (cube, non-group)","room_assignment":["green","red","brown","blue","yellow","grey","purple","pink"],"door_color_assignment":["black","white"],"door_generator_assignment":[0,1],"goal":5,"start":1,"action_noise":0.1,"location_history":"[1,0,2,1,0,2,6,5]","action_history":"[0,0,0,0,0,1,1]","door_history":"[0,0,0,0,0,1,1]","location_rts":"[748,155,10,796,68,946,88]","trial_type":"two-door-navigation","trial_index":30,"time_elapsed":784806,"internal_node_id":"0.0-2.0-28.0"},{"group":"tri cycles (cube, non-group)","room_assignment":["green","red","brown","blue","yellow","grey","purple","pink"],"door_color_assignment":["black","white"],"door_generator_assignment":[0,1],"goal":4,"start":5,"action_noise":0.1,"location_history":"[5,2,6,5,2,1,0,2,6,4]","action_history":"[1,1,1,1,0,0,0,0,0]","door_history":"[1,1,1,1,0,0,0,0,0]","location_rts":"[672,141,209,251,98,146,150,56,9]","trial_type":"two-door-navigation","trial_index":31,"time_elapsed":799403,"internal_node_id":"0.0-2.0-29.0"},{"group":"tri cycles (cube, non-group)","room_assignment":["green","red","brown","blue","yellow","grey","purple","pink"],"door_color_assignment":["black","white"],"door_generator_assignment":[0,1],"goal":6,"start":4,"action_noise":0.1,"location_history":"[4,7,3,4,7,3,4,7,6]","action_history":"[1,1,1,1,1,0,0,0]","door_history":"[1,1,1,1,1,0,0,0]","location_rts":"[636527,20,109,205,88,192,88,88]","trial_type":"two-door-navigation","trial_index":32,"time_elapsed":1450114,"internal_node_id":"0.0-2.0-30.0"},{"group":"tri cycles (cube, non-group)","room_assignment":["green","red","brown","blue","yellow","grey","purple","pink"],"door_color_assignment":["black","white"],"door_generator_assignment":[0,1],"goal":4,"start":6,"action_noise":0.1,"location_history":"[6,5,2,6,5,2,1,0,2,1,0,2,1,0,2,1,5,1,5,2,6,5,2,6,5,1,0,3,7,6,4]","action_history":"[1,1,1,1,1,0,0,0,0,0,0,0,0,0,0,1,1,1,1,1,1,1,1,1,0,0,0,0,0,0]","door_history":"[1,1,1,1,1,0,0,0,0,0,0,0,0,0,0,1,1,1,1,1,1,1,1,1,0,0,0,0,0,0]","location_rts":"[597639,198,184,202,84,14,38,182,169,159,194,68,122,159,118,543,216,118,69,160,186,99,78,241,266,389,233,323,131,170]","trial_type":"two-door-navigation","trial_index":33,"time_elapsed":2087609,"internal_node_id":"0.0-2.0-31.0"},{"group":"tri cycles (cube, non-group)","room_assignment":["green","red","brown","blue","yellow","grey","purple","pink"],"door_color_assignment":["black","white"],"door_generator_assignment":[0,1],"goal":2,"start":4,"action_noise":0.1,"location_history":"[4,7,6,4,7,6,4,7,3,4,0,3,4,0,3,4,7,6,4,7,6,4,7,6,5,2]","action_history":"[0,0,0,0,0,0,1,1,1,1,1,1,1,1,1,0,0,0,0,0,0,0,0,1,1]","door_history":"[0,0,0,0,0,0,1,1,1,1,1,1,1,1,1,0,0,0,0,0,0,0,0,1,1]","location_rts":"[933,83,140,41,214,21,69,106,243,41,88,185,21,159,63,106,106,233,25,63,113,485,42,143,175]","trial_type":"two-door-navigation","trial_index":34,"time_elapsed":2121115,"internal_node_id":"0.0-2.0-32.0"},{"group":"tri cycles (cube, non-group)","room_assignment":["green","red","brown","blue","yellow","grey","purple","pink"],"door_color_assignment":["black","white"],"door_generator_assignment":[0,1],"goal":0,"start":2,"action_noise":0.1,"location_history":"[2,6,5,2,6,5,1,0]","action_history":"[1,1,1,1,1,0,0]","door_history":"[1,1,1,1,1,0,0]","location_rts":"[10391,163,11,125,48,228,60]","trial_type":"two-door-navigation","trial_index":35,"time_elapsed":2143934,"internal_node_id":"0.0-2.0-33.0"},{"group":"tri cycles (cube, non-group)","room_assignment":["green","red","brown","blue","yellow","grey","purple","pink"],"door_color_assignment":["black","white"],"door_generator_assignment":[0,1],"goal":5,"start":0,"action_noise":0.1,"location_history":"[0,2,1,0,3,4,0,3,4,0,2,1,0,2,1,5]","action_history":"[0,0,0,1,1,1,1,1,1,0,0,0,0,0,1]","door_history":"[0,0,0,1,1,1,1,1,1,0,0,0,0,0,1]","location_rts":"[486,37,212,450,143,14,15,130,74,164,28,185,25,241,146]","trial_type":"two-door-navigation","trial_index":36,"time_elapsed":2165518,"internal_node_id":"0.0-2.0-34.0"},{"group":"tri cycles (cube, non-group)","room_assignment":["green","red","brown","blue","yellow","grey","purple","pink"],"door_color_assignment":["black","white"],"door_generator_assignment":[0,1],"goal":1,"start":5,"action_noise":0.1,"location_history":"[5,2,6,4,0,2,1]","action_history":"[1,1,1,1,1,0]","door_history":"[1,1,1,1,1,0]","location_rts":"[673,114,130,106,18948,159]","trial_type":"two-door-navigation","trial_index":37,"time_elapsed":2195429,"internal_node_id":"0.0-2.0-35.0"},{"group":"tri cycles (cube, non-group)","room_assignment":["green","red","brown","blue","yellow","grey","purple","pink"],"door_color_assignment":["black","white"],"door_generator_assignment":[0,1],"goal":7,"start":1,"action_noise":0.1,"location_history":"[1,0,2,6,4,7]","action_history":"[0,0,0,0,0]","door_history":"[0,0,0,0,0]","location_rts":"[370,8,199,189,167]","trial_type":"two-door-navigation","trial_index":38,"time_elapsed":2205087,"internal_node_id":"0.0-2.0-36.0"},{"group":"tri cycles (cube, non-group)","room_assignment":["green","red","brown","blue","yellow","grey","purple","pink"],"door_color_assignment":["black","white"],"door_generator_assignment":[0,1],"goal":3,"start":7,"action_noise":0.1,"location_history":"[7,3]","action_history":"[1]","door_history":"[1]","location_rts":"[325]","trial_type":"two-door-navigation","trial_index":39,"time_elapsed":2209957,"internal_node_id":"0.0-2.0-37.0"},{"group":"tri cycles (cube, non-group)","room_assignment":["green","red","brown","blue","yellow","grey","purple","pink"],"door_color_assignment":["black","white"],"door_generator_assignment":[0,1],"goal":6,"start":3,"action_noise":0.1,"location_history":"[3,4,0,3,4,7,6]","action_history":"[1,1,1,0,0,0]","door_history":"[1,1,1,0,0,0]","location_rts":"[21260,84,77,136,23,143]","trial_type":"two-door-navigation","trial_index":40,"time_elapsed":2241443,"internal_node_id":"0.0-2.0-38.0"},{"group":"tri cycles (cube, non-group)","room_assignment":["green","red","brown","blue","yellow","grey","purple","pink"],"door_color_assignment":["black","white"],"door_generator_assignment":[0,1],"goal":2,"start":6,"action_noise":0.1,"location_history":"[6,4,7,3,7,3,4,0,3,7,6,4,7,6,4,0,3,4,0,3,7,6,4,7,6,4,0,3,4,0,3,4,7,6,4,7,6,4,0,3,7,6,5,1,0,2]","action_history":"[0,0,0,0,1,1,1,1,0,0,0,0,0,0,1,1,1,1,1,0,0,0,0,0,0,1,1,1,1,1,1,0,0,0,0,0,0,1,1,1,1,1,0,0,0]","door_history":"[0,0,0,0,1,1,1,1,0,0,0,0,0,0,1,1,1,1,1,0,0,0,0,0,0,1,1,1,1,1,1,0,0,0,0,0,0,1,1,1,1,1,0,0,0]","location_rts":"[495,186,66,51,351,42,191,87,961,156,103,103,86,36,1522,209,300,90,185,280,223,185,47,75,241,57,52,236,91,167,164,241,224,139,6,26,17,51,183,95,148,89,177,62,64]","trial_type":"two-door-navigation","trial_index":41,"time_elapsed":2300471,"internal_node_id":"0.0-2.0-39.0"},{"group":"tri cycles (cube, non-group)","room_assignment":["green","red","brown","blue","yellow","grey","purple","pink"],"door_color_assignment":["black","white"],"door_generator_assignment":[0,1],"goal":1,"start":2,"action_noise":0.1,"location_history":"[2,1]","action_history":"[0]","door_history":"[0]","location_rts":"[751]","trial_type":"two-door-navigation","trial_index":42,"time_elapsed":2305782,"internal_node_id":"0.0-2.0-40.0"},{"group":"tri cycles (cube, non-group)","room_assignment":["green","red","brown","blue","yellow","grey","purple","pink"],"door_color_assignment":["black","white"],"door_generator_assignment":[0,1],"goal":0,"start":1,"action_noise":0.1,"location_history":"[1,0]","action_history":"[0]","door_history":"[0]","location_rts":"[365]","trial_type":"two-door-navigation","trial_index":43,"time_elapsed":2310720,"internal_node_id":"0.0-2.0-41.0"},{"group":"tri cycles (cube, non-group)","room_assignment":["green","red","brown","blue","yellow","grey","purple","pink"],"door_color_assignment":["black","white"],"door_generator_assignment":[0,1],"goal":4,"start":0,"action_noise":0.1,"location_history":"[0,2,1,0,2,6,5,1,5,2,1,5,1,0,2,1,0,2,1,5,2,6,5,2,1,0,2,6,4]","action_history":"[0,0,0,0,1,1,1,1,1,1,1,0,0,0,0,0,0,0,1,1,1,1,1,0,0,0,0,0]","door_history":"[0,0,0,0,1,1,1,1,1,1,1,0,0,0,0,0,0,0,1,1,1,1,1,0,0,0,0,0]","location_rts":"[214,2,121,157,433,200,1054,106,60,6,99,191,197,141,181,104,68,149,71,127,4,160,7,61,104,13,312,189]","trial_type":"two-door-navigation","trial_index":44,"time_elapsed":2348114,"internal_node_id":"0.0-2.0-42.0"},{"group":"tri cycles (cube, non-group)","room_assignment":["green","red","brown","blue","yellow","grey","purple","pink"],"door_color_assignment":["black","white"],"door_generator_assignment":[0,1],"goal":6,"start":4,"action_noise":0.1,"location_history":"[4,0,2,1,0,2,1,0,2,6]","action_history":"[1,1,1,0,0,0,0,0,1]","door_history":"[1,1,1,0,0,0,0,0,1]","location_rts":"[22686,173,27,23269,90,88,28,139,454]","trial_type":"two-door-navigation","trial_index":45,"time_elapsed":2407970,"internal_node_id":"0.0-2.0-43.0"},{"group":"tri cycles (cube, non-group)","room_assignment":["green","red","brown","blue","yellow","grey","purple","pink"],"door_color_assignment":["black","white"],"door_generator_assignment":[0,1],"goal":3,"start":6,"action_noise":0.1,"location_history":"[6,5,2,6,4,7,6,4,7,6,4,0,3]","action_history":"[1,1,1,0,0,0,0,0,0,0,1,1]","door_history":"[1,1,1,0,0,0,0,0,0,0,1,1]","location_rts":"[18540,130,97,82,155,213,73,184,711,175,99,150]","trial_type":"two-door-navigation","trial_index":46,"time_elapsed":2444559,"internal_node_id":"0.0-2.0-44.0"},{"group":"tri cycles (cube, non-group)","room_assignment":["green","red","brown","blue","yellow","grey","purple","pink"],"door_color_assignment":["black","white"],"door_generator_assignment":[0,1],"goal":7,"start":3,"action_noise":0.1,"location_history":"[3,4,0,3,4,0,2,1,0,2,1,0,2,6,5,1,0,2,1,5,1,0,3,4,0,3,4,0,2,1,5,1,0,3,4,0,3,4,0,3,7]","action_history":"[1,1,1,1,1,0,0,0,0,0,0,0,0,1,0,0,0,0,0,0,0,1,1,1,1,1,1,0,0,0,0,0,1,1,1,1,1,1,1,0]","door_history":"[1,1,1,1,1,0,0,0,0,0,0,0,0,1,0,0,0,0,0,0,0,1,1,1,1,1,1,0,0,0,0,0,1,1,1,1,1,1,1,0]","location_rts":"[435,76,45,105,57,259,188,2398,38,97,6,64,147,480,751,78,131,206,26,151,221,116,16,131,125,159,163,119,121,182,167,106,622,154,137,175,56,128,175,228]","trial_type":"two-door-navigation","trial_index":47,"time_elapsed":2498751,"internal_node_id":"0.0-2.0-45.0"},{"group":"tri cycles (cube, non-group)","room_assignment":["green","red","brown","blue","yellow","grey","purple","pink"],"door_color_assignment":["black","white"],"door_generator_assignment":[0,1],"goal":5,"start":7,"action_noise":0.1,"location_history":"[7,3,7,6,4,0,3,7,6,4,7,3,4,0,3,7,6,4,7,6,4,7,6,5]","action_history":"[0,0,0,0,0,0,0,0,0,0,1,1,1,1,0,0,0,0,0,0,0,1,1]","door_history":"[0,0,0,0,0,0,0,0,0,0,1,1,1,1,0,0,0,0,0,0,0,1,1]","location_rts":"[955,209,192,190,36,89,99,168,719,101,118,70,117,2,34,190,183,219,57,118,141,211,125]","trial_type":"two-door-navigation","trial_index":48,"time_elapsed":2530559,"internal_node_id":"0.0-2.0-46.0"},{"group":"tri cycles (cube, non-group)","room_assignment":["green","red","brown","blue","yellow","grey","purple","pink"],"door_color_assignment":["black","white"],"door_generator_assignment":[0,1],"goal":1,"start":5,"action_noise":0.1,"location_history":"[5,2,6,5,2,6,4,7,6,5,2,1]","action_history":"[1,1,1,1,1,0,0,0,0,0,0]","door_history":"[1,1,1,1,1,0,0,0,0,0,0]","location_rts":"[870,74,144,595,40,79,177,86,74,259,196]","trial_type":"two-door-navigation","trial_index":49,"time_elapsed":2548105,"internal_node_id":"0.0-2.0-47.0"},{"group":"tri cycles (cube, non-group)","room_assignment":["green","red","brown","blue","yellow","grey","purple","pink"],"door_color_assignment":["black","white"],"door_generator_assignment":[0,1],"goal":6,"start":1,"action_noise":0.1,"location_history":"[1,5,2,6]","action_history":"[1,1,1]","door_history":"[1,1,1]","location_rts":"[1736,229,110]","trial_type":"two-door-navigation","trial_index":50,"time_elapsed":2556848,"internal_node_id":"0.0-2.0-48.0"},{"group":"tri cycles (cube, non-group)","room_assignment":["green","red","brown","blue","yellow","grey","purple","pink"],"door_color_assignment":["black","white"],"door_generator_assignment":[0,1],"goal":0,"start":6,"action_noise":0.1,"location_history":"[6,4,0]","action_history":"[1,1]","door_history":"[1,1]","location_rts":"[1459,110]","trial_type":"two-door-navigation","trial_index":51,"time_elapsed":2564009,"internal_node_id":"0.0-2.0-49.0"},{"view_history":"[{\"page_index\":0,\"viewing_time\":1913}]","rt":1913,"trial_type":"instructions","trial_index":52,"time_elapsed":2566924,"internal_node_id":"0.0-3.0"},{"view_history":"[{\"page_index\":0,\"viewing_time\":892},{\"page_index\":1,\"viewing_time\":1866}]","rt":2758,"trial_type":"instructions","trial_index":53,"time_elapsed":2570688,"internal_node_id":"0.0-4.0"},{"group":"square cycles (cube, non-group)","fractal_assignment":["../images/ylw_pnk.png","../images/gry_blk.png","../images/cyn_red.png","../images/ylw_slt.png","../images/pnk_blu.png","../images/blu_wht.png","../images/org_blu.png","../images/grn_red.png"],"mutagen_generator_assignment":[0,1],"goal":6,"start":3,"action_noise":0.1,"location_history":"[3,0,1,0,4,7,3,0,1,2,3,2,3,2,6]","action_history":"[0,0,1,1,0,1,0,0,0,0,1,0,1,1]","mutagen_history":"[0,0,1,1,0,1,0,0,0,0,1,0,1,1]","location_rts":"[377,59,94,120,18,71,32,43,183,77,86,26,22,140]","trial_type":"fractal-mutation","trial_index":54,"time_elapsed":2590881,"internal_node_id":"0.0-5.0-0.0"},{"group":"square cycles (cube, non-group)","fractal_assignment":["../images/ylw_pnk.png","../images/gry_blk.png","../images/cyn_red.png","../images/ylw_slt.png","../images/pnk_blu.png","../images/blu_wht.png","../images/org_blu.png","../images/grn_red.png"],"mutagen_generator_assignment":[0,1],"goal":1,"start":6,"action_noise":0.1,"location_history":"[6,5,1]","action_history":"[0,0]","mutagen_history":"[0,0]","location_rts":"[13206,51]","trial_type":"fractal-mutation","trial_index":55,"time_elapsed":2609841,"internal_node_id":"0.0-5.0-1.0"},{"group":"square cycles (cube, non-group)","fractal_assignment":["../images/ylw_pnk.png","../images/gry_blk.png","../images/cyn_red.png","../images/ylw_slt.png","../images/pnk_blu.png","../images/blu_wht.png","../images/org_blu.png","../images/grn_red.png"],"mutagen_generator_assignment":[0,1],"goal":2,"start":1,"action_noise":0.1,"location_history":"[1,0,1,2]","action_history":"[1,0,0]","mutagen_history":"[1,0,0]","location_rts":"[169,64,61]","trial_type":"fractal-mutation","trial_index":56,"time_elapsed":2616951,"internal_node_id":"0.0-5.0-2.0"},{"group":"square cycles (cube, non-group)","fractal_assignment":["../images/ylw_pnk.png","../images/gry_blk.png","../images/cyn_red.png","../images/ylw_slt.png","../images/pnk_blu.png","../images/blu_wht.png","../images/org_blu.png","../images/grn_red.png"],"mutagen_generator_assignment":[0,1],"goal":0,"start":2,"action_noise":0.1,"location_history":"[2,3,2,6,7,3,2,6,7,6,7,3,0]","action_history":"[0,1,1,1,1,1,1,1,0,1,1,0]","mutagen_history":"[0,1,1,1,1,1,1,1,0,1,1,0]","location_rts":"[671,145,110,90740,0,9,89,167,23465,18,152,6]","trial_type":"fractal-mutation","trial_index":57,"time_elapsed":2751783,"internal_node_id":"0.0-5.0-3.0"},{"group":"square cycles (cube, non-group)","fractal_assignment":["../images/ylw_pnk.png","../images/gry_blk.png","../images/cyn_red.png","../images/ylw_slt.png","../images/pnk_blu.png","../images/blu_wht.png","../images/org_blu.png","../images/grn_red.png"],"mutagen_generator_assignment":[0,1],"goal":7,"start":0,"action_noise":0.1,"location_history":"[0,4,5,1,2,3,2,3,2,6,7]","action_history":"[1,0,1,0,0,1,0,1,1,1]","mutagen_history":"[1,0,1,0,0,1,0,1,1,1]","location_rts":"[176,27,17,70,81,11,244,26,46,41]","trial_type":"fractal-mutation","trial_index":58,"time_elapsed":2766887,"internal_node_id":"0.0-5.0-4.0"},{"group":"square cycles (cube, non-group)","fractal_assignment":["../images/ylw_pnk.png","../images/gry_blk.png","../images/cyn_red.png","../images/ylw_slt.png","../images/pnk_blu.png","../images/blu_wht.png","../images/org_blu.png","../images/grn_red.png"],"mutagen_generator_assignment":[0,1],"goal":5,"start":7,"action_noise":0.1,"location_history":"[7,6,5]","action_history":"[0,0]","mutagen_history":"[0,0]","location_rts":"[305,285]","trial_type":"fractal-mutation","trial_index":59,"time_elapsed":2773157,"internal_node_id":"0.0-5.0-5.0"},{"group":"square cycles (cube, non-group)","fractal_assignment":["../images/ylw_pnk.png","../images/gry_blk.png","../images/cyn_red.png","../images/ylw_slt.png","../images/pnk_blu.png","../images/blu_wht.png","../images/org_blu.png","../images/grn_red.png"],"mutagen_generator_assignment":[0,1],"goal":4,"start":5,"action_noise":0.1,"location_history":"[5,4]","action_history":"[1]","mutagen_history":"[1]","location_rts":"[84]","trial_type":"fractal-mutation","trial_index":60,"time_elapsed":2777847,"internal_node_id":"0.0-5.0-6.0"},{"group":"square cycles (cube, non-group)","fractal_assignment":["../images/ylw_pnk.png","../images/gry_blk.png","../images/cyn_red.png","../images/ylw_slt.png","../images/pnk_blu.png","../images/blu_wht.png","../images/org_blu.png","../images/grn_red.png"],"mutagen_generator_assignment":[0,1],"goal":2,"start":4,"action_noise":0.1,"location_history":"[4,7,6,7,6,7,6,5,1,2]","action_history":"[0,0,1,0,1,0,0,1,0]","mutagen_history":"[0,0,1,0,1,0,0,1,0]","location_rts":"[64,122,137,163,32,42,115,43,151]","trial_type":"fractal-mutation","trial_index":61,"time_elapsed":2792018,"internal_node_id":"0.0-5.0-7.0"},{"group":"square cycles (cube, non-group)","fractal_assignment":["../images/ylw_pnk.png","../images/gry_blk.png","../images/cyn_red.png","../images/ylw_slt.png","../images/pnk_blu.png","../images/blu_wht.png","../images/org_blu.png","../images/grn_red.png"],"mutagen_generator_assignment":[0,1],"goal":3,"start":2,"action_noise":0.1,"location_history":"[2,6,5,4,7,6,5,1,2,6,5,1,0,4,7,3]","action_history":"[1,0,0,0,0,0,0,0,1,1,1,1,1,0,0]","mutagen_history":"[1,0,0,0,0,0,0,0,1,1,1,1,1,0,0]","location_rts":"[550,100,120,200,221,75,197,163,62,52,104,120,56,63,104]","trial_type":"fractal-mutation","trial_index":62,"time_elapsed":2814092,"internal_node_id":"0.0-5.0-8.0"},{"group":"square cycles (cube, non-group)","fractal_assignment":["../images/ylw_pnk.png","../images/gry_blk.png","../images/cyn_red.png","../images/ylw_slt.png","../images/pnk_blu.png","../images/blu_wht.png","../images/org_blu.png","../images/grn_red.png"],"mutagen_generator_assignment":[0,1],"goal":7,"start":3,"action_noise":0.1,"location_history":"[3,0,1,2,3,0,1,0,1,2,3,2,3,0,1,2,3,2,6,5,1,0,4,7]","action_history":"[0,0,0,0,0,0,1,0,0,1,1,0,0,0,0,0,0,1,0,1,1,1,0]","mutagen_history":"[0,0,0,0,0,0,1,0,0,1,1,0,0,0,0,0,0,1,0,1,1,1,0]","location_rts":"[91,228,192,41,251,75,165,354,136,167,25,29,113,145,77,17,49,126,136,18,187,54,452]","trial_type":"fractal-mutation","trial_index":63,"time_elapsed":2845753,"internal_node_id":"0.0-5.0-9.0"},{"group":"square cycles (cube, non-group)","fractal_assignment":["../images/ylw_pnk.png","../images/gry_blk.png","../images/cyn_red.png","../images/ylw_slt.png","../images/pnk_blu.png","../images/blu_wht.png","../images/org_blu.png","../images/grn_red.png"],"mutagen_generator_assignment":[0,1],"goal":0,"start":7,"action_noise":0.1,"location_history":"[7,3,0]","action_history":"[1,0]","mutagen_history":"[1,0]","location_rts":"[188,169]","trial_type":"fractal-mutation","trial_index":64,"time_elapsed":2851804,"internal_node_id":"0.0-5.0-10.0"},{"group":"square cycles (cube, non-group)","fractal_assignment":["../images/ylw_pnk.png","../images/gry_blk.png","../images/cyn_red.png","../images/ylw_slt.png","../images/pnk_blu.png","../images/blu_wht.png","../images/org_blu.png","../images/grn_red.png"],"mutagen_generator_assignment":[0,1],"goal":1,"start":0,"action_noise":0.1,"location_history":"[0,4,7,3,2,6,7,3,0,1]","action_history":"[0,0,1,1,1,1,1,0,0]","mutagen_history":"[0,0,1,1,1,1,1,0,0]","location_rts":"[186,195,100,73,268,106,18,12,168]","trial_type":"fractal-mutation","trial_index":65,"time_elapsed":2866260,"internal_node_id":"0.0-5.0-11.0"},{"group":"square cycles (cube, non-group)","fractal_assignment":["../images/ylw_pnk.png","../images/gry_blk.png","../images/cyn_red.png","../images/ylw_slt.png","../images/pnk_blu.png","../images/blu_wht.png","../images/org_blu.png","../images/grn_red.png"],"mutagen_generator_assignment":[0,1],"goal":6,"start":1,"action_noise":0.1,"location_history":"[1,2,3,0,1,2,6]","action_history":"[0,0,1,0,0,1]","mutagen_history":"[0,0,1,0,0,1]","location_rts":"[148,10,232,32890,63,295]","trial_type":"fractal-mutation","trial_index":66,"time_elapsed":2909776,"internal_node_id":"0.0-5.0-12.0"},{"group":"square cycles (cube, non-group)","fractal_assignment":["../images/ylw_pnk.png","../images/gry_blk.png","../images/cyn_red.png","../images/ylw_slt.png","../images/pnk_blu.png","../images/blu_wht.png","../images/org_blu.png","../images/grn_red.png"],"mutagen_generator_assignment":[0,1],"goal":4,"start":6,"action_noise":0.1,"location_history":"[6,5,4]","action_history":"[0,0]","mutagen_history":"[0,0]","location_rts":"[200,169]","trial_type":"fractal-mutation","trial_index":67,"time_elapsed":2915717,"internal_node_id":"0.0-5.0-13.0"},{"group":"square cycles (cube, non-group)","fractal_assignment":["../images/ylw_pnk.png","../images/gry_blk.png","../images/cyn_red.png","../images/ylw_slt.png","../images/pnk_blu.png","../images/blu_wht.png","../images/org_blu.png","../images/grn_red.png"],"mutagen_generator_assignment":[0,1],"goal":5,"start":4,"action_noise":0.1,"location_history":"[4,5]","action_history":"[1]","mutagen_history":"[1]","location_rts":"[64]","trial_type":"fractal-mutation","trial_index":68,"time_elapsed":2920333,"internal_node_id":"0.0-5.0-14.0"},{"group":"square cycles (cube, non-group)","fractal_assignment":["../images/ylw_pnk.png","../images/gry_blk.png","../images/cyn_red.png","../images/ylw_slt.png","../images/pnk_blu.png","../images/blu_wht.png","../images/org_blu.png","../images/grn_red.png"],"mutagen_generator_assignment":[0,1],"goal":4,"start":5,"action_noise":0.1,"location_history":"[5,4]","action_history":"[0]","mutagen_history":"[0]","location_rts":"[124]","trial_type":"fractal-mutation","trial_index":69,"time_elapsed":2924997,"internal_node_id":"0.0-5.0-15.0"},{"group":"square cycles (cube, non-group)","fractal_assignment":["../images/ylw_pnk.png","../images/gry_blk.png","../images/cyn_red.png","../images/ylw_slt.png","../images/pnk_blu.png","../images/blu_wht.png","../images/org_blu.png","../images/grn_red.png"],"mutagen_generator_assignment":[0,1],"goal":0,"start":4,"action_noise":0.1,"location_history":"[4,7,3,0]","action_history":"[0,1,0]","mutagen_history":"[0,1,0]","location_rts":"[50,19,347]","trial_type":"fractal-mutation","trial_index":70,"time_elapsed":2932039,"internal_node_id":"0.0-5.0-16.0"},{"group":"square cycles (cube, non-group)","fractal_assignment":["../images/ylw_pnk.png","../images/gry_blk.png","../images/cyn_red.png","../images/ylw_slt.png","../images/pnk_blu.png","../images/blu_wht.png","../images/org_blu.png","../images/grn_red.png"],"mutagen_generator_assignment":[0,1],"goal":7,"start":0,"action_noise":0.1,"location_history":"[0,1,2,6,5,4,5,1,2,6,7]","action_history":"[0,0,1,0,0,1,1,0,1,1]","mutagen_history":"[0,0,1,0,0,1,1,0,1,1]","location_rts":"[111,18,22,166,142,311,7,40,36,199]","trial_type":"fractal-mutation","trial_index":71,"time_elapsed":2947040,"internal_node_id":"0.0-5.0-17.0"},{"group":"square cycles (cube, non-group)","fractal_assignment":["../images/ylw_pnk.png","../images/gry_blk.png","../images/cyn_red.png","../images/ylw_slt.png","../images/pnk_blu.png","../images/blu_wht.png","../images/org_blu.png","../images/grn_red.png"],"mutagen_generator_assignment":[0,1],"goal":2,"start":7,"action_noise":0.1,"location_history":"[7,6,7,6,5,4,7,3,2]","action_history":"[0,1,0,0,1,0,1,1]","mutagen_history":"[0,1,0,0,1,0,1,1]","location_rts":"[103,102,106,20,132,42,17,143]","trial_type":"fractal-mutation","trial_index":72,"time_elapsed":2959537,"internal_node_id":"0.0-5.0-18.0"},{"group":"square cycles (cube, non-group)","fractal_assignment":["../images/ylw_pnk.png","../images/gry_blk.png","../images/cyn_red.png","../images/ylw_slt.png","../images/pnk_blu.png","../images/blu_wht.png","../images/org_blu.png","../images/grn_red.png"],"mutagen_generator_assignment":[0,1],"goal":1,"start":2,"action_noise":0.1,"location_history":"[2,6,7,3,2,3,0,4,5,4,5,4,7,6,5,4,7,3,2,3,2,6,7,6,5,4,5,4,7,6,7,3,2,6,7,6,7,3,2,6,7,3,2,6,7,3,2,3,2,6,5,4,7,6,5,4,7,6,7,3,2,6,7,3,2,6,7,3,2,3,0,1]","action_history":"[1,1,1,1,0,0,1,1,0,1,0,0,0,0,1,1,1,1,1,1,1,0,0,0,0,0,0,0,0,1,1,1,1,1,1,1,1,1,1,1,1,1,1,1,1,1,1,1,1,0,0,0,0,0,0,0,0,1,1,1,1,1,1,1,1,1,1,1,0,0,0]","mutagen_history":"[1,1,1,1,0,0,1,1,0,1,0,0,0,0,1,1,1,1,1,1,1,0,0,0,0,0,0,0,0,1,1,1,1,1,1,1,1,1,1,1,1,1,1,1,1,1,1,1,1,0,0,0,0,0,0,0,0,1,1,1,1,1,1,1,1,1,1,1,0,0,0]","location_rts":"[22,40,48,108,11,82,18,141,29,21,99,51,74,118,297,14,12,251,105,315,389,377,31,278,57,203,15,310,101,340,64,60,330,108,174,39,186,505,253,72,652,105,202,234,151,134,95,218,58,109,305,294,217,179,72,66,51,151,208,313,19,449,197,201,248,274,157,27,148,303,280]","trial_type":"fractal-mutation","trial_index":73,"time_elapsed":3048893,"internal_node_id":"0.0-5.0-19.0"},{"group":"square cycles (cube, non-group)","fractal_assignment":["../images/ylw_pnk.png","../images/gry_blk.png","../images/cyn_red.png","../images/ylw_slt.png","../images/pnk_blu.png","../images/blu_wht.png","../images/org_blu.png","../images/grn_red.png"],"mutagen_generator_assignment":[0,1],"goal":3,"start":1,"action_noise":0.1,"location_history":"[1,2,3]","action_history":"[0,0]","mutagen_history":"[0,0]","location_rts":"[361,20]","trial_type":"fractal-mutation","trial_index":74,"time_elapsed":3054850,"internal_node_id":"0.0-5.0-20.0"},{"group":"square cycles (cube, non-group)","fractal_assignment":["../images/ylw_pnk.png","../images/gry_blk.png","../images/cyn_red.png","../images/ylw_slt.png","../images/pnk_blu.png","../images/blu_wht.png","../images/org_blu.png","../images/grn_red.png"],"mutagen_generator_assignment":[0,1],"goal":6,"start":3,"action_noise":0.1,"location_history":"[3,2,6]","action_history":"[1,1]","mutagen_history":"[1,1]","location_rts":"[99,29]","trial_type":"fractal-mutation","trial_index":75,"time_elapsed":3060576,"internal_node_id":"0.0-5.0-21.0"},{"group":"square cycles (cube, non-group)","fractal_assignment":["../images/ylw_pnk.png","../images/gry_blk.png","../images/cyn_red.png","../images/ylw_slt.png","../images/pnk_blu.png","../images/blu_wht.png","../images/org_blu.png","../images/grn_red.png"],"mutagen_generator_assignment":[0,1],"goal":5,"start":6,"action_noise":0.1,"location_history":"[6,5]","action_history":"[1]","mutagen_history":"[1]","location_rts":"[135]","trial_type":"fractal-mutation","trial_index":76,"time_elapsed":3065258,"internal_node_id":"0.0-5.0-22.0"},{"group":"square cycles (cube, non-group)","fractal_assignment":["../images/ylw_pnk.png","../images/gry_blk.png","../images/cyn_red.png","../images/ylw_slt.png","../images/pnk_blu.png","../images/blu_wht.png","../images/org_blu.png","../images/grn_red.png"],"mutagen_generator_assignment":[0,1],"goal":3,"start":5,"action_noise":0.1,"location_history":"[5,1,0,4,7,6,5,4,5,1,0,1,0,4,5,1,2,3]","action_history":"[1,1,1,0,0,0,0,1,1,1,1,1,1,1,1,0,0]","mutagen_history":"[1,1,1,0,0,0,0,1,1,1,1,1,1,1,1,0,0]","location_rts":"[253,70,28,92,57,216,42,96,221,37,31,199,8,233,152,364,164]","trial_type":"fractal-mutation","trial_index":77,"time_elapsed":3088739,"internal_node_id":"0.0-5.0-23.0"},{"group":"square cycles (cube, non-group)","fractal_assignment":["../images/ylw_pnk.png","../images/gry_blk.png","../images/cyn_red.png","../images/ylw_slt.png","../images/pnk_blu.png","../images/blu_wht.png","../images/org_blu.png","../images/grn_red.png"],"mutagen_generator_assignment":[0,1],"goal":0,"start":3,"action_noise":0.1,"location_history":"[3,2,6,5,1,0]","action_history":"[1,1,1,1,1]","mutagen_history":"[1,1,1,1,1]","location_rts":"[288,14,476,59,220]","trial_type":"fractal-mutation","trial_index":78,"time_elapsed":3098526,"internal_node_id":"0.0-5.0-24.0"},{"group":"square cycles (cube, non-group)","fractal_assignment":["../images/ylw_pnk.png","../images/gry_blk.png","../images/cyn_red.png","../images/ylw_slt.png","../images/pnk_blu.png","../images/blu_wht.png","../images/org_blu.png","../images/grn_red.png"],"mutagen_generator_assignment":[0,1],"goal":7,"start":0,"action_noise":0.1,"location_history":"[0,4,7]","action_history":"[1,1]","mutagen_history":"[1,1]","location_rts":"[70,45]","trial_type":"fractal-mutation","trial_index":79,"time_elapsed":3104234,"internal_node_id":"0.0-5.0-25.0"},{"group":"square cycles (cube, non-group)","fractal_assignment":["../images/ylw_pnk.png","../images/gry_blk.png","../images/cyn_red.png","../images/ylw_slt.png","../images/pnk_blu.png","../images/blu_wht.png","../images/org_blu.png","../images/grn_red.png"],"mutagen_generator_assignment":[0,1],"goal":2,"start":7,"action_noise":0.1,"location_history":"[7,3,2]","action_history":"[1,1]","mutagen_history":"[1,1]","location_rts":"[57,128]","trial_type":"fractal-mutation","trial_index":80,"time_elapsed":3110018,"internal_node_id":"0.0-5.0-26.0"},{"group":"square cycles (cube, non-group)","fractal_assignment":["../images/ylw_pnk.png","../images/gry_blk.png","../images/cyn_red.png","../images/ylw_slt.png","../images/pnk_blu.png","../images/blu_wht.png","../images/org_blu.png","../images/grn_red.png"],"mutagen_generator_assignment":[0,1],"goal":1,"start":2,"action_noise":0.1,"location_history":"[2,6,5,1]","action_history":"[1,0,1]","mutagen_history":"[1,0,1]","location_rts":"[43,34,7]","trial_type":"fractal-mutation","trial_index":81,"time_elapsed":3116732,"internal_node_id":"0.0-5.0-27.0"},{"group":"square cycles (cube, non-group)","fractal_assignment":["../images/ylw_pnk.png","../images/gry_blk.png","../images/cyn_red.png","../images/ylw_slt.png","../images/pnk_blu.png","../images/blu_wht.png","../images/org_blu.png","../images/grn_red.png"],"mutagen_generator_assignment":[0,1],"goal":5,"start":1,"action_noise":0.1,"location_history":"[1,0,1,2,3,0,4,7,3,0,4,5]","action_history":"[1,0,0,0,0,1,0,1,0,1,1]","mutagen_history":"[1,0,0,0,0,1,0,1,0,1,1]","location_rts":"[90,27,49,10,133,103,25,177,121,148,137]","trial_type":"fractal-mutation","trial_index":82,"time_elapsed":3132702,"internal_node_id":"0.0-5.0-28.0"},{"group":"square cycles (cube, non-group)","fractal_assignment":["../images/ylw_pnk.png","../images/gry_blk.png","../images/cyn_red.png","../images/ylw_slt.png","../images/pnk_blu.png","../images/blu_wht.png","../images/org_blu.png","../images/grn_red.png"],"mutagen_generator_assignment":[0,1],"goal":4,"start":5,"action_noise":0.1,"location_history":"[5,1,2,6,5,1,2,3,0,1,2,3,0,1,2,3,2,6,7,3,2,6,5,1,0,4]","action_history":"[1,0,1,0,1,0,0,0,0,0,0,0,0,0,0,1,1,1,1,1,1,1,1,1,1]","mutagen_history":"[1,0,1,0,1,0,0,0,0,0,0,0,0,0,0,1,1,1,1,1,1,1,1,1,1]","location_rts":"[359,89,18,71,123,61,97,84,32,68,136,74,48,158,257,207,357,81,141,234,27,223,188,70,54]","trial_type":"fractal-mutation","trial_index":83,"time_elapsed":3165517,"internal_node_id":"0.0-5.0-29.0"},{"group":"square cycles (cube, non-group)","fractal_assignment":["../images/ylw_pnk.png","../images/gry_blk.png","../images/cyn_red.png","../images/ylw_slt.png","../images/pnk_blu.png","../images/blu_wht.png","../images/org_blu.png","../images/grn_red.png"],"mutagen_generator_assignment":[0,1],"goal":6,"start":4,"action_noise":0.1,"location_history":"[4,5,1,0,4,5,1,0,4,7,3,0,1,2,3,2,6]","action_history":"[1,1,1,1,0,1,1,1,0,0,0,0,0,0,1,0]","mutagen_history":"[1,1,1,1,0,1,1,1,0,0,0,0,0,0,1,0]","location_rts":"[407,166,266,123,108,166,104,91,63,168,17,59,180,55,160,62]","trial_type":"fractal-mutation","trial_index":84,"time_elapsed":3187856,"internal_node_id":"0.0-5.0-30.0"},{"group":"square cycles (cube, non-group)","fractal_assignment":["../images/ylw_pnk.png","../images/gry_blk.png","../images/cyn_red.png","../images/ylw_slt.png","../images/pnk_blu.png","../images/blu_wht.png","../images/org_blu.png","../images/grn_red.png"],"mutagen_generator_assignment":[0,1],"goal":4,"start":6,"action_noise":0.1,"location_history":"[6,5,4]","action_history":"[0,1]","mutagen_history":"[0,1]","location_rts":"[68,707]","trial_type":"fractal-mutation","trial_index":85,"time_elapsed":3194225,"internal_node_id":"0.0-5.0-31.0"},{"group":"square cycles (cube, non-group)","fractal_assignment":["../images/ylw_pnk.png","../images/gry_blk.png","../images/cyn_red.png","../images/ylw_slt.png","../images/pnk_blu.png","../images/blu_wht.png","../images/org_blu.png","../images/grn_red.png"],"mutagen_generator_assignment":[0,1],"goal":2,"start":4,"action_noise":0.1,"location_history":"[4,7,6,7,3,2]","action_history":"[0,1,0,1,1]","mutagen_history":"[0,1,0,1,1]","location_rts":"[51,108,649,1071,40]","trial_type":"fractal-mutation","trial_index":86,"time_elapsed":3204861,"internal_node_id":"0.0-5.0-32.0"},{"group":"square cycles (cube, non-group)","fractal_assignment":["../images/ylw_pnk.png","../images/gry_blk.png","../images/cyn_red.png","../images/ylw_slt.png","../images/pnk_blu.png","../images/blu_wht.png","../images/org_blu.png","../images/grn_red.png"],"mutagen_generator_assignment":[0,1],"goal":0,"start":2,"action_noise":0.1,"location_history":"[2,3,0]","action_history":"[0,0]","mutagen_history":"[0,0]","location_rts":"[215,133]","trial_type":"fractal-mutation","trial_index":87,"time_elapsed":3210786,"internal_node_id":"0.0-5.0-33.0"},{"group":"square cycles (cube, non-group)","fractal_assignment":["../images/ylw_pnk.png","../images/gry_blk.png","../images/cyn_red.png","../images/ylw_slt.png","../images/pnk_blu.png","../images/blu_wht.png","../images/org_blu.png","../images/grn_red.png"],"mutagen_generator_assignment":[0,1],"goal":5,"start":0,"action_noise":0.1,"location_history":"[0,1,0,4,7,3,2,6,7,3,2,6,7,3,0,1,2,3,0,1,2,6,5]","action_history":"[0,1,1,0,0,1,1,1,1,1,1,1,1,0,0,0,0,0,0,0,0,0]","mutagen_history":"[0,1,1,0,0,1,1,1,1,1,1,1,1,0,0,0,0,0,0,0,0,0]","location_rts":"[31949,20,173,20,38,18,170,161,22,693,64,118,186,482,197,84,849,581,85,112,739,517]","trial_type":"fractal-mutation","trial_index":88,"time_elapsed":3274815,"internal_node_id":"0.0-5.0-34.0"},{"group":"square cycles (cube, non-group)","fractal_assignment":["../images/ylw_pnk.png","../images/gry_blk.png","../images/cyn_red.png","../images/ylw_slt.png","../images/pnk_blu.png","../images/blu_wht.png","../images/org_blu.png","../images/grn_red.png"],"mutagen_generator_assignment":[0,1],"goal":1,"start":5,"action_noise":0.1,"location_history":"[5,4,5,1]","action_history":"[0,1,1]","mutagen_history":"[0,1,1]","location_rts":"[404,118,98]","trial_type":"fractal-mutation","trial_index":89,"time_elapsed":3282081,"internal_node_id":"0.0-5.0-35.0"},{"group":"square cycles (cube, non-group)","fractal_assignment":["../images/ylw_pnk.png","../images/gry_blk.png","../images/cyn_red.png","../images/ylw_slt.png","../images/pnk_blu.png","../images/blu_wht.png","../images/org_blu.png","../images/grn_red.png"],"mutagen_generator_assignment":[0,1],"goal":7,"start":1,"action_noise":0.1,"location_history":"[1,0,4,5,1,0,4,5,1,0,4,5,1,0,1,0,1,2,3,0,4,5,4,5,4,5,1,0,1,2,6,5,4,7]","action_history":"[1,1,1,1,1,1,1,1,1,0,0,1,1,0,1,0,0,0,0,1,1,0,1,0,1,1,1,0,0,0,0,0,0]","mutagen_history":"[1,1,1,1,1,1,1,1,1,0,0,1,1,0,1,0,0,0,0,1,1,0,1,0,1,1,1,0,0,0,0,0,0]","location_rts":"[161,1,90,141,175,28,190,204,84,218,83,10,247,160,132,301,248,17,85,17,17,53,404,39,281,232,331,224,42,167,216,83,866]","trial_type":"fractal-mutation","trial_index":90,"time_elapsed":3325448,"internal_node_id":"0.0-5.0-36.0"},{"group":"square cycles (cube, non-group)","fractal_assignment":["../images/ylw_pnk.png","../images/gry_blk.png","../images/cyn_red.png","../images/ylw_slt.png","../images/pnk_blu.png","../images/blu_wht.png","../images/org_blu.png","../images/grn_red.png"],"mutagen_generator_assignment":[0,1],"goal":3,"start":7,"action_noise":0.1,"location_history":"[7,6,5,1,0,1,0,4,5,1,2,3]","action_history":"[0,0,1,1,0,1,1,1,0,0,0]","mutagen_history":"[0,0,1,1,0,1,1,1,0,0,0]","location_rts":"[106,150,166,114,236,17,313,384,294,145,210]","trial_type":"fractal-mutation","trial_index":91,"time_elapsed":3342581,"internal_node_id":"0.0-5.0-37.0"},{"group":"square cycles (cube, non-group)","fractal_assignment":["../images/ylw_pnk.png","../images/gry_blk.png","../images/cyn_red.png","../images/ylw_slt.png","../images/pnk_blu.png","../images/blu_wht.png","../images/org_blu.png","../images/grn_red.png"],"mutagen_generator_assignment":[0,1],"goal":6,"start":3,"action_noise":0.1,"location_history":"[3,0,1,0,4,5,1,0,1,2,6]","action_history":"[0,0,0,1,1,1,1,0,1,1]","mutagen_history":"[0,0,0,1,1,1,1,0,1,1]","location_rts":"[237,259,99,99,33,116,46,43,116,154]","trial_type":"fractal-mutation","trial_index":92,"time_elapsed":3357820,"internal_node_id":"0.0-5.0-38.0"},{"group":"square cycles (cube, non-group)","fractal_assignment":["../images/ylw_pnk.png","../images/gry_blk.png","../images/cyn_red.png","../images/ylw_slt.png","../images/pnk_blu.png","../images/blu_wht.png","../images/org_blu.png","../images/grn_red.png"],"mutagen_generator_assignment":[0,1],"goal":2,"start":6,"action_noise":0.1,"location_history":"[6,7,6,5,4,5,4,5,4,7,6,7,3,2]","action_history":"[1,0,0,1,0,0,1,0,0,0,1,1,1]","mutagen_history":"[1,0,0,1,0,0,1,0,0,0,1,1,1]","location_rts":"[24,62,47,249,72,599,161,765,50,10,282,38,316]","trial_type":"fractal-mutation","trial_index":93,"time_elapsed":3377514,"internal_node_id":"0.0-5.0-39.0"},{"group":"square cycles (cube, non-group)","fractal_assignment":["../images/ylw_pnk.png","../images/gry_blk.png","../images/cyn_red.png","../images/ylw_slt.png","../images/pnk_blu.png","../images/blu_wht.png","../images/org_blu.png","../images/grn_red.png"],"mutagen_generator_assignment":[0,1],"goal":1,"start":2,"action_noise":0.1,"location_history":"[2,3,0,4,5,4,5,4,7,3,0,1]","action_history":"[0,0,0,1,0,1,0,0,1,1,1]","mutagen_history":"[0,0,0,1,0,1,0,0,1,1,1]","location_rts":"[233,87,67,71,140,135,155,376,18,267,112]","trial_type":"fractal-mutation","trial_index":94,"time_elapsed":3394101,"internal_node_id":"0.0-5.0-40.0"},{"group":"square cycles (cube, non-group)","fractal_assignment":["../images/ylw_pnk.png","../images/gry_blk.png","../images/cyn_red.png","../images/ylw_slt.png","../images/pnk_blu.png","../images/blu_wht.png","../images/org_blu.png","../images/grn_red.png"],"mutagen_generator_assignment":[0,1],"goal":0,"start":1,"action_noise":0.1,"location_history":"[1,0]","action_history":"[1]","mutagen_history":"[1]","location_rts":"[380]","trial_type":"fractal-mutation","trial_index":95,"time_elapsed":3399031,"internal_node_id":"0.0-5.0-41.0"},{"group":"square cycles (cube, non-group)","fractal_assignment":["../images/ylw_pnk.png","../images/gry_blk.png","../images/cyn_red.png","../images/ylw_slt.png","../images/pnk_blu.png","../images/blu_wht.png","../images/org_blu.png","../images/grn_red.png"],"mutagen_generator_assignment":[0,1],"goal":4,"start":0,"action_noise":0.1,"location_history":"[0,1,2,6,5,4]","action_history":"[0,0,1,0,0]","mutagen_history":"[0,0,1,0,0]","location_rts":"[29,25,104,75,346]","trial_type":"fractal-mutation","trial_index":96,"time_elapsed":3408290,"internal_node_id":"0.0-5.0-42.0"},{"group":"square cycles (cube, non-group)","fractal_assignment":["../images/ylw_pnk.png","../images/gry_blk.png","../images/cyn_red.png","../images/ylw_slt.png","../images/pnk_blu.png","../images/blu_wht.png","../images/org_blu.png","../images/grn_red.png"],"mutagen_generator_assignment":[0,1],"goal":6,"start":4,"action_noise":0.1,"location_history":"[4,5,4,5,4,7,6]","action_history":"[1,0,1,0,0,0]","mutagen_history":"[1,0,1,0,0,0]","location_rts":"[54,25,1,230,326,165]","trial_type":"fractal-mutation","trial_index":97,"time_elapsed":3418829,"internal_node_id":"0.0-5.0-43.0"},{"group":"square cycles (cube, non-group)","fractal_assignment":["../images/ylw_pnk.png","../images/gry_blk.png","../images/cyn_red.png","../images/ylw_slt.png","../images/pnk_blu.png","../images/blu_wht.png","../images/org_blu.png","../images/grn_red.png"],"mutagen_generator_assignment":[0,1],"goal":3,"start":6,"action_noise":0.1,"location_history":"[6,7,6,5,4,7,6,7,3]","action_history":"[1,0,0,0,0,0,1,1]","mutagen_history":"[1,0,0,0,0,0,1,1]","location_rts":"[133,90,232,37,1641,292,85,283]","trial_type":"fractal-mutation","trial_index":98,"time_elapsed":3433466,"internal_node_id":"0.0-5.0-44.0"},{"group":"square cycles (cube, non-group)","fractal_assignment":["../images/ylw_pnk.png","../images/gry_blk.png","../images/cyn_red.png","../images/ylw_slt.png","../images/pnk_blu.png","../images/blu_wht.png","../images/org_blu.png","../images/grn_red.png"],"mutagen_generator_assignment":[0,1],"goal":7,"start":3,"action_noise":0.1,"location_history":"[3,0,4,5,1,2,6,5,1,0,4,5,4,7]","action_history":"[0,1,1,1,0,1,1,1,1,1,1,0,0]","mutagen_history":"[0,1,1,1,0,1,1,1,1,1,1,0,0]","location_rts":"[728,12,289,190,215,209,207,255,461,555,442,109,154]","trial_type":"fractal-mutation","trial_index":99,"time_elapsed":3454335,"internal_node_id":"0.0-5.0-45.0"},{"group":"square cycles (cube, non-group)","fractal_assignment":["../images/ylw_pnk.png","../images/gry_blk.png","../images/cyn_red.png","../images/ylw_slt.png","../images/pnk_blu.png","../images/blu_wht.png","../images/org_blu.png","../images/grn_red.png"],"mutagen_generator_assignment":[0,1],"goal":5,"start":7,"action_noise":0.1,"location_history":"[7,6,5]","action_history":"[0,0]","mutagen_history":"[0,0]","location_rts":"[548,466]","trial_type":"fractal-mutation","trial_index":100,"time_elapsed":3460924,"internal_node_id":"0.0-5.0-46.0"},{"group":"square cycles (cube, non-group)","fractal_assignment":["../images/ylw_pnk.png","../images/gry_blk.png","../images/cyn_red.png","../images/ylw_slt.png","../images/pnk_blu.png","../images/blu_wht.png","../images/org_blu.png","../images/grn_red.png"],"mutagen_generator_assignment":[0,1],"goal":1,"start":5,"action_noise":0.1,"location_history":"[5,1]","action_history":"[1]","mutagen_history":"[1]","location_rts":"[629]","trial_type":"fractal-mutation","trial_index":101,"time_elapsed":3466101,"internal_node_id":"0.0-5.0-47.0"},{"group":"square cycles (cube, non-group)","fractal_assignment":["../images/ylw_pnk.png","../images/gry_blk.png","../images/cyn_red.png","../images/ylw_slt.png","../images/pnk_blu.png","../images/blu_wht.png","../images/org_blu.png","../images/grn_red.png"],"mutagen_generator_assignment":[0,1],"goal":6,"start":1,"action_noise":0.1,"location_history":"[1,0,1,0,4,5,1,0,4,7,3,2,6]","action_history":"[1,0,1,1,1,1,1,1,1,1,1,1]","mutagen_history":"[1,0,1,1,1,1,1,1,1,1,1,1]","location_rts":"[477,685,95,74,247,170,343,151,152,79,18,480]","trial_type":"fractal-mutation","trial_index":102,"time_elapsed":3485124,"internal_node_id":"0.0-5.0-48.0"},{"group":"square cycles (cube, non-group)","fractal_assignment":["../images/ylw_pnk.png","../images/gry_blk.png","../images/cyn_red.png","../images/ylw_slt.png","../images/pnk_blu.png","../images/blu_wht.png","../images/org_blu.png","../images/grn_red.png"],"mutagen_generator_assignment":[0,1],"goal":0,"start":6,"action_noise":0.1,"location_history":"[6,7,6,7,6,7,6,5,4,7,6,5,4,7,6,7,6,5,1,0]","action_history":"[1,0,1,0,1,0,0,0,0,0,0,0,0,0,0,0,0,1,1]","mutagen_history":"[1,0,1,0,1,0,0,0,0,0,0,0,0,0,0,0,0,1,1]","location_rts":"[125,241,69,25,91,30,207,243,99,11,113,327,114,168,199,88,346,29,380]","trial_type":"fractal-mutation","trial_index":103,"time_elapsed":3511223,"internal_node_id":"0.0-5.0-49.0"},{"view_history":"[{\"page_index\":0,\"viewing_time\":7433}]","rt":7433,"trial_type":"instructions","trial_index":104,"time_elapsed":3519656,"internal_node_id":"0.0-6.0"},{"rt":1961,"responses":"{\"Q0\":\"\"}","trial_type":"survey-text","trial_index":105,"time_elapsed":3522635,"internal_node_id":"0.0-7.0"}]