[{"view_history":"[{\"page_index\":0,\"viewing_time\":6870},{\"page_index\":1,\"viewing_time\":9721}]","rt":16591,"trial_type":"instructions","trial_index":0,"time_elapsed":16591,"internal_node_id":"0.0-0.0"},{"view_history":"[{\"page_index\":0,\"viewing_time\":6971},{\"page_index\":1,\"viewing_time\":5507}]","rt":12478,"trial_type":"instructions","trial_index":1,"time_elapsed":30070,"internal_node_id":"0.0-1.0"},{"group":"square cycles (cube, non-group)","room_assignment":["pink","blue","purple","brown","green","grey","red","yellow"],"door_color_assignment":["white","black"],"door_generator_assignment":[1,0],"goal":6,"start":3,"action_noise":0.1,"location_history":"[3,0,1,2,6]","action_history":"[0,0,1,1]","door_history":"[1,1,0,0]","location_rts":"[34248,1064,403,393]","trial_type":"two-door-navigation","trial_index":2,"time_elapsed":73696,"internal_node_id":"0.0-2.0-0.0"},{"group":"square cycles (cube, non-group)","room_assignment":["pink","blue","purple","brown","green","grey","red","yellow"],"door_color_assignment":["white","black"],"door_generator_assignment":[1,0],"goal":1,"start":6,"action_noise":0.1,"location_history":"[6,5,1]","action_history":"[0,0]","door_history":"[1,1]","location_rts":"[1571,972]","trial_type":"two-door-navigation","trial_index":3,"time_elapsed":81744,"internal_node_id":"0.0-2.0-1.0"},{"group":"square cycles (cube, non-group)","room_assignment":["pink","blue","purple","brown","green","grey","red","yellow"],"door_color_assignment":["white","black"],"door_generator_assignment":[1,0],"goal":2,"start":1,"action_noise":0.1,"location_history":"[1,0,4,5,4,7,6,5,4,7,6,7,3,2]","action_history":"[1,1,1,0,0,0,0,0,0,1,1,1,0]","door_history":"[0,0,0,1,1,1,1,1,1,0,0,0,1]","location_rts":"[1575,643,431,685,391,338,355,393,322,419,336,425,322]","trial_type":"two-door-navigation","trial_index":4,"time_elapsed":104925,"internal_node_id":"0.0-2.0-2.0"},{"group":"square cycles (cube, non-group)","room_assignment":["pink","blue","purple","brown","green","grey","red","yellow"],"door_color_assignment":["white","black"],"door_generator_assignment":[1,0],"goal":0,"start":2,"action_noise":0.1,"location_history":"[2,6,5,1,0]","action_history":"[1,1,1,1]","door_history":"[0,0,0,0]","location_rts":"[1894,358,368,378]","trial_type":"two-door-navigation","trial_index":5,"time_elapsed":115434,"internal_node_id":"0.0-2.0-3.0"},{"group":"square cycles (cube, non-group)","room_assignment":["pink","blue","purple","brown","green","grey","red","yellow"],"door_color_assignment":["white","black"],"door_generator_assignment":[1,0],"goal":7,"start":0,"action_noise":0.1,"location_history":"[0,1,2,6,7]","action_history":"[0,0,1,1]","door_history":"[1,1,0,0]","location_rts":"[2137,396,371,361]","trial_type":"two-door-navigation","trial_index":6,"time_elapsed":126208,"internal_node_id":"0.0-2.0-4.0"},{"group":"square cycles (cube, non-group)","room_assignment":["pink","blue","purple","brown","green","grey","red","yellow"],"door_color_assignment":["white","black"],"door_generator_assignment":[1,0],"goal":5,"start":7,"action_noise":0.1,"location_history":"[7,6,5]","action_history":"[0,0]","door_history":"[1,1]","location_rts":"[1319,419]","trial_type":"two-door-navigation","trial_index":7,"time_elapsed":133452,"internal_node_id":"0.0-2.0-5.0"},{"group":"square cycles (cube, non-group)","room_assignment":["pink","blue","purple","brown","green","grey","red","yellow"],"door_color_assignment":["white","black"],"door_generator_assignment":[1,0],"goal":4,"start":5,"action_noise":0.1,"location_history":"[5,1,0,4]","action_history":"[1,1,1]","door_history":"[0,0,0]","location_rts":"[2032,394,442]","trial_type":"two-door-navigation","trial_index":8,"time_elapsed":142828,"internal_node_id":"0.0-2.0-6.0"},{"group":"square cycles (cube, non-group)","room_assignment":["pink","blue","purple","brown","green","grey","red","yellow"],"door_color_assignment":["white","black"],"door_generator_assignment":[1,0],"goal":2,"start":4,"action_noise":0.1,"location_history":"[4,7,6,5,4,5,1,0,4,5,1,0,4,7,6,5,4,7,6,5,1,0,4,5,4,7,6,5,4,5,4,5,1,0,1,2]","action_history":"[0,0,0,0,1,1,1,1,1,1,1,1,0,0,0,0,0,1,0,1,1,1,1,0,0,0,0,0,1,1,1,1,1,0,0]","door_history":"[1,1,1,1,0,0,0,0,0,0,0,0,1,1,1,1,1,0,1,0,0,0,0,1,1,1,1,1,0,0,0,0,0,1,1]","location_rts":"[1764,344,409,403,439,442,400,373,409,484,386,345,544,573,313,313,312,689,473,407,299,270,355,550,440,452,431,551,391,564,572,510,287,346,355]","trial_type":"two-door-navigation","trial_index":9,"time_elapsed":197628,"internal_node_id":"0.0-2.0-7.0"},{"group":"square cycles (cube, non-group)","room_assignment":["pink","blue","purple","brown","green","grey","red","yellow"],"door_color_assignment":["white","black"],"door_generator_assignment":[1,0],"goal":3,"start":2,"action_noise":0.1,"location_history":"[2,6,7,6,5,4,7,6,5,4,5,4,7,3]","action_history":"[1,1,0,0,0,0,0,0,0,0,0,1,1]","door_history":"[0,0,1,1,1,1,1,1,1,1,1,0,0]","location_rts":"[1458,320,343,287,364,285,423,407,94,314,275,27,295]","trial_type":"two-door-navigation","trial_index":10,"time_elapsed":219059,"internal_node_id":"0.0-2.0-8.0"},{"group":"square cycles (cube, non-group)","room_assignment":["pink","blue","purple","brown","green","grey","red","yellow"],"door_color_assignment":["white","black"],"door_generator_assignment":[1,0],"goal":7,"start":3,"action_noise":0.1,"location_history":"[3,0,4,7]","action_history":"[1,1,1]","door_history":"[0,0,0]","location_rts":"[1303,365,363]","trial_type":"two-door-navigation","trial_index":11,"time_elapsed":227600,"internal_node_id":"0.0-2.0-9.0"},{"group":"square cycles (cube, non-group)","room_assignment":["pink","blue","purple","brown","green","grey","red","yellow"],"door_color_assignment":["white","black"],"door_generator_assignment":[1,0],"goal":0,"start":7,"action_noise":0.1,"location_history":"[7,3,2,3,2,6,5,4,7,3,0]","action_history":"[1,1,1,1,0,0,0,0,1,0]","door_history":"[0,0,0,0,1,1,1,1,0,1]","location_rts":"[998,348,434,378,860,418,388,1464,1089,377]","trial_type":"two-door-navigation","trial_index":12,"time_elapsed":247877,"internal_node_id":"0.0-2.0-10.0"},{"group":"square cycles (cube, non-group)","room_assignment":["pink","blue","purple","brown","green","grey","red","yellow"],"door_color_assignment":["white","black"],"door_generator_assignment":[1,0],"goal":1,"start":0,"action_noise":0.1,"location_history":"[0,4,7,6,5,1]","action_history":"[0,0,0,0,1]","door_history":"[1,1,1,1,0]","location_rts":"[2558,377,325,358,389]","trial_type":"two-door-navigation","trial_index":13,"time_elapsed":260403,"internal_node_id":"0.0-2.0-11.0"},{"group":"square cycles (cube, non-group)","room_assignment":["pink","blue","purple","brown","green","grey","red","yellow"],"door_color_assignment":["white","black"],"door_generator_assignment":[1,0],"goal":6,"start":1,"action_noise":0.1,"location_history":"[1,0,4,5,4,7,6]","action_history":"[1,1,1,0,0,0]","door_history":"[0,0,0,1,1,1]","location_rts":"[1369,369,425,314,379,448]","trial_type":"two-door-navigation","trial_index":14,"time_elapsed":273229,"internal_node_id":"0.0-2.0-12.0"},{"group":"square cycles (cube, non-group)","room_assignment":["pink","blue","purple","brown","green","grey","red","yellow"],"door_color_assignment":["white","black"],"door_generator_assignment":[1,0],"goal":4,"start":6,"action_noise":0.1,"location_history":"[6,5,4]","action_history":"[0,0]","door_history":"[1,1]","location_rts":"[8944,417]","trial_type":"two-door-navigation","trial_index":15,"time_elapsed":288100,"internal_node_id":"0.0-2.0-13.0"},{"group":"square cycles (cube, non-group)","room_assignment":["pink","blue","purple","brown","green","grey","red","yellow"],"door_color_assignment":["white","black"],"door_generator_assignment":[1,0],"goal":5,"start":4,"action_noise":0.1,"location_history":"[4,7,6,5]","action_history":"[0,0,0]","door_history":"[1,1,1]","location_rts":"[1765,423,383]","trial_type":"two-door-navigation","trial_index":16,"time_elapsed":297183,"internal_node_id":"0.0-2.0-14.0"},{"group":"square cycles (cube, non-group)","room_assignment":["pink","blue","purple","brown","green","grey","red","yellow"],"door_color_assignment":["white","black"],"door_generator_assignment":[1,0],"goal":4,"start":5,"action_noise":0.1,"location_history":"[5,4]","action_history":"[0]","door_history":"[1]","location_rts":"[1529]","trial_type":"two-door-navigation","trial_index":17,"time_elapsed":303215,"internal_node_id":"0.0-2.0-15.0"},{"group":"square cycles (cube, non-group)","room_assignment":["pink","blue","purple","brown","green","grey","red","yellow"],"door_color_assignment":["white","black"],"door_generator_assignment":[1,0],"goal":0,"start":4,"action_noise":0.1,"location_history":"[4,5,1,0]","action_history":"[1,1,1]","door_history":"[0,0,0]","location_rts":"[1425,427,374]","trial_type":"two-door-navigation","trial_index":18,"time_elapsed":311961,"internal_node_id":"0.0-2.0-16.0"},{"group":"square cycles (cube, non-group)","room_assignment":["pink","blue","purple","brown","green","grey","red","yellow"],"door_color_assignment":["white","black"],"door_generator_assignment":[1,0],"goal":7,"start":0,"action_noise":0.1,"location_history":"[0,4,5,1,0,4,7]","action_history":"[1,1,1,1,1,0]","door_history":"[0,0,0,0,0,1]","location_rts":"[2043,1139,758,4190,771,419]","trial_type":"two-door-navigation","trial_index":19,"time_elapsed":330803,"internal_node_id":"0.0-2.0-17.0"},{"group":"square cycles (cube, non-group)","room_assignment":["pink","blue","purple","brown","green","grey","red","yellow"],"door_color_assignment":["white","black"],"door_generator_assignment":[1,0],"goal":2,"start":7,"action_noise":0.1,"location_history":"[7,6,5,4,7,6,5,4,7,6,5,1,0,4,5,4,5,4,7,6,5,4,7,6,7,3,2]","action_history":"[0,0,0,0,0,0,0,0,0,0,1,1,1,1,1,0,0,0,0,0,0,0,0,1,1,1]","door_history":"[1,1,1,1,1,1,1,1,1,1,0,0,0,0,0,1,1,1,1,1,1,1,1,0,0,0]","location_rts":"[1805,419,405,1214,509,422,404,404,408,349,309,307,353,261,1001,765,441,341,377,381,301,245,251,1077,356,384]","trial_type":"two-door-navigation","trial_index":20,"time_elapsed":373886,"internal_node_id":"0.0-2.0-18.0"},{"group":"square cycles (cube, non-group)","room_assignment":["pink","blue","purple","brown","green","grey","red","yellow"],"door_color_assignment":["white","black"],"door_generator_assignment":[1,0],"goal":1,"start":2,"action_noise":0.1,"location_history":"[2,3,0,1]","action_history":"[0,0,0]","door_history":"[1,1,1]","location_rts":"[34596,876,412]","trial_type":"two-door-navigation","trial_index":21,"time_elapsed":416278,"internal_node_id":"0.0-2.0-19.0"},{"group":"square cycles (cube, non-group)","room_assignment":["pink","blue","purple","brown","green","grey","red","yellow"],"door_color_assignment":["white","black"],"door_generator_assignment":[1,0],"goal":3,"start":1,"action_noise":0.1,"location_history":"[1,2,6,7,6,5,4,7,3]","action_history":"[0,1,1,0,0,1,0,1]","door_history":"[1,0,0,1,1,0,1,0]","location_rts":"[12646,617,486,355,393,690,408,441]","trial_type":"two-door-navigation","trial_index":22,"time_elapsed":443843,"internal_node_id":"0.0-2.0-20.0"},{"group":"square cycles (cube, non-group)","room_assignment":["pink","blue","purple","brown","green","grey","red","yellow"],"door_color_assignment":["white","black"],"door_generator_assignment":[1,0],"goal":6,"start":3,"action_noise":0.1,"location_history":"[3,2,6]","action_history":"[1,1]","door_history":"[0,0]","location_rts":"[1361,403]","trial_type":"two-door-navigation","trial_index":23,"time_elapsed":451111,"internal_node_id":"0.0-2.0-21.0"},{"group":"square cycles (cube, non-group)","room_assignment":["pink","blue","purple","brown","green","grey","red","yellow"],"door_color_assignment":["white","black"],"door_generator_assignment":[1,0],"goal":5,"start":6,"action_noise":0.1,"location_history":"[6,5]","action_history":"[0]","door_history":"[1]","location_rts":"[1529]","trial_type":"two-door-navigation","trial_index":24,"time_elapsed":457143,"internal_node_id":"0.0-2.0-22.0"},{"group":"square cycles (cube, non-group)","room_assignment":["pink","blue","purple","brown","green","grey","red","yellow"],"door_color_assignment":["white","black"],"door_generator_assignment":[1,0],"goal":3,"start":5,"action_noise":0.1,"location_history":"[5,4,7,6,7,3]","action_history":"[0,0,0,1,1]","door_history":"[1,1,1,0,0]","location_rts":"[1107,342,385,370,394]","trial_type":"two-door-navigation","trial_index":25,"time_elapsed":468255,"internal_node_id":"0.0-2.0-23.0"},{"group":"square cycles (cube, non-group)","room_assignment":["pink","blue","purple","brown","green","grey","red","yellow"],"door_color_assignment":["white","black"],"door_generator_assignment":[1,0],"goal":0,"start":3,"action_noise":0.1,"location_history":"[3,2,6,7,6,5,4,7,6,7,3,2,6,7,6,5,1,0]","action_history":"[1,1,1,0,0,0,0,0,1,1,1,1,1,0,0,1,1]","door_history":"[0,0,0,1,1,1,1,1,0,0,0,0,0,1,1,0,0]","location_rts":"[1482,394,546,379,360,339,339,324,1067,378,295,394,387,362,384,938,382]","trial_type":"two-door-navigation","trial_index":26,"time_elapsed":497558,"internal_node_id":"0.0-2.0-24.0"},{"group":"square cycles (cube, non-group)","room_assignment":["pink","blue","purple","brown","green","grey","red","yellow"],"door_color_assignment":["white","black"],"door_generator_assignment":[1,0],"goal":7,"start":0,"action_noise":0.1,"location_history":"[0,4,7]","action_history":"[1,0]","door_history":"[0,1]","location_rts":"[1492,1519]","trial_type":"two-door-navigation","trial_index":27,"time_elapsed":506077,"internal_node_id":"0.0-2.0-25.0"},{"group":"square cycles (cube, non-group)","room_assignment":["pink","blue","purple","brown","green","grey","red","yellow"],"door_color_assignment":["white","black"],"door_generator_assignment":[1,0],"goal":2,"start":7,"action_noise":0.1,"location_history":"[7,6,7,3,0,1,2]","action_history":"[0,1,1,0,0,0]","door_history":"[1,0,0,1,1,1]","location_rts":"[1588,2120,478,1231,549,944]","trial_type":"two-door-navigation","trial_index":28,"time_elapsed":522505,"internal_node_id":"0.0-2.0-26.0"},{"group":"square cycles (cube, non-group)","room_assignment":["pink","blue","purple","brown","green","grey","red","yellow"],"door_color_assignment":["white","black"],"door_generator_assignment":[1,0],"goal":1,"start":2,"action_noise":0.1,"location_history":"[2,6,7,6,7,6,5,4,7,6,5,1]","action_history":"[1,1,1,1,1,0,0,0,0,0,1]","door_history":"[0,0,0,0,0,1,1,1,1,1,0]","location_rts":"[2962,924,775,1941,798,722,659,356,407,947,851]","trial_type":"two-door-navigation","trial_index":29,"time_elapsed":548381,"internal_node_id":"0.0-2.0-27.0"},{"group":"square cycles (cube, non-group)","room_assignment":["pink","blue","purple","brown","green","grey","red","yellow"],"door_color_assignment":["white","black"],"door_generator_assignment":[1,0],"goal":5,"start":1,"action_noise":0.1,"location_history":"[1,2,6,7,6,7,3,0,1,2,6,7,6,5]","action_history":"[0,1,1,1,1,1,0,0,0,1,1,0,0]","door_history":"[1,0,0,0,0,0,1,1,1,0,0,1,1]","location_rts":"[1833,1110,447,450,728,557,1251,581,423,786,1724,950,1000]","trial_type":"two-door-navigation","trial_index":30,"time_elapsed":576772,"internal_node_id":"0.0-2.0-28.0"},{"group":"square cycles (cube, non-group)","room_assignment":["pink","blue","purple","brown","green","grey","red","yellow"],"door_color_assignment":["white","black"],"door_generator_assignment":[1,0],"goal":4,"start":5,"action_noise":0.1,"location_history":"[5,1,2,3,2,6,5,4]","action_history":"[1,0,0,1,1,0,0]","door_history":"[0,1,1,0,0,1,1]","location_rts":"[2155,1774,1384,914,1194,1476,604]","trial_type":"two-door-navigation","trial_index":31,"time_elapsed":596801,"internal_node_id":"0.0-2.0-29.0"},{"group":"square cycles (cube, non-group)","room_assignment":["pink","blue","purple","brown","green","grey","red","yellow"],"door_color_assignment":["white","black"],"door_generator_assignment":[1,0],"goal":6,"start":4,"action_noise":0.1,"location_history":"[4,5,1,2,6]","action_history":"[0,1,1,1]","door_history":"[1,0,0,0]","location_rts":"[1311,976,755,688]","trial_type":"two-door-navigation","trial_index":32,"time_elapsed":608042,"internal_node_id":"0.0-2.0-30.0"},{"group":"square cycles (cube, non-group)","room_assignment":["pink","blue","purple","brown","green","grey","red","yellow"],"door_color_assignment":["white","black"],"door_generator_assignment":[1,0],"goal":4,"start":6,"action_noise":0.1,"location_history":"[6,7,6,5,4]","action_history":"[1,0,0,0]","door_history":"[0,1,1,1]","location_rts":"[1458,886,400,418]","trial_type":"two-door-navigation","trial_index":33,"time_elapsed":618715,"internal_node_id":"0.0-2.0-31.0"},{"group":"square cycles (cube, non-group)","room_assignment":["pink","blue","purple","brown","green","grey","red","yellow"],"door_color_assignment":["white","black"],"door_generator_assignment":[1,0],"goal":2,"start":4,"action_noise":0.1,"location_history":"[4,7,3,0,4,7,6,5,1,2]","action_history":"[0,1,1,1,0,0,0,1,1]","door_history":"[1,0,0,0,1,1,1,0,0]","location_rts":"[1519,1226,1200,879,1697,504,499,1744,657]","trial_type":"two-door-navigation","trial_index":34,"time_elapsed":641175,"internal_node_id":"0.0-2.0-32.0"},{"group":"square cycles (cube, non-group)","room_assignment":["pink","blue","purple","brown","green","grey","red","yellow"],"door_color_assignment":["white","black"],"door_generator_assignment":[1,0],"goal":0,"start":2,"action_noise":0.1,"location_history":"[2,6,7,3,2,6,5,4,7,6,5,1,0]","action_history":"[1,1,1,1,1,0,0,0,0,0,1,1]","door_history":"[0,0,0,0,0,1,1,1,1,1,0,0]","location_rts":"[849,830,415,605,984,1493,611,380,386,383,456,385]","trial_type":"two-door-navigation","trial_index":35,"time_elapsed":664498,"internal_node_id":"0.0-2.0-33.0"},{"group":"square cycles (cube, non-group)","room_assignment":["pink","blue","purple","brown","green","grey","red","yellow"],"door_color_assignment":["white","black"],"door_generator_assignment":[1,0],"goal":5,"start":0,"action_noise":0.1,"location_history":"[0,1,2,3,0,1,0,1,0,4,5]","action_history":"[0,0,1,0,0,0,1,1,1,1]","door_history":"[1,1,0,1,1,1,0,0,0,0]","location_rts":"[1888,486,947,1043,462,837,872,361,380,387]","trial_type":"two-door-navigation","trial_index":36,"time_elapsed":685691,"internal_node_id":"0.0-2.0-34.0"},{"group":"square cycles (cube, non-group)","room_assignment":["pink","blue","purple","brown","green","grey","red","yellow"],"door_color_assignment":["white","black"],"door_generator_assignment":[1,0],"goal":1,"start":5,"action_noise":0.1,"location_history":"[5,1]","action_history":"[0]","door_history":"[1]","location_rts":"[3048]","trial_type":"two-door-navigation","trial_index":37,"time_elapsed":693243,"internal_node_id":"0.0-2.0-35.0"},{"group":"square cycles (cube, non-group)","room_assignment":["pink","blue","purple","brown","green","grey","red","yellow"],"door_color_assignment":["white","black"],"door_generator_assignment":[1,0],"goal":7,"start":1,"action_noise":0.1,"location_history":"[1,0,4,5,1,0,1,0,1,0,1,2,6,7]","action_history":"[1,1,1,1,1,0,1,0,1,0,0,1,0]","door_history":"[0,0,0,0,0,1,0,1,0,1,1,0,1]","location_rts":"[3427,973,1689,1570,755,1138,1757,868,779,816,2141,840,3041]","trial_type":"two-door-navigation","trial_index":38,"time_elapsed":729570,"internal_node_id":"0.0-2.0-36.0"},{"group":"square cycles (cube, non-group)","room_assignment":["pink","blue","purple","brown","green","grey","red","yellow"],"door_color_assignment":["white","black"],"door_generator_assignment":[1,0],"goal":3,"start":7,"action_noise":0.1,"location_history":"[7,3]","action_history":"[0]","door_history":"[1]","location_rts":"[1292]","trial_type":"two-door-navigation","trial_index":39,"time_elapsed":735367,"internal_node_id":"0.0-2.0-37.0"},{"group":"square cycles (cube, non-group)","room_assignment":["pink","blue","purple","brown","green","grey","red","yellow"],"door_color_assignment":["white","black"],"door_generator_assignment":[1,0],"goal":6,"start":3,"action_noise":0.1,"location_history":"[3,2,6]","action_history":"[1,1]","door_history":"[0,0]","location_rts":"[3390,1733]","trial_type":"two-door-navigation","trial_index":40,"time_elapsed":745998,"internal_node_id":"0.0-2.0-38.0"},{"group":"square cycles (cube, non-group)","room_assignment":["pink","blue","purple","brown","green","grey","red","yellow"],"door_color_assignment":["white","black"],"door_generator_assignment":[1,0],"goal":2,"start":6,"action_noise":0.1,"location_history":"[6,7,6,7,3,0,4,5,4,7,6,5,1,2]","action_history":"[1,0,1,0,0,1,1,0,0,0,0,1,1]","door_history":"[0,1,0,1,1,0,0,1,1,1,1,0,0]","location_rts":"[1410,1588,2232,344,350,948,1059,1044,565,440,757,1377,954]","trial_type":"two-door-navigation","trial_index":41,"time_elapsed":775618,"internal_node_id":"0.0-2.0-39.0"},{"group":"square cycles (cube, non-group)","room_assignment":["pink","blue","purple","brown","green","grey","red","yellow"],"door_color_assignment":["white","black"],"door_generator_assignment":[1,0],"goal":1,"start":2,"action_noise":0.1,"location_history":"[2,3,0,4,5,4,5,4,7,3,0,4,5,1]","action_history":"[0,0,1,1,0,0,0,0,1,1,1,1,0]","door_history":"[1,1,0,0,1,1,1,1,0,0,0,0,1]","location_rts":"[1878,1519,1070,1322,1010,411,487,386,1163,383,464,834,1184]","trial_type":"two-door-navigation","trial_index":42,"time_elapsed":804269,"internal_node_id":"0.0-2.0-40.0"},{"group":"square cycles (cube, non-group)","room_assignment":["pink","blue","purple","brown","green","grey","red","yellow"],"door_color_assignment":["white","black"],"door_generator_assignment":[1,0],"goal":0,"start":1,"action_noise":0.1,"location_history":"[1,0]","action_history":"[1]","door_history":"[0]","location_rts":"[1869]","trial_type":"two-door-navigation","trial_index":43,"time_elapsed":810642,"internal_node_id":"0.0-2.0-41.0"},{"group":"square cycles (cube, non-group)","room_assignment":["pink","blue","purple","brown","green","grey","red","yellow"],"door_color_assignment":["white","black"],"door_generator_assignment":[1,0],"goal":4,"start":0,"action_noise":0.1,"location_history":"[0,1,2,6,5,4]","action_history":"[0,1,1,0,0]","door_history":"[1,0,0,1,1]","location_rts":"[1163,2039,1616,640,412]","trial_type":"two-door-navigation","trial_index":44,"time_elapsed":825026,"internal_node_id":"0.0-2.0-42.0"},{"group":"square cycles (cube, non-group)","room_assignment":["pink","blue","purple","brown","green","grey","red","yellow"],"door_color_assignment":["white","black"],"door_generator_assignment":[1,0],"goal":6,"start":4,"action_noise":0.1,"location_history":"[4,5,4,7,3,2,6]","action_history":"[1,0,0,1,1,1]","door_history":"[0,1,1,0,0,0]","location_rts":"[1669,2376,1535,987,520,448]","trial_type":"two-door-navigation","trial_index":45,"time_elapsed":842071,"internal_node_id":"0.0-2.0-43.0"},{"group":"square cycles (cube, non-group)","room_assignment":["pink","blue","purple","brown","green","grey","red","yellow"],"door_color_assignment":["white","black"],"door_generator_assignment":[1,0],"goal":3,"start":6,"action_noise":0.1,"location_history":"[6,5,4,5,1,2,6,5,1,0,1,2,3]","action_history":"[0,0,1,1,1,1,1,1,0,0,0,0]","door_history":"[1,1,0,0,0,0,0,0,1,1,1,1]","location_rts":"[1355,361,1042,617,350,460,435,366,1539,417,314,314]","trial_type":"two-door-navigation","trial_index":46,"time_elapsed":865180,"internal_node_id":"0.0-2.0-44.0"},{"group":"square cycles (cube, non-group)","room_assignment":["pink","blue","purple","brown","green","grey","red","yellow"],"door_color_assignment":["white","black"],"door_generator_assignment":[1,0],"goal":7,"start":3,"action_noise":0.1,"location_history":"[3,2,6,7]","action_history":"[1,1,1]","door_history":"[0,0,0]","location_rts":"[1276,412,462]","trial_type":"two-door-navigation","trial_index":47,"time_elapsed":873837,"internal_node_id":"0.0-2.0-45.0"},{"group":"square cycles (cube, non-group)","room_assignment":["pink","blue","purple","brown","green","grey","red","yellow"],"door_color_assignment":["white","black"],"door_generator_assignment":[1,0],"goal":5,"start":7,"action_noise":0.1,"location_history":"[7,3,0,1,0,4,5]","action_history":"[0,0,0,1,1,1]","door_history":"[1,1,1,0,0,0]","location_rts":"[1463,563,441,323,405,682]","trial_type":"two-door-navigation","trial_index":48,"time_elapsed":887238,"internal_node_id":"0.0-2.0-46.0"},{"group":"square cycles (cube, non-group)","room_assignment":["pink","blue","purple","brown","green","grey","red","yellow"],"door_color_assignment":["white","black"],"door_generator_assignment":[1,0],"goal":1,"start":5,"action_noise":0.1,"location_history":"[5,4,5,1]","action_history":"[0,1,1]","door_history":"[1,0,0]","location_rts":"[1159,1119,462]","trial_type":"two-door-navigation","trial_index":49,"time_elapsed":896487,"internal_node_id":"0.0-2.0-47.0"},{"group":"square cycles (cube, non-group)","room_assignment":["pink","blue","purple","brown","green","grey","red","yellow"],"door_color_assignment":["white","black"],"door_generator_assignment":[1,0],"goal":6,"start":1,"action_noise":0.1,"location_history":"[1,0,1,0,1,2,3,0,1,2,6]","action_history":"[1,1,1,0,0,0,0,0,0,1]","door_history":"[0,0,0,1,1,1,1,1,1,0]","location_rts":"[1606,405,314,694,422,696,466,527,896,343]","trial_type":"two-door-navigation","trial_index":50,"time_elapsed":916392,"internal_node_id":"0.0-2.0-48.0"},{"group":"square cycles (cube, non-group)","room_assignment":["pink","blue","purple","brown","green","grey","red","yellow"],"door_color_assignment":["white","black"],"door_generator_assignment":[1,0],"goal":0,"start":6,"action_noise":0.1,"location_history":"[6,7,3,2,6,5,4,5,1,0]","action_history":"[1,1,1,1,0,0,1,1,1]","door_history":"[0,0,0,0,1,1,0,0,0]","location_rts":"[1063,746,1291,721,1635,855,812,411,625]","trial_type":"two-door-navigation","trial_index":51,"time_elapsed":937072,"internal_node_id":"0.0-2.0-49.0"},{"view_history":"[{\"page_index\":0,\"viewing_time\":3193}]","rt":3193,"trial_type":"instructions","trial_index":52,"time_elapsed":941264,"internal_node_id":"0.0-3.0"},{"view_history":"[{\"page_index\":0,\"viewing_time\":1787},{\"page_index\":1,\"viewing_time\":2177}]","rt":3964,"trial_type":"instructions","trial_index":53,"time_elapsed":946227,"internal_node_id":"0.0-4.0"},{"group":"tri cycles (cube, non-group)","fractal_assignment":["../images/grn_red.png","../images/pnk_blu.png","../images/gry_blk.png","../images/ylw_pnk.png","../images/ylw_slt.png","../images/cyn_red.png","../images/blu_wht.png","../images/org_blu.png"],"mutagen_generator_assignment":[0,1],"goal":6,"start":3,"action_noise":0.1,"location_history":"[3,7,3,7,6]","action_history":"[1,1,0,0]","mutagen_history":"[1,1,0,0]","location_rts":"[6348,500,805,436]","trial_type":"fractal-mutation","trial_index":54,"time_elapsed":962028,"internal_node_id":"0.0-5.0-0.0"},{"group":"tri cycles (cube, non-group)","fractal_assignment":["../images/grn_red.png","../images/pnk_blu.png","../images/gry_blk.png","../images/ylw_pnk.png","../images/ylw_slt.png","../images/cyn_red.png","../images/blu_wht.png","../images/org_blu.png"],"mutagen_generator_assignment":[0,1],"goal":1,"start":6,"action_noise":0.1,"location_history":"[6,5,2,6,5,1]","action_history":"[1,1,1,1,0]","mutagen_history":"[1,1,1,1,0]","location_rts":"[1718,406,496,534,768]","trial_type":"fractal-mutation","trial_index":55,"time_elapsed":974753,"internal_node_id":"0.0-5.0-1.0"},{"group":"tri cycles (cube, non-group)","fractal_assignment":["../images/grn_red.png","../images/pnk_blu.png","../images/gry_blk.png","../images/ylw_pnk.png","../images/ylw_slt.png","../images/cyn_red.png","../images/blu_wht.png","../images/org_blu.png"],"mutagen_generator_assignment":[0,1],"goal":2,"start":1,"action_noise":0.1,"location_history":"[1,5,1,5,2]","action_history":"[1,1,1,1]","mutagen_history":"[1,1,1,1]","location_rts":"[1324,468,444,495]","trial_type":"fractal-mutation","trial_index":56,"time_elapsed":985251,"internal_node_id":"0.0-5.0-2.0"},{"group":"tri cycles (cube, non-group)","fractal_assignment":["../images/grn_red.png","../images/pnk_blu.png","../images/gry_blk.png","../images/ylw_pnk.png","../images/ylw_slt.png","../images/cyn_red.png","../images/blu_wht.png","../images/org_blu.png"],"mutagen_generator_assignment":[0,1],"goal":0,"start":2,"action_noise":0.1,"location_history":"[2,6,5,2,1,5,1,0]","action_history":"[1,1,1,0,0,0,0]","mutagen_history":"[1,1,1,0,0,0,0]","location_rts":"[1379,418,783,491,802,666,463]","trial_type":"fractal-mutation","trial_index":57,"time_elapsed":1001096,"internal_node_id":"0.0-5.0-3.0"},{"group":"tri cycles (cube, non-group)","fractal_assignment":["../images/grn_red.png","../images/pnk_blu.png","../images/gry_blk.png","../images/ylw_pnk.png","../images/ylw_slt.png","../images/cyn_red.png","../images/blu_wht.png","../images/org_blu.png"],"mutagen_generator_assignment":[0,1],"goal":7,"start":0,"action_noise":0.1,"location_history":"[0,2,1,5,2,6,5,2,1,0,3,4,0,3,4,0,2,6,5,2,6,4,7]","action_history":"[0,0,0,1,1,1,1,0,0,1,1,1,1,1,1,0,1,1,1,1,0,0]","mutagen_history":"[0,0,0,1,1,1,1,0,0,1,1,1,1,1,1,0,1,1,1,1,0,0]","location_rts":"[1256,931,522,563,597,455,674,607,849,993,654,643,839,510,614,449,1739,640,622,684,1231,892]","trial_type":"fractal-mutation","trial_index":58,"time_elapsed":1044772,"internal_node_id":"0.0-5.0-4.0"},{"group":"tri cycles (cube, non-group)","fractal_assignment":["../images/grn_red.png","../images/pnk_blu.png","../images/gry_blk.png","../images/ylw_pnk.png","../images/ylw_slt.png","../images/cyn_red.png","../images/blu_wht.png","../images/org_blu.png"],"mutagen_generator_assignment":[0,1],"goal":5,"start":7,"action_noise":0.1,"location_history":"[7,6,5]","action_history":"[0,1]","mutagen_history":"[0,1]","location_rts":"[1384,1044]","trial_type":"fractal-mutation","trial_index":59,"time_elapsed":1052803,"internal_node_id":"0.0-5.0-5.0"},{"group":"tri cycles (cube, non-group)","fractal_assignment":["../images/grn_red.png","../images/pnk_blu.png","../images/gry_blk.png","../images/ylw_pnk.png","../images/ylw_slt.png","../images/cyn_red.png","../images/blu_wht.png","../images/org_blu.png"],"mutagen_generator_assignment":[0,1],"goal":4,"start":5,"action_noise":0.1,"location_history":"[5,1,0,2,6,5,2,1,0,3,4]","action_history":"[0,0,0,1,1,1,0,0,1,1]","mutagen_history":"[0,0,0,1,1,1,0,0,1,1]","location_rts":"[2585,921,717,922,801,646,766,570,818,574]","trial_type":"fractal-mutation","trial_index":60,"time_elapsed":1076141,"internal_node_id":"0.0-5.0-6.0"},{"group":"tri cycles (cube, non-group)","fractal_assignment":["../images/grn_red.png","../images/pnk_blu.png","../images/gry_blk.png","../images/ylw_pnk.png","../images/ylw_slt.png","../images/cyn_red.png","../images/blu_wht.png","../images/org_blu.png"],"mutagen_generator_assignment":[0,1],"goal":2,"start":4,"action_noise":0.1,"location_history":"[4,7,3,7,6,5,1,0,3,4,0,3,7,6,5,2]","action_history":"[0,1,1,0,0,0,0,1,1,1,1,0,0,1,1]","mutagen_history":"[0,1,1,0,0,0,0,1,1,1,1,0,0,1,1]","location_rts":"[1826,1195,480,761,645,487,479,684,447,775,1009,674,718,1103,558]","trial_type":"fractal-mutation","trial_index":61,"time_elapsed":1107249,"internal_node_id":"0.0-5.0-7.0"},{"group":"tri cycles (cube, non-group)","fractal_assignment":["../images/grn_red.png","../images/pnk_blu.png","../images/gry_blk.png","../images/ylw_pnk.png","../images/ylw_slt.png","../images/cyn_red.png","../images/blu_wht.png","../images/org_blu.png"],"mutagen_generator_assignment":[0,1],"goal":3,"start":2,"action_noise":0.1,"location_history":"[2,6,5,2,1,0,3]","action_history":"[1,1,1,0,0,1]","mutagen_history":"[1,1,1,0,0,1]","location_rts":"[971,550,528,705,773,737]","trial_type":"fractal-mutation","trial_index":62,"time_elapsed":1121345,"internal_node_id":"0.0-5.0-8.0"},{"group":"tri cycles (cube, non-group)","fractal_assignment":["../images/grn_red.png","../images/pnk_blu.png","../images/gry_blk.png","../images/ylw_pnk.png","../images/ylw_slt.png","../images/cyn_red.png","../images/blu_wht.png","../images/org_blu.png"],"mutagen_generator_assignment":[0,1],"goal":7,"start":3,"action_noise":0.1,"location_history":"[3,4,0,2,1,5,2,1,5,2,6,4,7]","action_history":"[1,1,0,0,1,1,0,1,1,1,0,0]","mutagen_history":"[1,1,0,0,1,1,0,1,1,1,0,0]","location_rts":"[1811,1488,863,665,842,1389,922,695,561,848,880,939]","trial_type":"fractal-mutation","trial_index":63,"time_elapsed":1149385,"internal_node_id":"0.0-5.0-9.0"},{"group":"tri cycles (cube, non-group)","fractal_assignment":["../images/grn_red.png","../images/pnk_blu.png","../images/gry_blk.png","../images/ylw_pnk.png","../images/ylw_slt.png","../images/cyn_red.png","../images/blu_wht.png","../images/org_blu.png"],"mutagen_generator_assignment":[0,1],"goal":0,"start":7,"action_noise":0.1,"location_history":"[7,3,7,6,5,2,6,4,7,6,4,0]","action_history":"[1,0,0,1,1,1,0,0,0,0,1]","mutagen_history":"[1,0,0,1,1,1,0,0,0,0,1]","location_rts":"[1278,577,550,627,598,530,497,373,473,845,698]","trial_type":"fractal-mutation","trial_index":64,"time_elapsed":1171475,"internal_node_id":"0.0-5.0-10.0"},{"group":"tri cycles (cube, non-group)","fractal_assignment":["../images/grn_red.png","../images/pnk_blu.png","../images/gry_blk.png","../images/ylw_pnk.png","../images/ylw_slt.png","../images/cyn_red.png","../images/blu_wht.png","../images/org_blu.png"],"mutagen_generator_assignment":[0,1],"goal":1,"start":0,"action_noise":0.1,"location_history":"[0,2,6,5,1]","action_history":"[0,1,1,0]","mutagen_history":"[0,1,1,0]","location_rts":"[1442,386,606,659]","trial_type":"fractal-mutation","trial_index":65,"time_elapsed":1182269,"internal_node_id":"0.0-5.0-11.0"},{"group":"tri cycles (cube, non-group)","fractal_assignment":["../images/grn_red.png","../images/pnk_blu.png","../images/gry_blk.png","../images/ylw_pnk.png","../images/ylw_slt.png","../images/cyn_red.png","../images/blu_wht.png","../images/org_blu.png"],"mutagen_generator_assignment":[0,1],"goal":6,"start":1,"action_noise":0.1,"location_history":"[1,0,2,1,5,1,5,1,0,2,6]","action_history":"[0,1,0,1,1,1,0,0,0,1]","mutagen_history":"[0,1,0,1,1,1,0,0,0,1]","location_rts":"[2080,548,1623,745,553,785,808,505,449,966]","trial_type":"fractal-mutation","trial_index":66,"time_elapsed":1205341,"internal_node_id":"0.0-5.0-12.0"},{"group":"tri cycles (cube, non-group)","fractal_assignment":["../images/grn_red.png","../images/pnk_blu.png","../images/gry_blk.png","../images/ylw_pnk.png","../images/ylw_slt.png","../images/cyn_red.png","../images/blu_wht.png","../images/org_blu.png"],"mutagen_generator_assignment":[0,1],"goal":4,"start":6,"action_noise":0.1,"location_history":"[6,4]","action_history":"[0]","mutagen_history":"[0]","location_rts":"[2540]","trial_type":"fractal-mutation","trial_index":67,"time_elapsed":1212417,"internal_node_id":"0.0-5.0-13.0"},{"group":"tri cycles (cube, non-group)","fractal_assignment":["../images/grn_red.png","../images/pnk_blu.png","../images/gry_blk.png","../images/ylw_pnk.png","../images/ylw_slt.png","../images/cyn_red.png","../images/blu_wht.png","../images/org_blu.png"],"mutagen_generator_assignment":[0,1],"goal":5,"start":4,"action_noise":0.1,"location_history":"[4,7,6,5]","action_history":"[0,0,1]","mutagen_history":"[0,0,1]","location_rts":"[2872,1168,963]","trial_type":"fractal-mutation","trial_index":68,"time_elapsed":1224066,"internal_node_id":"0.0-5.0-14.0"},{"group":"tri cycles (cube, non-group)","fractal_assignment":["../images/grn_red.png","../images/pnk_blu.png","../images/gry_blk.png","../images/ylw_pnk.png","../images/ylw_slt.png","../images/cyn_red.png","../images/blu_wht.png","../images/org_blu.png"],"mutagen_generator_assignment":[0,1],"goal":4,"start":5,"action_noise":0.1,"location_history":"[5,1,0,3,4]","action_history":"[0,1,1,1]","mutagen_history":"[0,1,1,1]","location_rts":"[1536,1741,804,1447]","trial_type":"fractal-mutation","trial_index":69,"time_elapsed":1237319,"internal_node_id":"0.0-5.0-15.0"},{"group":"tri cycles (cube, non-group)","fractal_assignment":["../images/grn_red.png","../images/pnk_blu.png","../images/gry_blk.png","../images/ylw_pnk.png","../images/ylw_slt.png","../images/cyn_red.png","../images/blu_wht.png","../images/org_blu.png"],"mutagen_generator_assignment":[0,1],"goal":0,"start":4,"action_noise":0.1,"location_history":"[4,0]","action_history":"[1]","mutagen_history":"[1]","location_rts":"[2580]","trial_type":"fractal-mutation","trial_index":70,"time_elapsed":1244466,"internal_node_id":"0.0-5.0-16.0"},{"group":"tri cycles (cube, non-group)","fractal_assignment":["../images/grn_red.png","../images/pnk_blu.png","../images/gry_blk.png","../images/ylw_pnk.png","../images/ylw_slt.png","../images/cyn_red.png","../images/blu_wht.png","../images/org_blu.png"],"mutagen_generator_assignment":[0,1],"goal":7,"start":0,"action_noise":0.1,"location_history":"[0,3,7]","action_history":"[1,0]","mutagen_history":"[1,0]","location_rts":"[1746,912]","trial_type":"fractal-mutation","trial_index":71,"time_elapsed":1252727,"internal_node_id":"0.0-5.0-17.0"},{"group":"tri cycles (cube, non-group)","fractal_assignment":["../images/grn_red.png","../images/pnk_blu.png","../images/gry_blk.png","../images/ylw_pnk.png","../images/ylw_slt.png","../images/cyn_red.png","../images/blu_wht.png","../images/org_blu.png"],"mutagen_generator_assignment":[0,1],"goal":2,"start":7,"action_noise":0.1,"location_history":"[7,6,5,2]","action_history":"[0,1,1]","mutagen_history":"[0,1,1]","location_rts":"[1438,850,1205]","trial_type":"fractal-mutation","trial_index":72,"time_elapsed":1262893,"internal_node_id":"0.0-5.0-18.0"},{"group":"tri cycles (cube, non-group)","fractal_assignment":["../images/grn_red.png","../images/pnk_blu.png","../images/gry_blk.png","../images/ylw_pnk.png","../images/ylw_slt.png","../images/cyn_red.png","../images/blu_wht.png","../images/org_blu.png"],"mutagen_generator_assignment":[0,1],"goal":1,"start":2,"action_noise":0.1,"location_history":"[2,6,5,2,6,4,7,6,4,7,6,5,1]","action_history":"[1,0,1,1,0,0,0,0,0,1,1,0]","mutagen_history":"[1,0,1,1,0,0,0,0,0,1,1,0]","location_rts":"[1515,1160,792,1053,1445,799,1044,1181,763,663,1566,824]","trial_type":"fractal-mutation","trial_index":73,"time_elapsed":1291780,"internal_node_id":"0.0-5.0-19.0"},{"group":"tri cycles (cube, non-group)","fractal_assignment":["../images/grn_red.png","../images/pnk_blu.png","../images/gry_blk.png","../images/ylw_pnk.png","../images/ylw_slt.png","../images/cyn_red.png","../images/blu_wht.png","../images/org_blu.png"],"mutagen_generator_assignment":[0,1],"goal":3,"start":1,"action_noise":0.1,"location_history":"[1,5,2,1,0,3]","action_history":"[1,1,0,0,1]","mutagen_history":"[1,1,0,0,1]","location_rts":"[2359,943,1045,1247,1264]","trial_type":"fractal-mutation","trial_index":74,"time_elapsed":1307408,"internal_node_id":"0.0-5.0-20.0"},{"group":"tri cycles (cube, non-group)","fractal_assignment":["../images/grn_red.png","../images/pnk_blu.png","../images/gry_blk.png","../images/ylw_pnk.png","../images/ylw_slt.png","../images/cyn_red.png","../images/blu_wht.png","../images/org_blu.png"],"mutagen_generator_assignment":[0,1],"goal":6,"start":3,"action_noise":0.1,"location_history":"[3,4,0,3,7,3,7,6]","action_history":"[1,1,1,0,1,0,0]","mutagen_history":"[1,1,1,0,1,0,0]","location_rts":"[2115,1144,752,1023,860,756,465]","trial_type":"fractal-mutation","trial_index":75,"time_elapsed":1325401,"internal_node_id":"0.0-5.0-21.0"},{"group":"tri cycles (cube, non-group)","fractal_assignment":["../images/grn_red.png","../images/pnk_blu.png","../images/gry_blk.png","../images/ylw_pnk.png","../images/ylw_slt.png","../images/cyn_red.png","../images/blu_wht.png","../images/org_blu.png"],"mutagen_generator_assignment":[0,1],"goal":5,"start":6,"action_noise":0.1,"location_history":"[6,4,7,6,5]","action_history":"[0,0,0,1]","mutagen_history":"[0,0,0,1]","location_rts":"[1396,1033,1051,753]","trial_type":"fractal-mutation","trial_index":76,"time_elapsed":1337313,"internal_node_id":"0.0-5.0-22.0"},{"group":"tri cycles (cube, non-group)","fractal_assignment":["../images/grn_red.png","../images/pnk_blu.png","../images/gry_blk.png","../images/ylw_pnk.png","../images/ylw_slt.png","../images/cyn_red.png","../images/blu_wht.png","../images/org_blu.png"],"mutagen_generator_assignment":[0,1],"goal":3,"start":5,"action_noise":0.1,"location_history":"[5,1,5,2,1,0,2,6,5,1,5,2,6,4,0,2,1,0,2,6,4,7,3]","action_history":"[0,1,1,0,0,0,1,1,1,1,0,0,0,1,1,0,0,0,1,1,0,1]","mutagen_history":"[0,1,1,0,0,0,1,1,1,1,0,0,0,1,1,0,0,0,1,1,0,1]","location_rts":"[1774,432,525,824,956,1321,704,1007,830,1339,903,926,855,1340,765,844,626,437,531,607,649,841]","trial_type":"fractal-mutation","trial_index":77,"time_elapsed":1382944,"internal_node_id":"0.0-5.0-23.0"},{"group":"tri cycles (cube, non-group)","fractal_assignment":["../images/grn_red.png","../images/pnk_blu.png","../images/gry_blk.png","../images/ylw_pnk.png","../images/ylw_slt.png","../images/cyn_red.png","../images/blu_wht.png","../images/org_blu.png"],"mutagen_generator_assignment":[0,1],"goal":0,"start":3,"action_noise":0.1,"location_history":"[3,4,0]","action_history":"[0,1]","mutagen_history":"[0,1]","location_rts":"[2309,800]","trial_type":"fractal-mutation","trial_index":78,"time_elapsed":1391657,"internal_node_id":"0.0-5.0-24.0"},{"group":"tri cycles (cube, non-group)","fractal_assignment":["../images/grn_red.png","../images/pnk_blu.png","../images/gry_blk.png","../images/ylw_pnk.png","../images/ylw_slt.png","../images/cyn_red.png","../images/blu_wht.png","../images/org_blu.png"],"mutagen_generator_assignment":[0,1],"goal":7,"start":0,"action_noise":0.1,"location_history":"[0,2,1,5,2,1,5,2,6,4,7]","action_history":"[0,0,1,1,0,1,1,1,0,0]","mutagen_history":"[0,0,1,1,0,1,1,1,0,0]","location_rts":"[1276,581,730,343,1505,702,323,1680,719,1147]","trial_type":"fractal-mutation","trial_index":79,"time_elapsed":1414650,"internal_node_id":"0.0-5.0-25.0"},{"group":"tri cycles (cube, non-group)","fractal_assignment":["../images/grn_red.png","../images/pnk_blu.png","../images/gry_blk.png","../images/ylw_pnk.png","../images/ylw_slt.png","../images/cyn_red.png","../images/blu_wht.png","../images/org_blu.png"],"mutagen_generator_assignment":[0,1],"goal":2,"start":7,"action_noise":0.1,"location_history":"[7,3,4,7,6,4,0,2]","action_history":"[1,1,0,0,1,1,0]","mutagen_history":"[1,1,0,0,1,1,0]","location_rts":"[2534,2001,853,1007,860,977,757]","trial_type":"fractal-mutation","trial_index":80,"time_elapsed":1434514,"internal_node_id":"0.0-5.0-26.0"},{"group":"tri cycles (cube, non-group)","fractal_assignment":["../images/grn_red.png","../images/pnk_blu.png","../images/gry_blk.png","../images/ylw_pnk.png","../images/ylw_slt.png","../images/cyn_red.png","../images/blu_wht.png","../images/org_blu.png"],"mutagen_generator_assignment":[0,1],"goal":1,"start":2,"action_noise":0.1,"location_history":"[2,1]","action_history":"[0]","mutagen_history":"[0]","location_rts":"[1322]","trial_type":"fractal-mutation","trial_index":81,"time_elapsed":1440371,"internal_node_id":"0.0-5.0-27.0"},{"group":"tri cycles (cube, non-group)","fractal_assignment":["../images/grn_red.png","../images/pnk_blu.png","../images/gry_blk.png","../images/ylw_pnk.png","../images/ylw_slt.png","../images/cyn_red.png","../images/blu_wht.png","../images/org_blu.png"],"mutagen_generator_assignment":[0,1],"goal":5,"start":1,"action_noise":0.1,"location_history":"[1,5]","action_history":"[1]","mutagen_history":"[1]","location_rts":"[1502]","trial_type":"fractal-mutation","trial_index":82,"time_elapsed":1446444,"internal_node_id":"0.0-5.0-28.0"},{"group":"tri cycles (cube, non-group)","fractal_assignment":["../images/grn_red.png","../images/pnk_blu.png","../images/gry_blk.png","../images/ylw_pnk.png","../images/ylw_slt.png","../images/cyn_red.png","../images/blu_wht.png","../images/org_blu.png"],"mutagen_generator_assignment":[0,1],"goal":4,"start":5,"action_noise":0.1,"location_history":"[5,1,0,3,7,6,5,2,6,5,1,0,3,4]","action_history":"[0,0,1,0,0,1,1,1,0,0,0,1,1]","mutagen_history":"[0,0,1,0,0,1,1,1,0,0,0,1,1]","location_rts":"[4762,1256,1042,2615,1372,747,1215,2192,1030,1028,1321,939,1042]","trial_type":"fractal-mutation","trial_index":83,"time_elapsed":1484151,"internal_node_id":"0.0-5.0-29.0"},{"group":"tri cycles (cube, non-group)","fractal_assignment":["../images/grn_red.png","../images/pnk_blu.png","../images/gry_blk.png","../images/ylw_pnk.png","../images/ylw_slt.png","../images/cyn_red.png","../images/blu_wht.png","../images/org_blu.png"],"mutagen_generator_assignment":[0,1],"goal":6,"start":4,"action_noise":0.1,"location_history":"[4,7,3,4,7,6]","action_history":"[0,1,1,0,0]","mutagen_history":"[0,1,1,0,0]","location_rts":"[2269,1079,723,1742,868]","trial_type":"fractal-mutation","trial_index":84,"time_elapsed":1499572,"internal_node_id":"0.0-5.0-30.0"},{"group":"tri cycles (cube, non-group)","fractal_assignment":["../images/grn_red.png","../images/pnk_blu.png","../images/gry_blk.png","../images/ylw_pnk.png","../images/ylw_slt.png","../images/cyn_red.png","../images/blu_wht.png","../images/org_blu.png"],"mutagen_generator_assignment":[0,1],"goal":4,"start":6,"action_noise":0.1,"location_history":"[6,4]","action_history":"[0]","mutagen_history":"[0]","location_rts":"[3024]","trial_type":"fractal-mutation","trial_index":85,"time_elapsed":1507130,"internal_node_id":"0.0-5.0-31.0"},{"group":"tri cycles (cube, non-group)","fractal_assignment":["../images/grn_red.png","../images/pnk_blu.png","../images/gry_blk.png","../images/ylw_pnk.png","../images/ylw_slt.png","../images/cyn_red.png","../images/blu_wht.png","../images/org_blu.png"],"mutagen_generator_assignment":[0,1],"goal":2,"start":4,"action_noise":0.1,"location_history":"[4,0,3,4,7,3,7,3,4,0,2]","action_history":"[1,1,1,0,1,0,0,1,1,0]","mutagen_history":"[1,1,1,0,1,0,0,1,1,0]","location_rts":"[2873,1802,815,926,1438,1201,952,788,889,969]","trial_type":"fractal-mutation","trial_index":86,"time_elapsed":1533808,"internal_node_id":"0.0-5.0-32.0"},{"group":"tri cycles (cube, non-group)","fractal_assignment":["../images/grn_red.png","../images/pnk_blu.png","../images/gry_blk.png","../images/ylw_pnk.png","../images/ylw_slt.png","../images/cyn_red.png","../images/blu_wht.png","../images/org_blu.png"],"mutagen_generator_assignment":[0,1],"goal":0,"start":2,"action_noise":0.1,"location_history":"[2,6,5,2,1,0]","action_history":"[1,1,1,0,0]","mutagen_history":"[1,1,1,0,0]","location_rts":"[1641,996,1241,741,884]","trial_type":"fractal-mutation","trial_index":87,"time_elapsed":1548079,"internal_node_id":"0.0-5.0-33.0"},{"group":"tri cycles (cube, non-group)","fractal_assignment":["../images/grn_red.png","../images/pnk_blu.png","../images/gry_blk.png","../images/ylw_pnk.png","../images/ylw_slt.png","../images/cyn_red.png","../images/blu_wht.png","../images/org_blu.png"],"mutagen_generator_assignment":[0,1],"goal":5,"start":0,"action_noise":0.1,"location_history":"[0,2,6,5]","action_history":"[1,1,1]","mutagen_history":"[1,1,1]","location_rts":"[3433,861,583]","trial_type":"fractal-mutation","trial_index":88,"time_elapsed":1559660,"internal_node_id":"0.0-5.0-34.0"},{"group":"tri cycles (cube, non-group)","fractal_assignment":["../images/grn_red.png","../images/pnk_blu.png","../images/gry_blk.png","../images/ylw_pnk.png","../images/ylw_slt.png","../images/cyn_red.png","../images/blu_wht.png","../images/org_blu.png"],"mutagen_generator_assignment":[0,1],"goal":1,"start":5,"action_noise":0.1,"location_history":"[5,2,6,4,0,2,1]","action_history":"[1,1,1,1,0,0]","mutagen_history":"[1,1,1,1,0,0]","location_rts":"[1404,900,726,493,557,673]","trial_type":"fractal-mutation","trial_index":89,"time_elapsed":1574249,"internal_node_id":"0.0-5.0-35.0"},{"group":"tri cycles (cube, non-group)","fractal_assignment":["../images/grn_red.png","../images/pnk_blu.png","../images/gry_blk.png","../images/ylw_pnk.png","../images/ylw_slt.png","../images/cyn_red.png","../images/blu_wht.png","../images/org_blu.png"],"mutagen_generator_assignment":[0,1],"goal":7,"start":1,"action_noise":0.1,"location_history":"[1,0,3,4,7]","action_history":"[0,1,1,0]","mutagen_history":"[0,1,1,0]","location_rts":"[2115,556,924,784]","trial_type":"fractal-mutation","trial_index":90,"time_elapsed":1586332,"internal_node_id":"0.0-5.0-36.0"},{"group":"tri cycles (cube, non-group)","fractal_assignment":["../images/grn_red.png","../images/pnk_blu.png","../images/gry_blk.png","../images/ylw_pnk.png","../images/ylw_slt.png","../images/cyn_red.png","../images/blu_wht.png","../images/org_blu.png"],"mutagen_generator_assignment":[0,1],"goal":3,"start":7,"action_noise":0.1,"location_history":"[7,6,5,1,5,2,6,4,7,6,4,7,3]","action_history":"[0,1,0,0,1,1,1,0,0,0,0,1]","mutagen_history":"[0,1,0,0,1,1,1,0,0,0,0,1]","location_rts":"[1353,637,1084,700,1249,1136,583,632,1245,491,521,785]","trial_type":"fractal-mutation","trial_index":91,"time_elapsed":1612835,"internal_node_id":"0.0-5.0-37.0"},{"group":"tri cycles (cube, non-group)","fractal_assignment":["../images/grn_red.png","../images/pnk_blu.png","../images/gry_blk.png","../images/ylw_pnk.png","../images/ylw_slt.png","../images/cyn_red.png","../images/blu_wht.png","../images/org_blu.png"],"mutagen_generator_assignment":[0,1],"goal":6,"start":3,"action_noise":0.1,"location_history":"[3,4,0,3,4,7,6]","action_history":"[1,1,1,1,0,0]","mutagen_history":"[1,1,1,1,0,0]","location_rts":"[1837,1151,531,473,605,411]","trial_type":"fractal-mutation","trial_index":92,"time_elapsed":1627671,"internal_node_id":"0.0-5.0-38.0"},{"group":"tri cycles (cube, non-group)","fractal_assignment":["../images/grn_red.png","../images/pnk_blu.png","../images/gry_blk.png","../images/ylw_pnk.png","../images/ylw_slt.png","../images/cyn_red.png","../images/blu_wht.png","../images/org_blu.png"],"mutagen_generator_assignment":[0,1],"goal":2,"start":6,"action_noise":0.1,"location_history":"[6,5,2]","action_history":"[1,1]","mutagen_history":"[1,1]","location_rts":"[4308,1374]","trial_type":"fractal-mutation","trial_index":93,"time_elapsed":1638987,"internal_node_id":"0.0-5.0-39.0"},{"group":"tri cycles (cube, non-group)","fractal_assignment":["../images/grn_red.png","../images/pnk_blu.png","../images/gry_blk.png","../images/ylw_pnk.png","../images/ylw_slt.png","../images/cyn_red.png","../images/blu_wht.png","../images/org_blu.png"],"mutagen_generator_assignment":[0,1],"goal":1,"start":2,"action_noise":0.1,"location_history":"[2,6,5,1]","action_history":"[1,1,0]","mutagen_history":"[1,1,0]","location_rts":"[1456,1061,574]","trial_type":"fractal-mutation","trial_index":94,"time_elapsed":1648748,"internal_node_id":"0.0-5.0-40.0"},{"group":"tri cycles (cube, non-group)","fractal_assignment":["../images/grn_red.png","../images/pnk_blu.png","../images/gry_blk.png","../images/ylw_pnk.png","../images/ylw_slt.png","../images/cyn_red.png","../images/blu_wht.png","../images/org_blu.png"],"mutagen_generator_assignment":[0,1],"goal":0,"start":1,"action_noise":0.1,"location_history":"[1,5,2,1,0]","action_history":"[1,1,0,0]","mutagen_history":"[1,1,0,0]","location_rts":"[2633,625,2703,1201]","trial_type":"fractal-mutation","trial_index":95,"time_elapsed":1663613,"internal_node_id":"0.0-5.0-41.0"},{"group":"tri cycles (cube, non-group)","fractal_assignment":["../images/grn_red.png","../images/pnk_blu.png","../images/gry_blk.png","../images/ylw_pnk.png","../images/ylw_slt.png","../images/cyn_red.png","../images/blu_wht.png","../images/org_blu.png"],"mutagen_generator_assignment":[0,1],"goal":4,"start":0,"action_noise":0.1,"location_history":"[0,3,4]","action_history":"[0,1]","mutagen_history":"[0,1]","location_rts":"[2088,1006]","trial_type":"fractal-mutation","trial_index":96,"time_elapsed":1672306,"internal_node_id":"0.0-5.0-42.0"},{"group":"tri cycles (cube, non-group)","fractal_assignment":["../images/grn_red.png","../images/pnk_blu.png","../images/gry_blk.png","../images/ylw_pnk.png","../images/ylw_slt.png","../images/cyn_red.png","../images/blu_wht.png","../images/org_blu.png"],"mutagen_generator_assignment":[0,1],"goal":6,"start":4,"action_noise":0.1,"location_history":"[4,7,6]","action_history":"[0,0]","mutagen_history":"[0,0]","location_rts":"[1708,1180]","trial_type":"fractal-mutation","trial_index":97,"time_elapsed":1680770,"internal_node_id":"0.0-5.0-43.0"},{"group":"tri cycles (cube, non-group)","fractal_assignment":["../images/grn_red.png","../images/pnk_blu.png","../images/gry_blk.png","../images/ylw_pnk.png","../images/ylw_slt.png","../images/cyn_red.png","../images/blu_wht.png","../images/org_blu.png"],"mutagen_generator_assignment":[0,1],"goal":3,"start":6,"action_noise":0.1,"location_history":"[6,4,7,3]","action_history":"[0,0,1]","mutagen_history":"[0,0,1]","location_rts":"[2069,956,694]","trial_type":"fractal-mutation","trial_index":98,"time_elapsed":1691133,"internal_node_id":"0.0-5.0-44.0"},{"group":"tri cycles (cube, non-group)","fractal_assignment":["../images/grn_red.png","../images/pnk_blu.png","../images/gry_blk.png","../images/ylw_pnk.png","../images/ylw_slt.png","../images/cyn_red.png","../images/blu_wht.png","../images/org_blu.png"],"mutagen_generator_assignment":[0,1],"goal":7,"start":3,"action_noise":0.1,"location_history":"[3,7]","action_history":"[0]","mutagen_history":"[0]","location_rts":"[1766]","trial_type":"fractal-mutation","trial_index":99,"time_elapsed":1697437,"internal_node_id":"0.0-5.0-45.0"},{"group":"tri cycles (cube, non-group)","fractal_assignment":["../images/grn_red.png","../images/pnk_blu.png","../images/gry_blk.png","../images/ylw_pnk.png","../images/ylw_slt.png","../images/cyn_red.png","../images/blu_wht.png","../images/org_blu.png"],"mutagen_generator_assignment":[0,1],"goal":5,"start":7,"action_noise":0.1,"location_history":"[7,6,4,7,3,7,3,4,7,6,4,0,3,4,7,6,4,7,3,4,7,3,4,7,3,7,6,5]","action_history":"[0,0,0,1,1,1,1,0,0,0,1,1,1,0,0,0,0,1,1,0,1,1,0,0,0,0,1]","mutagen_history":"[0,0,0,1,1,1,1,0,0,0,1,1,1,0,0,0,0,1,1,0,1,1,0,0,0,0,1]","location_rts":"[1854,704,678,1026,696,926,834,1086,818,1183,707,941,785,781,628,972,660,451,512,652,638,450,897,466,616,659,830]","trial_type":"fractal-mutation","trial_index":100,"time_elapsed":1750727,"internal_node_id":"0.0-5.0-46.0"},{"group":"tri cycles (cube, non-group)","fractal_assignment":["../images/grn_red.png","../images/pnk_blu.png","../images/gry_blk.png","../images/ylw_pnk.png","../images/ylw_slt.png","../images/cyn_red.png","../images/blu_wht.png","../images/org_blu.png"],"mutagen_generator_assignment":[0,1],"goal":1,"start":5,"action_noise":0.1,"location_history":"[5,2,6,5,2,6,4,7,6,5,1]","action_history":"[1,1,1,0,1,1,0,0,1,1]","mutagen_history":"[1,1,1,0,1,1,0,0,1,1]","location_rts":"[1379,796,504,605,983,734,784,510,527,655]","trial_type":"fractal-mutation","trial_index":101,"time_elapsed":1772272,"internal_node_id":"0.0-5.0-47.0"},{"group":"tri cycles (cube, non-group)","fractal_assignment":["../images/grn_red.png","../images/pnk_blu.png","../images/gry_blk.png","../images/ylw_pnk.png","../images/ylw_slt.png","../images/cyn_red.png","../images/blu_wht.png","../images/org_blu.png"],"mutagen_generator_assignment":[0,1],"goal":6,"start":1,"action_noise":0.1,"location_history":"[1,5,2,1,5,2,1,0,3,4,0,2,6]","action_history":"[1,1,0,1,1,0,0,1,1,1,0,1]","mutagen_history":"[1,1,0,1,1,0,0,1,1,1,0,1]","location_rts":"[1299,1276,580,545,649,1142,563,900,589,1207,1070,1219]","trial_type":"fractal-mutation","trial_index":102,"time_elapsed":1799479,"internal_node_id":"0.0-5.0-48.0"},{"group":"tri cycles (cube, non-group)","fractal_assignment":["../images/grn_red.png","../images/pnk_blu.png","../images/gry_blk.png","../images/ylw_pnk.png","../images/ylw_slt.png","../images/cyn_red.png","../images/blu_wht.png","../images/org_blu.png"],"mutagen_generator_assignment":[0,1],"goal":0,"start":6,"action_noise":0.1,"location_history":"[6,4,0]","action_history":"[0,1]","mutagen_history":"[0,1]","location_rts":"[2000,642]","trial_type":"fractal-mutation","trial_index":103,"time_elapsed":1807723,"internal_node_id":"0.0-5.0-49.0"},{"view_history":"[{\"page_index\":0,\"viewing_time\":6634}]","rt":6634,"trial_type":"instructions","trial_index":104,"time_elapsed":1815357,"internal_node_id":"0.0-6.0"},{"rt":4952,"responses":"{\"Q0\":\"Thanks\"}","trial_type":"survey-text","trial_index":105,"time_elapsed":1821311,"internal_node_id":"0.0-7.0"}]