[{"view_history":"[{\"page_index\":0,\"viewing_time\":6114},{\"page_index\":1,\"viewing_time\":8454}]","rt":14568,"trial_type":"instructions","trial_index":0,"time_elapsed":14570,"internal_node_id":"0.0-0.0"},{"view_history":"[{\"page_index\":0,\"viewing_time\":2777},{\"page_index\":1,\"viewing_time\":20595}]","rt":23372,"trial_type":"instructions","trial_index":1,"time_elapsed":38944,"internal_node_id":"0.0-1.0"},{"group":"tri cycles (cube, non-group)","room_assignment":["red","blue","brown","yellow","purple","pink","grey","green"],"door_color_assignment":["black","white"],"door_generator_assignment":[1,0],"goal":6,"start":3,"action_noise":0.1,"location_history":"[3,4,0,2,6]","action_history":"[1,1,0,1]","door_history":"[0,0,1,0]","location_rts":"[2402,1675,842,738]","trial_type":"two-door-navigation","trial_index":2,"time_elapsed":52184,"internal_node_id":"0.0-2.0-0.0"},{"group":"tri cycles (cube, non-group)","room_assignment":["red","blue","brown","yellow","purple","pink","grey","green"],"door_color_assignment":["black","white"],"door_generator_assignment":[1,0],"goal":1,"start":6,"action_noise":0.1,"location_history":"[6,4,0,3,7,6,5,2,6,4,0,2,1]","action_history":"[0,1,1,0,0,1,1,1,0,1,0,0]","door_history":"[1,0,0,1,1,0,0,0,1,0,1,1]","location_rts":"[10479,680,372,606,818,680,551,557,834,1151,579,577]","trial_type":"two-door-navigation","trial_index":3,"time_elapsed":85793,"internal_node_id":"0.0-2.0-1.0"},{"group":"tri cycles (cube, non-group)","room_assignment":["red","blue","brown","yellow","purple","pink","grey","green"],"door_color_assignment":["black","white"],"door_generator_assignment":[1,0],"goal":2,"start":1,"action_noise":0.1,"location_history":"[1,5,2]","action_history":"[1,1]","door_history":"[0,0]","location_rts":"[2087,532]","trial_type":"two-door-navigation","trial_index":4,"time_elapsed":93953,"internal_node_id":"0.0-2.0-2.0"},{"group":"tri cycles (cube, non-group)","room_assignment":["red","blue","brown","yellow","purple","pink","grey","green"],"door_color_assignment":["black","white"],"door_generator_assignment":[1,0],"goal":0,"start":2,"action_noise":0.1,"location_history":"[2,1,5,1,0]","action_history":"[0,1,0,0]","door_history":"[1,0,1,1]","location_rts":"[1733,616,810,623]","trial_type":"two-door-navigation","trial_index":5,"time_elapsed":105314,"internal_node_id":"0.0-2.0-3.0"},{"group":"tri cycles (cube, non-group)","room_assignment":["red","blue","brown","yellow","purple","pink","grey","green"],"door_color_assignment":["black","white"],"door_generator_assignment":[1,0],"goal":7,"start":0,"action_noise":0.1,"location_history":"[0,3,4,7]","action_history":"[1,1,0]","door_history":"[0,0,1]","location_rts":"[1582,984,861]","trial_type":"two-door-navigation","trial_index":6,"time_elapsed":115302,"internal_node_id":"0.0-2.0-4.0"},{"group":"tri cycles (cube, non-group)","room_assignment":["red","blue","brown","yellow","purple","pink","grey","green"],"door_color_assignment":["black","white"],"door_generator_assignment":[1,0],"goal":5,"start":7,"action_noise":0.1,"location_history":"[7,6,5]","action_history":"[0,1]","door_history":"[1,0]","location_rts":"[2223,779]","trial_type":"two-door-navigation","trial_index":7,"time_elapsed":123843,"internal_node_id":"0.0-2.0-5.0"},{"group":"tri cycles (cube, non-group)","room_assignment":["red","blue","brown","yellow","purple","pink","grey","green"],"door_color_assignment":["black","white"],"door_generator_assignment":[1,0],"goal":4,"start":5,"action_noise":0.1,"location_history":"[5,1,0,3,4]","action_history":"[0,1,1,1]","door_history":"[1,0,0,0]","location_rts":"[1507,1508,576,508]","trial_type":"two-door-navigation","trial_index":8,"time_elapsed":135514,"internal_node_id":"0.0-2.0-6.0"},{"group":"tri cycles (cube, non-group)","room_assignment":["red","blue","brown","yellow","purple","pink","grey","green"],"door_color_assignment":["black","white"],"door_generator_assignment":[1,0],"goal":2,"start":4,"action_noise":0.1,"location_history":"[4,7,3,4,0,2]","action_history":"[0,1,1,1,0]","door_history":"[1,0,0,0,1]","location_rts":"[1461,1045,831,1139,982]","trial_type":"two-door-navigation","trial_index":9,"time_elapsed":149564,"internal_node_id":"0.0-2.0-7.0"},{"group":"tri cycles (cube, non-group)","room_assignment":["red","blue","brown","yellow","purple","pink","grey","green"],"door_color_assignment":["black","white"],"door_generator_assignment":[1,0],"goal":3,"start":2,"action_noise":0.1,"location_history":"[2,6,5,2,1,5,2,1,0,3]","action_history":"[1,1,1,0,1,1,0,0,1]","door_history":"[0,0,0,1,0,0,1,1,0]","location_rts":"[2405,730,841,1106,859,899,447,573,742]","trial_type":"two-door-navigation","trial_index":10,"time_elapsed":170830,"internal_node_id":"0.0-2.0-8.0"},{"group":"tri cycles (cube, non-group)","room_assignment":["red","blue","brown","yellow","purple","pink","grey","green"],"door_color_assignment":["black","white"],"door_generator_assignment":[1,0],"goal":7,"start":3,"action_noise":0.1,"location_history":"[3,7]","action_history":"[0]","door_history":"[1]","location_rts":"[1302]","trial_type":"two-door-navigation","trial_index":11,"time_elapsed":176654,"internal_node_id":"0.0-2.0-9.0"},{"group":"tri cycles (cube, non-group)","room_assignment":["red","blue","brown","yellow","purple","pink","grey","green"],"door_color_assignment":["black","white"],"door_generator_assignment":[1,0],"goal":0,"start":7,"action_noise":0.1,"location_history":"[7,6,4,0]","action_history":"[0,0,1]","door_history":"[1,1,0]","location_rts":"[1728,1353,962]","trial_type":"two-door-navigation","trial_index":12,"time_elapsed":187257,"internal_node_id":"0.0-2.0-10.0"},{"group":"tri cycles (cube, non-group)","room_assignment":["red","blue","brown","yellow","purple","pink","grey","green"],"door_color_assignment":["black","white"],"door_generator_assignment":[1,0],"goal":1,"start":0,"action_noise":0.1,"location_history":"[0,2,6,4,7,6,4,0,3,7,3,7,6,5,2,1]","action_history":"[0,1,0,0,0,0,1,0,0,1,0,0,0,1,0]","door_history":"[1,0,1,1,1,1,0,1,1,0,1,1,1,0,1]","location_rts":"[1277,1367,758,502,899,832,812,535,639,828,809,579,744,890,973]","trial_type":"two-door-navigation","trial_index":13,"time_elapsed":218479,"internal_node_id":"0.0-2.0-11.0"},{"group":"tri cycles (cube, non-group)","room_assignment":["red","blue","brown","yellow","purple","pink","grey","green"],"door_color_assignment":["black","white"],"door_generator_assignment":[1,0],"goal":6,"start":1,"action_noise":0.1,"location_history":"[1,0,3,7,3,7,6]","action_history":"[1,1,0,1,0,0]","door_history":"[0,0,1,0,1,1]","location_rts":"[3072,659,610,545,920,240]","trial_type":"two-door-navigation","trial_index":14,"time_elapsed":234134,"internal_node_id":"0.0-2.0-12.0"},{"group":"tri cycles (cube, non-group)","room_assignment":["red","blue","brown","yellow","purple","pink","grey","green"],"door_color_assignment":["black","white"],"door_generator_assignment":[1,0],"goal":4,"start":6,"action_noise":0.1,"location_history":"[6,5,2,6,5,1,0,2,1,0,3,4]","action_history":"[1,1,1,0,1,0,0,0,0,1,1]","door_history":"[0,0,0,1,0,1,1,1,1,0,0]","location_rts":"[2298,236,387,735,575,865,552,756,967,336,650]","trial_type":"two-door-navigation","trial_index":15,"time_elapsed":257195,"internal_node_id":"0.0-2.0-13.0"},{"group":"tri cycles (cube, non-group)","room_assignment":["red","blue","brown","yellow","purple","pink","grey","green"],"door_color_assignment":["black","white"],"door_generator_assignment":[1,0],"goal":5,"start":4,"action_noise":0.1,"location_history":"[4,0,3,7,3,4,7,3,4,7,3,7,6,5]","action_history":"[1,1,0,1,1,0,1,1,0,1,0,0,1]","door_history":"[0,0,1,0,0,1,0,0,1,0,1,1,0]","location_rts":"[1693,1007,382,406,612,596,376,526,649,386,540,198,668]","trial_type":"two-door-navigation","trial_index":16,"time_elapsed":281965,"internal_node_id":"0.0-2.0-14.0"},{"group":"tri cycles (cube, non-group)","room_assignment":["red","blue","brown","yellow","purple","pink","grey","green"],"door_color_assignment":["black","white"],"door_generator_assignment":[1,0],"goal":4,"start":5,"action_noise":0.1,"location_history":"[5,1,0,3,7,3,7,6,5,1,0,3,7,6,4]","action_history":"[0,0,1,0,1,0,0,1,0,0,1,0,0,0]","door_history":"[1,1,0,1,0,1,1,0,1,1,0,1,1,1]","location_rts":"[2509,509,1323,723,766,529,450,586,139,410,752,585,372,1134]","trial_type":"two-door-navigation","trial_index":17,"time_elapsed":310518,"internal_node_id":"0.0-2.0-15.0"},{"group":"tri cycles (cube, non-group)","room_assignment":["red","blue","brown","yellow","purple","pink","grey","green"],"door_color_assignment":["black","white"],"door_generator_assignment":[1,0],"goal":0,"start":4,"action_noise":0.1,"location_history":"[4,7,6,4,0]","action_history":"[0,0,0,1]","door_history":"[1,1,1,0]","location_rts":"[4378,771,846,880]","trial_type":"two-door-navigation","trial_index":18,"time_elapsed":324966,"internal_node_id":"0.0-2.0-16.0"},{"group":"tri cycles (cube, non-group)","room_assignment":["red","blue","brown","yellow","purple","pink","grey","green"],"door_color_assignment":["black","white"],"door_generator_assignment":[1,0],"goal":7,"start":0,"action_noise":0.1,"location_history":"[0,2,1,0,2,1,5,1,5,2,1,5,2,6,4,0,2,1,5,1,5,2,6,4,7]","action_history":"[0,0,0,0,0,1,0,1,1,0,1,1,1,0,1,0,0,1,1,1,1,1,0,0]","door_history":"[1,1,1,1,1,0,1,0,0,1,0,0,0,1,0,1,1,0,0,0,0,0,1,1]","location_rts":"[1653,1163,2355,900,895,13,940,612,368,415,539,302,154,742,2212,625,839,546,342,346,442,555,541,515]","trial_type":"two-door-navigation","trial_index":19,"time_elapsed":370912,"internal_node_id":"0.0-2.0-17.0"},{"group":"tri cycles (cube, non-group)","room_assignment":["red","blue","brown","yellow","purple","pink","grey","green"],"door_color_assignment":["black","white"],"door_generator_assignment":[1,0],"goal":2,"start":7,"action_noise":0.1,"location_history":"[7,6,5,2]","action_history":"[0,1,1]","door_history":"[1,0,0]","location_rts":"[1939,734,663]","trial_type":"two-door-navigation","trial_index":20,"time_elapsed":380812,"internal_node_id":"0.0-2.0-18.0"},{"group":"tri cycles (cube, non-group)","room_assignment":["red","blue","brown","yellow","purple","pink","grey","green"],"door_color_assignment":["black","white"],"door_generator_assignment":[1,0],"goal":1,"start":2,"action_noise":0.1,"location_history":"[2,6,5,2,1]","action_history":"[1,1,1,0]","door_history":"[0,0,0,1]","location_rts":"[23581,13408,4227,7358]","trial_type":"two-door-navigation","trial_index":21,"time_elapsed":436965,"internal_node_id":"0.0-2.0-19.0"},{"group":"tri cycles (cube, non-group)","room_assignment":["red","blue","brown","yellow","purple","pink","grey","green"],"door_color_assignment":["black","white"],"door_generator_assignment":[1,0],"goal":3,"start":1,"action_noise":0.1,"location_history":"[1,0,2,1,0,2,1,5,1,5,1,0,3]","action_history":"[0,0,0,0,0,0,1,0,1,0,0,1]","door_history":"[1,1,1,1,1,1,0,1,0,1,1,0]","location_rts":"[13611,3493,4611,3419,686,2449,8438,7447,7448,243,5518,16300]","trial_type":"two-door-navigation","trial_index":22,"time_elapsed":526336,"internal_node_id":"0.0-2.0-20.0"},{"group":"tri cycles (cube, non-group)","room_assignment":["red","blue","brown","yellow","purple","pink","grey","green"],"door_color_assignment":["black","white"],"door_generator_assignment":[1,0],"goal":6,"start":3,"action_noise":0.1,"location_history":"[3,7,3,7,6]","action_history":"[1,1,0,0]","door_history":"[0,0,1,1]","location_rts":"[6797,4110,7312,8636]","trial_type":"two-door-navigation","trial_index":23,"time_elapsed":560768,"internal_node_id":"0.0-2.0-21.0"},{"group":"tri cycles (cube, non-group)","room_assignment":["red","blue","brown","yellow","purple","pink","grey","green"],"door_color_assignment":["black","white"],"door_generator_assignment":[1,0],"goal":5,"start":6,"action_noise":0.1,"location_history":"[6,4,7,6,5]","action_history":"[0,0,0,1]","door_history":"[1,1,1,0]","location_rts":"[6508,10338,5108,3017]","trial_type":"two-door-navigation","trial_index":24,"time_elapsed":593313,"internal_node_id":"0.0-2.0-22.0"},{"group":"tri cycles (cube, non-group)","room_assignment":["red","blue","brown","yellow","purple","pink","grey","green"],"door_color_assignment":["black","white"],"door_generator_assignment":[1,0],"goal":3,"start":5,"action_noise":0.1,"location_history":"[5,1,5,1,0,3]","action_history":"[0,1,0,0,1]","door_history":"[1,0,1,1,0]","location_rts":"[12282,13597,5801,740,2704]","trial_type":"two-door-navigation","trial_index":25,"time_elapsed":637032,"internal_node_id":"0.0-2.0-23.0"},{"group":"tri cycles (cube, non-group)","room_assignment":["red","blue","brown","yellow","purple","pink","grey","green"],"door_color_assignment":["black","white"],"door_generator_assignment":[1,0],"goal":0,"start":3,"action_noise":0.1,"location_history":"[3,4,7,3,7,3,7,6,5,2,1,5,1,5,1,5,2,1,5,1,0]","action_history":"[1,1,1,0,1,0,0,1,1,0,1,0,0,0,1,1,0,1,1,1]","door_history":"[0,0,0,1,0,1,1,0,0,1,0,1,1,1,0,0,1,0,0,0]","location_rts":"[1728,21741,7429,10434,4279,783,10,5540,9955,8102,1005,451,184,321,530,880,661,892,298,177]","trial_type":"two-door-navigation","trial_index":26,"time_elapsed":736296,"internal_node_id":"0.0-2.0-24.0"},{"group":"tri cycles (cube, non-group)","room_assignment":["red","blue","brown","yellow","purple","pink","grey","green"],"door_color_assignment":["black","white"],"door_generator_assignment":[1,0],"goal":7,"start":0,"action_noise":0.1,"location_history":"[0,3,7]","action_history":"[1,1]","door_history":"[0,0]","location_rts":"[10190,379]","trial_type":"two-door-navigation","trial_index":27,"time_elapsed":752405,"internal_node_id":"0.0-2.0-25.0"},{"group":"tri cycles (cube, non-group)","room_assignment":["red","blue","brown","yellow","purple","pink","grey","green"],"door_color_assignment":["black","white"],"door_generator_assignment":[1,0],"goal":2,"start":7,"action_noise":0.1,"location_history":"[7,3,4,0,2]","action_history":"[1,1,1,0]","door_history":"[0,0,0,1]","location_rts":"[10737,222,609,852]","trial_type":"two-door-navigation","trial_index":28,"time_elapsed":772398,"internal_node_id":"0.0-2.0-26.0"},{"group":"tri cycles (cube, non-group)","room_assignment":["red","blue","brown","yellow","purple","pink","grey","green"],"door_color_assignment":["black","white"],"door_generator_assignment":[1,0],"goal":1,"start":2,"action_noise":0.1,"location_history":"[2,1]","action_history":"[0]","door_history":"[1]","location_rts":"[5482]","trial_type":"two-door-navigation","trial_index":29,"time_elapsed":782400,"internal_node_id":"0.0-2.0-27.0"},{"group":"tri cycles (cube, non-group)","room_assignment":["red","blue","brown","yellow","purple","pink","grey","green"],"door_color_assignment":["black","white"],"door_generator_assignment":[1,0],"goal":5,"start":1,"action_noise":0.1,"location_history":"[1,5]","action_history":"[1]","door_history":"[0]","location_rts":"[4678]","trial_type":"two-door-navigation","trial_index":30,"time_elapsed":791602,"internal_node_id":"0.0-2.0-28.0"},{"group":"tri cycles (cube, non-group)","room_assignment":["red","blue","brown","yellow","purple","pink","grey","green"],"door_color_assignment":["black","white"],"door_generator_assignment":[1,0],"goal":4,"start":5,"action_noise":0.1,"location_history":"[5,2,6,4]","action_history":"[1,1,0]","door_history":"[0,0,1]","location_rts":"[6315,886,611]","trial_type":"two-door-navigation","trial_index":31,"time_elapsed":805970,"internal_node_id":"0.0-2.0-29.0"},{"group":"tri cycles (cube, non-group)","room_assignment":["red","blue","brown","yellow","purple","pink","grey","green"],"door_color_assignment":["black","white"],"door_generator_assignment":[1,0],"goal":6,"start":4,"action_noise":0.1,"location_history":"[4,0,3,7,6]","action_history":"[1,1,1,0]","door_history":"[0,0,0,1]","location_rts":"[3569,364,318,241]","trial_type":"two-door-navigation","trial_index":32,"time_elapsed":818039,"internal_node_id":"0.0-2.0-30.0"},{"group":"tri cycles (cube, non-group)","room_assignment":["red","blue","brown","yellow","purple","pink","grey","green"],"door_color_assignment":["black","white"],"door_generator_assignment":[1,0],"goal":4,"start":6,"action_noise":0.1,"location_history":"[6,4]","action_history":"[0]","door_history":"[1]","location_rts":"[7326]","trial_type":"two-door-navigation","trial_index":33,"time_elapsed":829884,"internal_node_id":"0.0-2.0-31.0"},{"group":"tri cycles (cube, non-group)","room_assignment":["red","blue","brown","yellow","purple","pink","grey","green"],"door_color_assignment":["black","white"],"door_generator_assignment":[1,0],"goal":2,"start":4,"action_noise":0.1,"location_history":"[4,7,3,7,3,7,6,5,2]","action_history":"[0,0,0,1,1,0,1,1]","door_history":"[1,1,1,0,0,1,0,0]","location_rts":"[8772,485,466,277,798,715,106,647]","trial_type":"two-door-navigation","trial_index":34,"time_elapsed":853795,"internal_node_id":"0.0-2.0-32.0"},{"group":"tri cycles (cube, non-group)","room_assignment":["red","blue","brown","yellow","purple","pink","grey","green"],"door_color_assignment":["black","white"],"door_generator_assignment":[1,0],"goal":0,"start":2,"action_noise":0.1,"location_history":"[2,1,5,2,6,5,1,0]","action_history":"[0,1,1,1,1,0,1]","door_history":"[1,0,0,0,0,1,0]","location_rts":"[4965,3021,442,884,884,210,171]","trial_type":"two-door-navigation","trial_index":35,"time_elapsed":874995,"internal_node_id":"0.0-2.0-33.0"},{"group":"tri cycles (cube, non-group)","room_assignment":["red","blue","brown","yellow","purple","pink","grey","green"],"door_color_assignment":["black","white"],"door_generator_assignment":[1,0],"goal":5,"start":0,"action_noise":0.1,"location_history":"[0,2,6,5]","action_history":"[0,1,1]","door_history":"[1,0,0]","location_rts":"[3150,801,318]","trial_type":"two-door-navigation","trial_index":36,"time_elapsed":885826,"internal_node_id":"0.0-2.0-34.0"},{"group":"tri cycles (cube, non-group)","room_assignment":["red","blue","brown","yellow","purple","pink","grey","green"],"door_color_assignment":["black","white"],"door_generator_assignment":[1,0],"goal":1,"start":5,"action_noise":0.1,"location_history":"[5,1]","action_history":"[0]","door_history":"[1]","location_rts":"[3775]","trial_type":"two-door-navigation","trial_index":37,"time_elapsed":894123,"internal_node_id":"0.0-2.0-35.0"},{"group":"tri cycles (cube, non-group)","room_assignment":["red","blue","brown","yellow","purple","pink","grey","green"],"door_color_assignment":["black","white"],"door_generator_assignment":[1,0],"goal":7,"start":1,"action_noise":0.1,"location_history":"[1,0,3,7]","action_history":"[1,1,0]","door_history":"[0,0,1]","location_rts":"[2806,1473,2675]","trial_type":"two-door-navigation","trial_index":38,"time_elapsed":907636,"internal_node_id":"0.0-2.0-36.0"},{"group":"tri cycles (cube, non-group)","room_assignment":["red","blue","brown","yellow","purple","pink","grey","green"],"door_color_assignment":["black","white"],"door_generator_assignment":[1,0],"goal":3,"start":7,"action_noise":0.1,"location_history":"[7,6,4,7,3]","action_history":"[0,0,0,1]","door_history":"[1,1,1,0]","location_rts":"[8124,202,343,1147]","trial_type":"two-door-navigation","trial_index":39,"time_elapsed":925021,"internal_node_id":"0.0-2.0-37.0"},{"group":"tri cycles (cube, non-group)","room_assignment":["red","blue","brown","yellow","purple","pink","grey","green"],"door_color_assignment":["black","white"],"door_generator_assignment":[1,0],"goal":6,"start":3,"action_noise":0.1,"location_history":"[3,7,6]","action_history":"[0,0]","door_history":"[1,1]","location_rts":"[6202,595]","trial_type":"two-door-navigation","trial_index":40,"time_elapsed":937356,"internal_node_id":"0.0-2.0-38.0"},{"group":"tri cycles (cube, non-group)","room_assignment":["red","blue","brown","yellow","purple","pink","grey","green"],"door_color_assignment":["black","white"],"door_generator_assignment":[1,0],"goal":2,"start":6,"action_noise":0.1,"location_history":"[6,5,1,5,2]","action_history":"[1,1,1,1]","door_history":"[0,0,0,0]","location_rts":"[1285,306,483,1183]","trial_type":"two-door-navigation","trial_index":41,"time_elapsed":948191,"internal_node_id":"0.0-2.0-39.0"},{"group":"tri cycles (cube, non-group)","room_assignment":["red","blue","brown","yellow","purple","pink","grey","green"],"door_color_assignment":["black","white"],"door_generator_assignment":[1,0],"goal":1,"start":2,"action_noise":0.1,"location_history":"[2,1]","action_history":"[0]","door_history":"[1]","location_rts":"[4154]","trial_type":"two-door-navigation","trial_index":42,"time_elapsed":956868,"internal_node_id":"0.0-2.0-40.0"},{"group":"tri cycles (cube, non-group)","room_assignment":["red","blue","brown","yellow","purple","pink","grey","green"],"door_color_assignment":["black","white"],"door_generator_assignment":[1,0],"goal":0,"start":1,"action_noise":0.1,"location_history":"[1,0]","action_history":"[0]","door_history":"[1]","location_rts":"[3005]","trial_type":"two-door-navigation","trial_index":43,"time_elapsed":964395,"internal_node_id":"0.0-2.0-41.0"},{"group":"tri cycles (cube, non-group)","room_assignment":["red","blue","brown","yellow","purple","pink","grey","green"],"door_color_assignment":["black","white"],"door_generator_assignment":[1,0],"goal":4,"start":0,"action_noise":0.1,"location_history":"[0,3,7,6,5,2,6,5,2,6,4]","action_history":"[1,0,0,0,1,1,1,1,1,0]","door_history":"[0,1,1,1,0,0,0,0,0,1]","location_rts":"[9531,3225,731,1998,5720,335,487,526,3820,530]","trial_type":"two-door-navigation","trial_index":44,"time_elapsed":1004970,"internal_node_id":"0.0-2.0-42.0"},{"group":"tri cycles (cube, non-group)","room_assignment":["red","blue","brown","yellow","purple","pink","grey","green"],"door_color_assignment":["black","white"],"door_generator_assignment":[1,0],"goal":6,"start":4,"action_noise":0.1,"location_history":"[4,0,3,7,3,7,6]","action_history":"[1,1,0,1,0,0]","door_history":"[0,0,1,0,1,1]","location_rts":"[3204,1519,1512,3032,652,229]","trial_type":"two-door-navigation","trial_index":45,"time_elapsed":1024720,"internal_node_id":"0.0-2.0-43.0"},{"group":"tri cycles (cube, non-group)","room_assignment":["red","blue","brown","yellow","purple","pink","grey","green"],"door_color_assignment":["black","white"],"door_generator_assignment":[1,0],"goal":3,"start":6,"action_noise":0.1,"location_history":"[6,4,7,3]","action_history":"[0,1,1]","door_history":"[1,0,0]","location_rts":"[1470,5015,232]","trial_type":"two-door-navigation","trial_index":46,"time_elapsed":1037996,"internal_node_id":"0.0-2.0-44.0"},{"group":"tri cycles (cube, non-group)","room_assignment":["red","blue","brown","yellow","purple","pink","grey","green"],"door_color_assignment":["black","white"],"door_generator_assignment":[1,0],"goal":7,"start":3,"action_noise":0.1,"location_history":"[3,7]","action_history":"[0]","door_history":"[1]","location_rts":"[3018]","trial_type":"two-door-navigation","trial_index":47,"time_elapsed":1045530,"internal_node_id":"0.0-2.0-45.0"},{"group":"tri cycles (cube, non-group)","room_assignment":["red","blue","brown","yellow","purple","pink","grey","green"],"door_color_assignment":["black","white"],"door_generator_assignment":[1,0],"goal":5,"start":7,"action_noise":0.1,"location_history":"[7,6,5]","action_history":"[0,1]","door_history":"[1,0]","location_rts":"[6642,502]","trial_type":"two-door-navigation","trial_index":48,"time_elapsed":1058213,"internal_node_id":"0.0-2.0-46.0"},{"group":"tri cycles (cube, non-group)","room_assignment":["red","blue","brown","yellow","purple","pink","grey","green"],"door_color_assignment":["black","white"],"door_generator_assignment":[1,0],"goal":1,"start":5,"action_noise":0.1,"location_history":"[5,1]","action_history":"[0]","door_history":"[1]","location_rts":"[7234]","trial_type":"two-door-navigation","trial_index":49,"time_elapsed":1069973,"internal_node_id":"0.0-2.0-47.0"},{"group":"tri cycles (cube, non-group)","room_assignment":["red","blue","brown","yellow","purple","pink","grey","green"],"door_color_assignment":["black","white"],"door_generator_assignment":[1,0],"goal":6,"start":1,"action_noise":0.1,"location_history":"[1,0,2,6]","action_history":"[0,0,1]","door_history":"[1,1,0]","location_rts":"[4587,1821,1629]","trial_type":"two-door-navigation","trial_index":50,"time_elapsed":1084567,"internal_node_id":"0.0-2.0-48.0"},{"group":"tri cycles (cube, non-group)","room_assignment":["red","blue","brown","yellow","purple","pink","grey","green"],"door_color_assignment":["black","white"],"door_generator_assignment":[1,0],"goal":0,"start":6,"action_noise":0.1,"location_history":"[6,5,2,6,4,7,6,5,2,1,0]","action_history":"[1,1,0,0,0,0,1,1,0,0]","door_history":"[0,0,1,1,1,1,0,0,1,1]","location_rts":"[7107,443,378,1596,1209,3532,4717,375,482,999]","trial_type":"two-door-navigation","trial_index":51,"time_elapsed":1119091,"internal_node_id":"0.0-2.0-49.0"},{"view_history":"[{\"page_index\":0,\"viewing_time\":2509}]","rt":2510,"trial_type":"instructions","trial_index":52,"time_elapsed":1122602,"internal_node_id":"0.0-3.0"},{"view_history":"[{\"page_index\":0,\"viewing_time\":3163},{\"page_index\":1,\"viewing_time\":12942}]","rt":16105,"trial_type":"instructions","trial_index":53,"time_elapsed":1139708,"internal_node_id":"0.0-4.0"},{"group":"tri cycles (cube, non-group)","fractal_assignment":["../images/gry_blk.png","../images/blu_wht.png","../images/ylw_slt.png","../images/cyn_red.png","../images/org_blu.png","../images/pnk_blu.png","../images/ylw_pnk.png","../images/grn_red.png"],"mutagen_generator_assignment":[0,1],"goal":6,"start":3,"action_noise":0.1,"location_history":"[3,4,0,3,7,6]","action_history":"[1,1,1,0,0]","mutagen_history":"[1,1,1,0,0]","location_rts":"[25725,922,527,344,618]","trial_type":"fractal-mutation","trial_index":54,"time_elapsed":1176829,"internal_node_id":"0.0-5.0-0.0"},{"group":"tri cycles (cube, non-group)","fractal_assignment":["../images/gry_blk.png","../images/blu_wht.png","../images/ylw_slt.png","../images/cyn_red.png","../images/org_blu.png","../images/pnk_blu.png","../images/ylw_pnk.png","../images/grn_red.png"],"mutagen_generator_assignment":[0,1],"goal":1,"start":6,"action_noise":0.1,"location_history":"[6,5,1]","action_history":"[1,0]","mutagen_history":"[1,0]","location_rts":"[6746,720]","trial_type":"fractal-mutation","trial_index":55,"time_elapsed":1189978,"internal_node_id":"0.0-5.0-1.0"},{"group":"tri cycles (cube, non-group)","fractal_assignment":["../images/gry_blk.png","../images/blu_wht.png","../images/ylw_slt.png","../images/cyn_red.png","../images/org_blu.png","../images/pnk_blu.png","../images/ylw_pnk.png","../images/grn_red.png"],"mutagen_generator_assignment":[0,1],"goal":2,"start":1,"action_noise":0.1,"location_history":"[1,0,2]","action_history":"[0,0]","mutagen_history":"[0,0]","location_rts":"[906,506]","trial_type":"fractal-mutation","trial_index":56,"time_elapsed":1197030,"internal_node_id":"0.0-5.0-2.0"},{"group":"tri cycles (cube, non-group)","fractal_assignment":["../images/gry_blk.png","../images/blu_wht.png","../images/ylw_slt.png","../images/cyn_red.png","../images/org_blu.png","../images/pnk_blu.png","../images/ylw_pnk.png","../images/grn_red.png"],"mutagen_generator_assignment":[0,1],"goal":0,"start":2,"action_noise":0.1,"location_history":"[2,6,4,7,3,4,0]","action_history":"[1,1,1,1,1,1]","mutagen_history":"[1,1,1,1,1,1]","location_rts":"[1700,362,352,509,800,834]","trial_type":"fractal-mutation","trial_index":57,"time_elapsed":1211758,"internal_node_id":"0.0-5.0-3.0"},{"group":"tri cycles (cube, non-group)","fractal_assignment":["../images/gry_blk.png","../images/blu_wht.png","../images/ylw_slt.png","../images/cyn_red.png","../images/org_blu.png","../images/pnk_blu.png","../images/ylw_pnk.png","../images/grn_red.png"],"mutagen_generator_assignment":[0,1],"goal":7,"start":0,"action_noise":0.1,"location_history":"[0,2,6,4,0,3,4,0,3,7]","action_history":"[1,1,1,1,1,1,1,1,0]","mutagen_history":"[1,1,1,1,1,1,1,1,0]","location_rts":"[1391,523,564,504,465,758,583,251,578]","trial_type":"fractal-mutation","trial_index":58,"time_elapsed":1230795,"internal_node_id":"0.0-5.0-4.0"},{"group":"tri cycles (cube, non-group)","fractal_assignment":["../images/gry_blk.png","../images/blu_wht.png","../images/ylw_slt.png","../images/cyn_red.png","../images/org_blu.png","../images/pnk_blu.png","../images/ylw_pnk.png","../images/grn_red.png"],"mutagen_generator_assignment":[0,1],"goal":5,"start":7,"action_noise":0.1,"location_history":"[7,6,4,7,3,4,7,6,4,0,2,1,0,2,6,5]","action_history":"[0,0,0,1,1,0,1,1,1,0,0,0,0,1,1]","mutagen_history":"[0,0,0,1,1,0,1,1,1,0,0,0,0,1,1]","location_rts":"[13674,465,812,1393,687,953,681,492,580,397,1851,711,714,918,572]","trial_type":"fractal-mutation","trial_index":59,"time_elapsed":1275505,"internal_node_id":"0.0-5.0-5.0"},{"group":"tri cycles (cube, non-group)","fractal_assignment":["../images/gry_blk.png","../images/blu_wht.png","../images/ylw_slt.png","../images/cyn_red.png","../images/org_blu.png","../images/pnk_blu.png","../images/ylw_pnk.png","../images/grn_red.png"],"mutagen_generator_assignment":[0,1],"goal":4,"start":5,"action_noise":0.1,"location_history":"[5,2,6,5,1,5,1,0,3,4]","action_history":"[1,1,1,1,1,1,0,1,1]","mutagen_history":"[1,1,1,1,1,1,0,1,1]","location_rts":"[17330,440,502,408,550,434,510,937,556]","trial_type":"fractal-mutation","trial_index":60,"time_elapsed":1310670,"internal_node_id":"0.0-5.0-6.0"},{"group":"tri cycles (cube, non-group)","fractal_assignment":["../images/gry_blk.png","../images/blu_wht.png","../images/ylw_slt.png","../images/cyn_red.png","../images/org_blu.png","../images/pnk_blu.png","../images/ylw_pnk.png","../images/grn_red.png"],"mutagen_generator_assignment":[0,1],"goal":2,"start":4,"action_noise":0.1,"location_history":"[4,0,2]","action_history":"[1,0]","mutagen_history":"[1,0]","location_rts":"[5512,509]","trial_type":"fractal-mutation","trial_index":61,"time_elapsed":1322408,"internal_node_id":"0.0-5.0-7.0"},{"group":"tri cycles (cube, non-group)","fractal_assignment":["../images/gry_blk.png","../images/blu_wht.png","../images/ylw_slt.png","../images/cyn_red.png","../images/org_blu.png","../images/pnk_blu.png","../images/ylw_pnk.png","../images/grn_red.png"],"mutagen_generator_assignment":[0,1],"goal":3,"start":2,"action_noise":0.1,"location_history":"[2,1,5,2,1,0,3]","action_history":"[0,1,1,0,0,1]","mutagen_history":"[0,1,1,0,0,1]","location_rts":"[1576,667,399,739,439,549]","trial_type":"fractal-mutation","trial_index":62,"time_elapsed":1336875,"internal_node_id":"0.0-5.0-8.0"},{"group":"tri cycles (cube, non-group)","fractal_assignment":["../images/gry_blk.png","../images/blu_wht.png","../images/ylw_slt.png","../images/cyn_red.png","../images/org_blu.png","../images/pnk_blu.png","../images/ylw_pnk.png","../images/grn_red.png"],"mutagen_generator_assignment":[0,1],"goal":7,"start":3,"action_noise":0.1,"location_history":"[3,4,0,3,7]","action_history":"[1,1,1,0]","mutagen_history":"[1,1,1,0]","location_rts":"[1388,115,405,308]","trial_type":"fractal-mutation","trial_index":63,"time_elapsed":1347025,"internal_node_id":"0.0-5.0-9.0"},{"group":"tri cycles (cube, non-group)","fractal_assignment":["../images/gry_blk.png","../images/blu_wht.png","../images/ylw_slt.png","../images/cyn_red.png","../images/org_blu.png","../images/pnk_blu.png","../images/ylw_pnk.png","../images/grn_red.png"],"mutagen_generator_assignment":[0,1],"goal":0,"start":7,"action_noise":0.1,"location_history":"[7,3,4,0]","action_history":"[1,1,1]","mutagen_history":"[1,1,1]","location_rts":"[1775,588,489]","trial_type":"fractal-mutation","trial_index":64,"time_elapsed":1356705,"internal_node_id":"0.0-5.0-10.0"},{"group":"tri cycles (cube, non-group)","fractal_assignment":["../images/gry_blk.png","../images/blu_wht.png","../images/ylw_slt.png","../images/cyn_red.png","../images/org_blu.png","../images/pnk_blu.png","../images/ylw_pnk.png","../images/grn_red.png"],"mutagen_generator_assignment":[0,1],"goal":1,"start":0,"action_noise":0.1,"location_history":"[0,3,7,3,4,0,2,6,5,2,1]","action_history":"[0,0,1,1,1,0,1,1,1,0]","mutagen_history":"[0,0,1,1,1,0,1,1,1,0]","location_rts":"[2238,614,924,1118,527,395,1224,578,836,604]","trial_type":"fractal-mutation","trial_index":65,"time_elapsed":1380301,"internal_node_id":"0.0-5.0-11.0"},{"group":"tri cycles (cube, non-group)","fractal_assignment":["../images/gry_blk.png","../images/blu_wht.png","../images/ylw_slt.png","../images/cyn_red.png","../images/org_blu.png","../images/pnk_blu.png","../images/ylw_pnk.png","../images/grn_red.png"],"mutagen_generator_assignment":[0,1],"goal":6,"start":1,"action_noise":0.1,"location_history":"[1,0,3,7,6]","action_history":"[1,1,0,0]","mutagen_history":"[1,1,0,0]","location_rts":"[3131,629,1540,790]","trial_type":"fractal-mutation","trial_index":66,"time_elapsed":1394220,"internal_node_id":"0.0-5.0-12.0"},{"group":"tri cycles (cube, non-group)","fractal_assignment":["../images/gry_blk.png","../images/blu_wht.png","../images/ylw_slt.png","../images/cyn_red.png","../images/org_blu.png","../images/pnk_blu.png","../images/ylw_pnk.png","../images/grn_red.png"],"mutagen_generator_assignment":[0,1],"goal":4,"start":6,"action_noise":0.1,"location_history":"[6,5,2,6,5,2,1,5,1,0,3,4]","action_history":"[1,1,1,1,1,0,1,0,0,1,1]","mutagen_history":"[1,1,1,1,1,0,1,0,0,1,1]","location_rts":"[1568,448,525,1075,919,201,558,725,403,754,223]","trial_type":"fractal-mutation","trial_index":67,"time_elapsed":1417274,"internal_node_id":"0.0-5.0-13.0"},{"group":"tri cycles (cube, non-group)","fractal_assignment":["../images/gry_blk.png","../images/blu_wht.png","../images/ylw_slt.png","../images/cyn_red.png","../images/org_blu.png","../images/pnk_blu.png","../images/ylw_pnk.png","../images/grn_red.png"],"mutagen_generator_assignment":[0,1],"goal":5,"start":4,"action_noise":0.1,"location_history":"[4,7,6,5]","action_history":"[1,1,1]","mutagen_history":"[1,1,1]","location_rts":"[2207,577,1505]","trial_type":"fractal-mutation","trial_index":68,"time_elapsed":1428425,"internal_node_id":"0.0-5.0-14.0"},{"group":"tri cycles (cube, non-group)","fractal_assignment":["../images/gry_blk.png","../images/blu_wht.png","../images/ylw_slt.png","../images/cyn_red.png","../images/org_blu.png","../images/pnk_blu.png","../images/ylw_pnk.png","../images/grn_red.png"],"mutagen_generator_assignment":[0,1],"goal":4,"start":5,"action_noise":0.1,"location_history":"[5,2,6,4]","action_history":"[1,1,1]","mutagen_history":"[1,1,1]","location_rts":"[2389,744,581]","trial_type":"fractal-mutation","trial_index":69,"time_elapsed":1439006,"internal_node_id":"0.0-5.0-15.0"},{"group":"tri cycles (cube, non-group)","fractal_assignment":["../images/gry_blk.png","../images/blu_wht.png","../images/ylw_slt.png","../images/cyn_red.png","../images/org_blu.png","../images/pnk_blu.png","../images/ylw_pnk.png","../images/grn_red.png"],"mutagen_generator_assignment":[0,1],"goal":0,"start":4,"action_noise":0.1,"location_history":"[4,0]","action_history":"[1]","mutagen_history":"[1]","location_rts":"[1893]","trial_type":"fractal-mutation","trial_index":70,"time_elapsed":1445489,"internal_node_id":"0.0-5.0-16.0"},{"group":"tri cycles (cube, non-group)","fractal_assignment":["../images/gry_blk.png","../images/blu_wht.png","../images/ylw_slt.png","../images/cyn_red.png","../images/org_blu.png","../images/pnk_blu.png","../images/ylw_pnk.png","../images/grn_red.png"],"mutagen_generator_assignment":[0,1],"goal":7,"start":0,"action_noise":0.1,"location_history":"[0,2,6,5,1,0,3,7]","action_history":"[1,1,1,0,0,1,0]","mutagen_history":"[1,1,1,0,0,1,0]","location_rts":"[2568,461,768,468,405,712,339]","trial_type":"fractal-mutation","trial_index":71,"time_elapsed":1462453,"internal_node_id":"0.0-5.0-17.0"},{"group":"tri cycles (cube, non-group)","fractal_assignment":["../images/gry_blk.png","../images/blu_wht.png","../images/ylw_slt.png","../images/cyn_red.png","../images/org_blu.png","../images/pnk_blu.png","../images/ylw_pnk.png","../images/grn_red.png"],"mutagen_generator_assignment":[0,1],"goal":2,"start":7,"action_noise":0.1,"location_history":"[7,6,5,2]","action_history":"[1,1,1]","mutagen_history":"[1,1,1]","location_rts":"[1274,994,566]","trial_type":"fractal-mutation","trial_index":72,"time_elapsed":1472163,"internal_node_id":"0.0-5.0-18.0"},{"group":"tri cycles (cube, non-group)","fractal_assignment":["../images/gry_blk.png","../images/blu_wht.png","../images/ylw_slt.png","../images/cyn_red.png","../images/org_blu.png","../images/pnk_blu.png","../images/ylw_pnk.png","../images/grn_red.png"],"mutagen_generator_assignment":[0,1],"goal":1,"start":2,"action_noise":0.1,"location_history":"[2,1]","action_history":"[0]","mutagen_history":"[0]","location_rts":"[1948]","trial_type":"fractal-mutation","trial_index":73,"time_elapsed":1478670,"internal_node_id":"0.0-5.0-19.0"},{"group":"tri cycles (cube, non-group)","fractal_assignment":["../images/gry_blk.png","../images/blu_wht.png","../images/ylw_slt.png","../images/cyn_red.png","../images/org_blu.png","../images/pnk_blu.png","../images/ylw_pnk.png","../images/grn_red.png"],"mutagen_generator_assignment":[0,1],"goal":3,"start":1,"action_noise":0.1,"location_history":"[1,5,1,0,3]","action_history":"[1,0,0,1]","mutagen_history":"[1,0,0,1]","location_rts":"[1406,542,671,470]","trial_type":"fractal-mutation","trial_index":74,"time_elapsed":1489593,"internal_node_id":"0.0-5.0-20.0"},{"group":"tri cycles (cube, non-group)","fractal_assignment":["../images/gry_blk.png","../images/blu_wht.png","../images/ylw_slt.png","../images/cyn_red.png","../images/org_blu.png","../images/pnk_blu.png","../images/ylw_pnk.png","../images/grn_red.png"],"mutagen_generator_assignment":[0,1],"goal":6,"start":3,"action_noise":0.1,"location_history":"[3,7,6]","action_history":"[0,0]","mutagen_history":"[0,0]","location_rts":"[1952,864]","trial_type":"fractal-mutation","trial_index":75,"time_elapsed":1498048,"internal_node_id":"0.0-5.0-21.0"},{"group":"tri cycles (cube, non-group)","fractal_assignment":["../images/gry_blk.png","../images/blu_wht.png","../images/ylw_slt.png","../images/cyn_red.png","../images/org_blu.png","../images/pnk_blu.png","../images/ylw_pnk.png","../images/grn_red.png"],"mutagen_generator_assignment":[0,1],"goal":5,"start":6,"action_noise":0.1,"location_history":"[6,5]","action_history":"[1]","mutagen_history":"[1]","location_rts":"[3501]","trial_type":"fractal-mutation","trial_index":76,"time_elapsed":1506137,"internal_node_id":"0.0-5.0-22.0"},{"group":"tri cycles (cube, non-group)","fractal_assignment":["../images/gry_blk.png","../images/blu_wht.png","../images/ylw_slt.png","../images/cyn_red.png","../images/org_blu.png","../images/pnk_blu.png","../images/ylw_pnk.png","../images/grn_red.png"],"mutagen_generator_assignment":[0,1],"goal":3,"start":5,"action_noise":0.1,"location_history":"[5,1,0,3]","action_history":"[0,0,1]","mutagen_history":"[0,0,1]","location_rts":"[1483,936,604]","trial_type":"fractal-mutation","trial_index":77,"time_elapsed":1515961,"internal_node_id":"0.0-5.0-23.0"},{"group":"tri cycles (cube, non-group)","fractal_assignment":["../images/gry_blk.png","../images/blu_wht.png","../images/ylw_slt.png","../images/cyn_red.png","../images/org_blu.png","../images/pnk_blu.png","../images/ylw_pnk.png","../images/grn_red.png"],"mutagen_generator_assignment":[0,1],"goal":0,"start":3,"action_noise":0.1,"location_history":"[3,4,0]","action_history":"[1,1]","mutagen_history":"[1,1]","location_rts":"[1262,291]","trial_type":"fractal-mutation","trial_index":78,"time_elapsed":1523292,"internal_node_id":"0.0-5.0-24.0"},{"group":"tri cycles (cube, non-group)","fractal_assignment":["../images/gry_blk.png","../images/blu_wht.png","../images/ylw_slt.png","../images/cyn_red.png","../images/org_blu.png","../images/pnk_blu.png","../images/ylw_pnk.png","../images/grn_red.png"],"mutagen_generator_assignment":[0,1],"goal":7,"start":0,"action_noise":0.1,"location_history":"[0,3,7]","action_history":"[1,0]","mutagen_history":"[1,0]","location_rts":"[2190,435]","trial_type":"fractal-mutation","trial_index":79,"time_elapsed":1531606,"internal_node_id":"0.0-5.0-25.0"},{"group":"tri cycles (cube, non-group)","fractal_assignment":["../images/gry_blk.png","../images/blu_wht.png","../images/ylw_slt.png","../images/cyn_red.png","../images/org_blu.png","../images/pnk_blu.png","../images/ylw_pnk.png","../images/grn_red.png"],"mutagen_generator_assignment":[0,1],"goal":2,"start":7,"action_noise":0.1,"location_history":"[7,6,5,2]","action_history":"[0,1,1]","mutagen_history":"[0,1,1]","location_rts":"[1732,1090,449]","trial_type":"fractal-mutation","trial_index":80,"time_elapsed":1541674,"internal_node_id":"0.0-5.0-26.0"},{"group":"tri cycles (cube, non-group)","fractal_assignment":["../images/gry_blk.png","../images/blu_wht.png","../images/ylw_slt.png","../images/cyn_red.png","../images/org_blu.png","../images/pnk_blu.png","../images/ylw_pnk.png","../images/grn_red.png"],"mutagen_generator_assignment":[0,1],"goal":1,"start":2,"action_noise":0.1,"location_history":"[2,6,5,2,1]","action_history":"[1,1,1,0]","mutagen_history":"[1,1,1,0]","location_rts":"[1159,509,868,245]","trial_type":"fractal-mutation","trial_index":81,"time_elapsed":1552418,"internal_node_id":"0.0-5.0-27.0"},{"group":"tri cycles (cube, non-group)","fractal_assignment":["../images/gry_blk.png","../images/blu_wht.png","../images/ylw_slt.png","../images/cyn_red.png","../images/org_blu.png","../images/pnk_blu.png","../images/ylw_pnk.png","../images/grn_red.png"],"mutagen_generator_assignment":[0,1],"goal":5,"start":1,"action_noise":0.1,"location_history":"[1,5]","action_history":"[1]","mutagen_history":"[1]","location_rts":"[2353]","trial_type":"fractal-mutation","trial_index":82,"time_elapsed":1559364,"internal_node_id":"0.0-5.0-28.0"},{"group":"tri cycles (cube, non-group)","fractal_assignment":["../images/gry_blk.png","../images/blu_wht.png","../images/ylw_slt.png","../images/cyn_red.png","../images/org_blu.png","../images/pnk_blu.png","../images/ylw_pnk.png","../images/grn_red.png"],"mutagen_generator_assignment":[0,1],"goal":4,"start":5,"action_noise":0.1,"location_history":"[5,1,0,3,4]","action_history":"[0,0,1,1]","mutagen_history":"[0,0,1,1]","location_rts":"[1449,487,433,270]","trial_type":"fractal-mutation","trial_index":83,"time_elapsed":1569860,"internal_node_id":"0.0-5.0-29.0"},{"group":"tri cycles (cube, non-group)","fractal_assignment":["../images/gry_blk.png","../images/blu_wht.png","../images/ylw_slt.png","../images/cyn_red.png","../images/org_blu.png","../images/pnk_blu.png","../images/ylw_pnk.png","../images/grn_red.png"],"mutagen_generator_assignment":[0,1],"goal":6,"start":4,"action_noise":0.1,"location_history":"[4,0,2,6]","action_history":"[1,1,1]","mutagen_history":"[1,1,1]","location_rts":"[1073,917,236]","trial_type":"fractal-mutation","trial_index":84,"time_elapsed":1578873,"internal_node_id":"0.0-5.0-30.0"},{"group":"tri cycles (cube, non-group)","fractal_assignment":["../images/gry_blk.png","../images/blu_wht.png","../images/ylw_slt.png","../images/cyn_red.png","../images/org_blu.png","../images/pnk_blu.png","../images/ylw_pnk.png","../images/grn_red.png"],"mutagen_generator_assignment":[0,1],"goal":4,"start":6,"action_noise":0.1,"location_history":"[6,4]","action_history":"[0]","mutagen_history":"[0]","location_rts":"[1383]","trial_type":"fractal-mutation","trial_index":85,"time_elapsed":1584817,"internal_node_id":"0.0-5.0-31.0"},{"group":"tri cycles (cube, non-group)","fractal_assignment":["../images/gry_blk.png","../images/blu_wht.png","../images/ylw_slt.png","../images/cyn_red.png","../images/org_blu.png","../images/pnk_blu.png","../images/ylw_pnk.png","../images/grn_red.png"],"mutagen_generator_assignment":[0,1],"goal":2,"start":4,"action_noise":0.1,"location_history":"[4,7,6,5,1,5,2]","action_history":"[0,0,1,1,1,1]","mutagen_history":"[0,0,1,1,1,1]","location_rts":"[3160,1140,645,825,518,563]","trial_type":"fractal-mutation","trial_index":86,"time_elapsed":1601739,"internal_node_id":"0.0-5.0-32.0"},{"group":"tri cycles (cube, non-group)","fractal_assignment":["../images/gry_blk.png","../images/blu_wht.png","../images/ylw_slt.png","../images/cyn_red.png","../images/org_blu.png","../images/pnk_blu.png","../images/ylw_pnk.png","../images/grn_red.png"],"mutagen_generator_assignment":[0,1],"goal":0,"start":2,"action_noise":0.1,"location_history":"[2,1,0]","action_history":"[0,0]","mutagen_history":"[0,0]","location_rts":"[1570,670]","trial_type":"fractal-mutation","trial_index":87,"time_elapsed":1609601,"internal_node_id":"0.0-5.0-33.0"},{"group":"tri cycles (cube, non-group)","fractal_assignment":["../images/gry_blk.png","../images/blu_wht.png","../images/ylw_slt.png","../images/cyn_red.png","../images/org_blu.png","../images/pnk_blu.png","../images/ylw_pnk.png","../images/grn_red.png"],"mutagen_generator_assignment":[0,1],"goal":5,"start":0,"action_noise":0.1,"location_history":"[0,3,7,3,7,3,4,7,6,5]","action_history":"[1,1,1,0,1,0,0,0,1]","mutagen_history":"[1,1,1,0,1,0,0,0,1]","location_rts":"[1380,413,1589,1035,231,874,240,551,894]","trial_type":"fractal-mutation","trial_index":88,"time_elapsed":1630121,"internal_node_id":"0.0-5.0-34.0"},{"group":"tri cycles (cube, non-group)","fractal_assignment":["../images/gry_blk.png","../images/blu_wht.png","../images/ylw_slt.png","../images/cyn_red.png","../images/org_blu.png","../images/pnk_blu.png","../images/ylw_pnk.png","../images/grn_red.png"],"mutagen_generator_assignment":[0,1],"goal":1,"start":5,"action_noise":0.1,"location_history":"[5,1]","action_history":"[0]","mutagen_history":"[0]","location_rts":"[28388]","trial_type":"fractal-mutation","trial_index":89,"time_elapsed":1663105,"internal_node_id":"0.0-5.0-35.0"},{"group":"tri cycles (cube, non-group)","fractal_assignment":["../images/gry_blk.png","../images/blu_wht.png","../images/ylw_slt.png","../images/cyn_red.png","../images/org_blu.png","../images/pnk_blu.png","../images/ylw_pnk.png","../images/grn_red.png"],"mutagen_generator_assignment":[0,1],"goal":7,"start":1,"action_noise":0.1,"location_history":"[1,5,2,1,5,2,6,5,2,6,4,0,3,4,0,3,4,0,3,7]","action_history":"[1,1,0,0,0,1,1,1,1,0,1,1,0,1,1,1,1,1,0]","mutagen_history":"[1,1,0,0,0,1,1,1,1,0,1,1,0,1,1,1,1,1,0]","location_rts":"[1447,543,609,468,607,946,732,572,390,515,766,446,575,831,538,244,561,530,427]","trial_type":"fractal-mutation","trial_index":90,"time_elapsed":1699130,"internal_node_id":"0.0-5.0-36.0"},{"group":"tri cycles (cube, non-group)","fractal_assignment":["../images/gry_blk.png","../images/blu_wht.png","../images/ylw_slt.png","../images/cyn_red.png","../images/org_blu.png","../images/pnk_blu.png","../images/ylw_pnk.png","../images/grn_red.png"],"mutagen_generator_assignment":[0,1],"goal":3,"start":7,"action_noise":0.1,"location_history":"[7,3]","action_history":"[1]","mutagen_history":"[1]","location_rts":"[7069]","trial_type":"fractal-mutation","trial_index":91,"time_elapsed":1710808,"internal_node_id":"0.0-5.0-37.0"},{"group":"tri cycles (cube, non-group)","fractal_assignment":["../images/gry_blk.png","../images/blu_wht.png","../images/ylw_slt.png","../images/cyn_red.png","../images/org_blu.png","../images/pnk_blu.png","../images/ylw_pnk.png","../images/grn_red.png"],"mutagen_generator_assignment":[0,1],"goal":6,"start":3,"action_noise":0.1,"location_history":"[3,7,6]","action_history":"[0,0]","mutagen_history":"[0,0]","location_rts":"[2080,479]","trial_type":"fractal-mutation","trial_index":92,"time_elapsed":1719020,"internal_node_id":"0.0-5.0-38.0"},{"group":"tri cycles (cube, non-group)","fractal_assignment":["../images/gry_blk.png","../images/blu_wht.png","../images/ylw_slt.png","../images/cyn_red.png","../images/org_blu.png","../images/pnk_blu.png","../images/ylw_pnk.png","../images/grn_red.png"],"mutagen_generator_assignment":[0,1],"goal":2,"start":6,"action_noise":0.1,"location_history":"[6,5,2]","action_history":"[1,1]","mutagen_history":"[1,1]","location_rts":"[1571,599]","trial_type":"fractal-mutation","trial_index":93,"time_elapsed":1726975,"internal_node_id":"0.0-5.0-39.0"},{"group":"tri cycles (cube, non-group)","fractal_assignment":["../images/gry_blk.png","../images/blu_wht.png","../images/ylw_slt.png","../images/cyn_red.png","../images/org_blu.png","../images/pnk_blu.png","../images/ylw_pnk.png","../images/grn_red.png"],"mutagen_generator_assignment":[0,1],"goal":1,"start":2,"action_noise":0.1,"location_history":"[2,1]","action_history":"[0]","mutagen_history":"[0]","location_rts":"[1691]","trial_type":"fractal-mutation","trial_index":94,"time_elapsed":1733259,"internal_node_id":"0.0-5.0-40.0"},{"group":"tri cycles (cube, non-group)","fractal_assignment":["../images/gry_blk.png","../images/blu_wht.png","../images/ylw_slt.png","../images/cyn_red.png","../images/org_blu.png","../images/pnk_blu.png","../images/ylw_pnk.png","../images/grn_red.png"],"mutagen_generator_assignment":[0,1],"goal":0,"start":1,"action_noise":0.1,"location_history":"[1,0]","action_history":"[0]","mutagen_history":"[0]","location_rts":"[1574]","trial_type":"fractal-mutation","trial_index":95,"time_elapsed":1739399,"internal_node_id":"0.0-5.0-41.0"},{"group":"tri cycles (cube, non-group)","fractal_assignment":["../images/gry_blk.png","../images/blu_wht.png","../images/ylw_slt.png","../images/cyn_red.png","../images/org_blu.png","../images/pnk_blu.png","../images/ylw_pnk.png","../images/grn_red.png"],"mutagen_generator_assignment":[0,1],"goal":4,"start":0,"action_noise":0.1,"location_history":"[0,3,4]","action_history":"[1,1]","mutagen_history":"[1,1]","location_rts":"[1673,293]","trial_type":"fractal-mutation","trial_index":96,"time_elapsed":1747114,"internal_node_id":"0.0-5.0-42.0"},{"group":"tri cycles (cube, non-group)","fractal_assignment":["../images/gry_blk.png","../images/blu_wht.png","../images/ylw_slt.png","../images/cyn_red.png","../images/org_blu.png","../images/pnk_blu.png","../images/ylw_pnk.png","../images/grn_red.png"],"mutagen_generator_assignment":[0,1],"goal":6,"start":4,"action_noise":0.1,"location_history":"[4,0,3,7,6]","action_history":"[1,1,0,0]","mutagen_history":"[1,1,0,0]","location_rts":"[1470,521,473,393]","trial_type":"fractal-mutation","trial_index":97,"time_elapsed":1757863,"internal_node_id":"0.0-5.0-43.0"},{"group":"tri cycles (cube, non-group)","fractal_assignment":["../images/gry_blk.png","../images/blu_wht.png","../images/ylw_slt.png","../images/cyn_red.png","../images/org_blu.png","../images/pnk_blu.png","../images/ylw_pnk.png","../images/grn_red.png"],"mutagen_generator_assignment":[0,1],"goal":3,"start":6,"action_noise":0.1,"location_history":"[6,5,1,0,3]","action_history":"[1,0,0,1]","mutagen_history":"[1,0,0,1]","location_rts":"[1452,461,578,437]","trial_type":"fractal-mutation","trial_index":98,"time_elapsed":1768657,"internal_node_id":"0.0-5.0-44.0"},{"group":"tri cycles (cube, non-group)","fractal_assignment":["../images/gry_blk.png","../images/blu_wht.png","../images/ylw_slt.png","../images/cyn_red.png","../images/org_blu.png","../images/pnk_blu.png","../images/ylw_pnk.png","../images/grn_red.png"],"mutagen_generator_assignment":[0,1],"goal":7,"start":3,"action_noise":0.1,"location_history":"[3,7]","action_history":"[0]","mutagen_history":"[0]","location_rts":"[2966]","trial_type":"fractal-mutation","trial_index":99,"time_elapsed":1776218,"internal_node_id":"0.0-5.0-45.0"},{"group":"tri cycles (cube, non-group)","fractal_assignment":["../images/gry_blk.png","../images/blu_wht.png","../images/ylw_slt.png","../images/cyn_red.png","../images/org_blu.png","../images/pnk_blu.png","../images/ylw_pnk.png","../images/grn_red.png"],"mutagen_generator_assignment":[0,1],"goal":5,"start":7,"action_noise":0.1,"location_history":"[7,3,7,3,7,6,5]","action_history":"[0,0,1,0,0,1]","mutagen_history":"[0,0,1,0,0,1]","location_rts":"[2262,622,270,730,225,974]","trial_type":"fractal-mutation","trial_index":100,"time_elapsed":1791373,"internal_node_id":"0.0-5.0-46.0"},{"group":"tri cycles (cube, non-group)","fractal_assignment":["../images/gry_blk.png","../images/blu_wht.png","../images/ylw_slt.png","../images/cyn_red.png","../images/org_blu.png","../images/pnk_blu.png","../images/ylw_pnk.png","../images/grn_red.png"],"mutagen_generator_assignment":[0,1],"goal":1,"start":5,"action_noise":0.1,"location_history":"[5,1]","action_history":"[0]","mutagen_history":"[0]","location_rts":"[1643]","trial_type":"fractal-mutation","trial_index":101,"time_elapsed":1797597,"internal_node_id":"0.0-5.0-47.0"},{"group":"tri cycles (cube, non-group)","fractal_assignment":["../images/gry_blk.png","../images/blu_wht.png","../images/ylw_slt.png","../images/cyn_red.png","../images/org_blu.png","../images/pnk_blu.png","../images/ylw_pnk.png","../images/grn_red.png"],"mutagen_generator_assignment":[0,1],"goal":6,"start":1,"action_noise":0.1,"location_history":"[1,0,3,7,6]","action_history":"[0,1,0,0]","mutagen_history":"[0,1,0,0]","location_rts":"[1945,789,508,539]","trial_type":"fractal-mutation","trial_index":102,"time_elapsed":1809212,"internal_node_id":"0.0-5.0-48.0"},{"group":"tri cycles (cube, non-group)","fractal_assignment":["../images/gry_blk.png","../images/blu_wht.png","../images/ylw_slt.png","../images/cyn_red.png","../images/org_blu.png","../images/pnk_blu.png","../images/ylw_pnk.png","../images/grn_red.png"],"mutagen_generator_assignment":[0,1],"goal":0,"start":6,"action_noise":0.1,"location_history":"[6,5,2,1,0]","action_history":"[1,1,0,0]","mutagen_history":"[1,1,0,0]","location_rts":"[1662,1316,421,556]","trial_type":"fractal-mutation","trial_index":103,"time_elapsed":1821059,"internal_node_id":"0.0-5.0-49.0"},{"view_history":"[{\"page_index\":0,\"viewing_time\":9234}]","rt":9234,"trial_type":"instructions","trial_index":104,"time_elapsed":1831295,"internal_node_id":"0.0-6.0"},{"rt":13021,"responses":"{\"Q0\":\"Little easier this time.\"}","trial_type":"survey-text","trial_index":105,"time_elapsed":1845321,"internal_node_id":"0.0-7.0"}]