[{"view_history":"[{\"page_index\":0,\"viewing_time\":3480},{\"page_index\":1,\"viewing_time\":10395}]","rt":13875,"trial_type":"instructions","trial_index":0,"time_elapsed":13877,"internal_node_id":"0.0-0.0"},{"view_history":"[{\"page_index\":0,\"viewing_time\":5511},{\"page_index\":1,\"viewing_time\":19784}]","rt":25296,"trial_type":"instructions","trial_index":1,"time_elapsed":40184,"internal_node_id":"0.0-1.0"},{"group":"square cycles (cube, non-group)","room_assignment":["brown","yellow","green","pink","red","purple","blue","grey"],"door_color_assignment":["black","white"],"door_generator_assignment":[1,0],"goal":6,"start":3,"action_noise":0.1,"location_history":"[3,2,6]","action_history":"[1,1]","door_history":"[0,0]","location_rts":"[7094,810]","trial_type":"two-door-navigation","trial_index":2,"time_elapsed":53619,"internal_node_id":"0.0-2.0-0.0"},{"group":"square cycles (cube, non-group)","room_assignment":["brown","yellow","green","pink","red","purple","blue","grey"],"door_color_assignment":["black","white"],"door_generator_assignment":[1,0],"goal":1,"start":6,"action_noise":0.1,"location_history":"[6,5,4,7,6,5,1]","action_history":"[0,0,0,0,0,1]","door_history":"[1,1,1,1,1,0]","location_rts":"[2194,612,637,462,469,855]","trial_type":"two-door-navigation","trial_index":3,"time_elapsed":68379,"internal_node_id":"0.0-2.0-1.0"},{"group":"square cycles (cube, non-group)","room_assignment":["brown","yellow","green","pink","red","purple","blue","grey"],"door_color_assignment":["black","white"],"door_generator_assignment":[1,0],"goal":2,"start":1,"action_noise":0.1,"location_history":"[1,2]","action_history":"[0]","door_history":"[1]","location_rts":"[2301]","trial_type":"two-door-navigation","trial_index":4,"time_elapsed":75190,"internal_node_id":"0.0-2.0-2.0"},{"group":"square cycles (cube, non-group)","room_assignment":["brown","yellow","green","pink","red","purple","blue","grey"],"door_color_assignment":["black","white"],"door_generator_assignment":[1,0],"goal":0,"start":2,"action_noise":0.1,"location_history":"[2,3,0]","action_history":"[0,0]","door_history":"[1,1]","location_rts":"[2512,591]","trial_type":"two-door-navigation","trial_index":5,"time_elapsed":83805,"internal_node_id":"0.0-2.0-3.0"},{"group":"square cycles (cube, non-group)","room_assignment":["brown","yellow","green","pink","red","purple","blue","grey"],"door_color_assignment":["black","white"],"door_generator_assignment":[1,0],"goal":7,"start":0,"action_noise":0.1,"location_history":"[0,1,2,3,0,1,0,4,5,1,0,4,7]","action_history":"[0,0,0,0,0,1,1,1,1,1,1,0]","door_history":"[1,1,1,1,1,0,0,0,0,0,0,1]","location_rts":"[1498,535,430,416,492,1420,435,404,435,406,500,928]","trial_type":"two-door-navigation","trial_index":6,"time_elapsed":107259,"internal_node_id":"0.0-2.0-4.0"},{"group":"square cycles (cube, non-group)","room_assignment":["brown","yellow","green","pink","red","purple","blue","grey"],"door_color_assignment":["black","white"],"door_generator_assignment":[1,0],"goal":5,"start":7,"action_noise":0.1,"location_history":"[7,3,2,3,2,6,5]","action_history":"[1,1,1,1,1,0]","door_history":"[0,0,0,0,0,1]","location_rts":"[2430,513,397,516,355,488]","trial_type":"two-door-navigation","trial_index":7,"time_elapsed":121489,"internal_node_id":"0.0-2.0-5.0"},{"group":"square cycles (cube, non-group)","room_assignment":["brown","yellow","green","pink","red","purple","blue","grey"],"door_color_assignment":["black","white"],"door_generator_assignment":[1,0],"goal":4,"start":5,"action_noise":0.1,"location_history":"[5,4]","action_history":"[0]","door_history":"[1]","location_rts":"[823]","trial_type":"two-door-navigation","trial_index":8,"time_elapsed":126816,"internal_node_id":"0.0-2.0-6.0"},{"group":"square cycles (cube, non-group)","room_assignment":["brown","yellow","green","pink","red","purple","blue","grey"],"door_color_assignment":["black","white"],"door_generator_assignment":[1,0],"goal":2,"start":4,"action_noise":0.1,"location_history":"[4,7,6,5,1,0,4,7,3,2]","action_history":"[0,0,0,1,1,1,1,1,1]","door_history":"[1,1,1,0,0,0,0,0,0]","location_rts":"[1406,467,477,1129,404,415,389,463,418]","trial_type":"two-door-navigation","trial_index":9,"time_elapsed":144915,"internal_node_id":"0.0-2.0-7.0"},{"group":"square cycles (cube, non-group)","room_assignment":["brown","yellow","green","pink","red","purple","blue","grey"],"door_color_assignment":["black","white"],"door_generator_assignment":[1,0],"goal":3,"start":2,"action_noise":0.1,"location_history":"[2,3]","action_history":"[0]","door_history":"[1]","location_rts":"[1652]","trial_type":"two-door-navigation","trial_index":10,"time_elapsed":151071,"internal_node_id":"0.0-2.0-8.0"},{"group":"square cycles (cube, non-group)","room_assignment":["brown","yellow","green","pink","red","purple","blue","grey"],"door_color_assignment":["black","white"],"door_generator_assignment":[1,0],"goal":7,"start":3,"action_noise":0.1,"location_history":"[3,0,1,2,3,0,1,0,4,5,4,5,1,0,1,0,1,2,3,2,6,7]","action_history":"[0,0,0,0,0,0,1,1,1,1,1,1,0,0,0,0,0,0,1,1,1]","door_history":"[1,1,1,1,1,1,0,0,0,0,0,0,1,1,1,1,1,1,0,0,0]","location_rts":"[1238,418,404,403,454,414,1495,412,391,439,408,419,805,526,429,507,475,423,1346,420,441]","trial_type":"two-door-navigation","trial_index":11,"time_elapsed":187917,"internal_node_id":"0.0-2.0-9.0"},{"group":"square cycles (cube, non-group)","room_assignment":["brown","yellow","green","pink","red","purple","blue","grey"],"door_color_assignment":["black","white"],"door_generator_assignment":[1,0],"goal":0,"start":7,"action_noise":0.1,"location_history":"[7,3,2,6,7,3,0]","action_history":"[1,1,1,1,1,0]","door_history":"[0,0,0,0,0,1]","location_rts":"[1888,443,405,511,1946,467]","trial_type":"two-door-navigation","trial_index":12,"time_elapsed":203092,"internal_node_id":"0.0-2.0-10.0"},{"group":"square cycles (cube, non-group)","room_assignment":["brown","yellow","green","pink","red","purple","blue","grey"],"door_color_assignment":["black","white"],"door_generator_assignment":[1,0],"goal":1,"start":0,"action_noise":0.1,"location_history":"[0,4,7,6,5,4,7,3,0,1]","action_history":"[0,0,0,0,0,0,1,1,1]","door_history":"[1,1,1,1,1,1,0,0,0]","location_rts":"[1291,382,303,397,553,606,1035,399,363]","trial_type":"two-door-navigation","trial_index":13,"time_elapsed":220939,"internal_node_id":"0.0-2.0-11.0"},{"group":"square cycles (cube, non-group)","room_assignment":["brown","yellow","green","pink","red","purple","blue","grey"],"door_color_assignment":["black","white"],"door_generator_assignment":[1,0],"goal":6,"start":1,"action_noise":0.1,"location_history":"[1,0,4,7,6]","action_history":"[1,1,0,0]","door_history":"[0,0,1,1]","location_rts":"[2338,597,1178,583]","trial_type":"two-door-navigation","trial_index":14,"time_elapsed":233152,"internal_node_id":"0.0-2.0-12.0"},{"group":"square cycles (cube, non-group)","room_assignment":["brown","yellow","green","pink","red","purple","blue","grey"],"door_color_assignment":["black","white"],"door_generator_assignment":[1,0],"goal":4,"start":6,"action_noise":0.1,"location_history":"[6,7,6,7,3,2,6,5,4]","action_history":"[0,0,1,1,1,1,0,0]","door_history":"[1,1,0,0,0,0,1,1]","location_rts":"[1215,588,1075,425,454,422,968,512]","trial_type":"two-door-navigation","trial_index":15,"time_elapsed":250332,"internal_node_id":"0.0-2.0-13.0"},{"group":"square cycles (cube, non-group)","room_assignment":["brown","yellow","green","pink","red","purple","blue","grey"],"door_color_assignment":["black","white"],"door_generator_assignment":[1,0],"goal":5,"start":4,"action_noise":0.1,"location_history":"[4,5]","action_history":"[1]","door_history":"[0]","location_rts":"[3635]","trial_type":"two-door-navigation","trial_index":16,"time_elapsed":258469,"internal_node_id":"0.0-2.0-14.0"},{"group":"square cycles (cube, non-group)","room_assignment":["brown","yellow","green","pink","red","purple","blue","grey"],"door_color_assignment":["black","white"],"door_generator_assignment":[1,0],"goal":4,"start":5,"action_noise":0.1,"location_history":"[5,1,2,3,0,1,2,6,7,3,0,1,2,3,0,4]","action_history":"[1,0,0,0,0,1,1,1,1,1,0,0,0,1,1]","door_history":"[0,1,1,1,1,0,0,0,0,0,1,1,1,0,0]","location_rts":"[4809,1297,405,501,503,798,503,421,371,436,958,463,495,573,457]","trial_type":"two-door-navigation","trial_index":17,"time_elapsed":290006,"internal_node_id":"0.0-2.0-15.0"},{"group":"square cycles (cube, non-group)","room_assignment":["brown","yellow","green","pink","red","purple","blue","grey"],"door_color_assignment":["black","white"],"door_generator_assignment":[1,0],"goal":0,"start":4,"action_noise":0.1,"location_history":"[4,7,6,5,4,7,3,2,6,7,3,2,3,0]","action_history":"[0,0,0,0,0,1,1,1,1,1,0,0,0]","door_history":"[1,1,1,1,1,0,0,0,0,0,1,1,1]","location_rts":"[2120,444,473,509,879,1144,509,1641,532,511,448,396,479]","trial_type":"two-door-navigation","trial_index":18,"time_elapsed":316620,"internal_node_id":"0.0-2.0-16.0"},{"group":"square cycles (cube, non-group)","room_assignment":["brown","yellow","green","pink","red","purple","blue","grey"],"door_color_assignment":["black","white"],"door_generator_assignment":[1,0],"goal":7,"start":0,"action_noise":0.1,"location_history":"[0,1,2,3,0,4,5,1,0,4,7]","action_history":"[0,0,0,0,1,1,1,1,1,1]","door_history":"[1,1,1,1,0,0,0,0,0,0]","location_rts":"[3852,668,477,453,1043,375,401,717,460,534]","trial_type":"two-door-navigation","trial_index":19,"time_elapsed":339124,"internal_node_id":"0.0-2.0-17.0"},{"group":"square cycles (cube, non-group)","room_assignment":["brown","yellow","green","pink","red","purple","blue","grey"],"door_color_assignment":["black","white"],"door_generator_assignment":[1,0],"goal":2,"start":7,"action_noise":0.1,"location_history":"[7,3,2]","action_history":"[1,1]","door_history":"[0,0]","location_rts":"[2259,433]","trial_type":"two-door-navigation","trial_index":20,"time_elapsed":347319,"internal_node_id":"0.0-2.0-18.0"},{"group":"square cycles (cube, non-group)","room_assignment":["brown","yellow","green","pink","red","purple","blue","grey"],"door_color_assignment":["black","white"],"door_generator_assignment":[1,0],"goal":1,"start":2,"action_noise":0.1,"location_history":"[2,6,7,6,7,3,0,1]","action_history":"[1,1,1,1,1,0,0]","door_history":"[0,0,0,0,0,1,1]","location_rts":"[1510,423,479,697,686,974,566]","trial_type":"two-door-navigation","trial_index":21,"time_elapsed":363197,"internal_node_id":"0.0-2.0-19.0"},{"group":"square cycles (cube, non-group)","room_assignment":["brown","yellow","green","pink","red","purple","blue","grey"],"door_color_assignment":["black","white"],"door_generator_assignment":[1,0],"goal":3,"start":1,"action_noise":0.1,"location_history":"[1,0,4,5,1,2,3]","action_history":"[1,1,1,1,1,0]","door_history":"[0,0,0,0,0,1]","location_rts":"[1755,547,558,464,834,603]","trial_type":"two-door-navigation","trial_index":22,"time_elapsed":377494,"internal_node_id":"0.0-2.0-20.0"},{"group":"square cycles (cube, non-group)","room_assignment":["brown","yellow","green","pink","red","purple","blue","grey"],"door_color_assignment":["black","white"],"door_generator_assignment":[1,0],"goal":6,"start":3,"action_noise":0.1,"location_history":"[3,2,6]","action_history":"[1,1]","door_history":"[0,0]","location_rts":"[2169,484]","trial_type":"two-door-navigation","trial_index":23,"time_elapsed":385657,"internal_node_id":"0.0-2.0-21.0"},{"group":"square cycles (cube, non-group)","room_assignment":["brown","yellow","green","pink","red","purple","blue","grey"],"door_color_assignment":["black","white"],"door_generator_assignment":[1,0],"goal":5,"start":6,"action_noise":0.1,"location_history":"[6,7,3,0,4,5]","action_history":"[1,0,0,0,0]","door_history":"[0,1,1,1,1]","location_rts":"[1917,1471,572,1028,575]","trial_type":"two-door-navigation","trial_index":24,"time_elapsed":399733,"internal_node_id":"0.0-2.0-22.0"},{"group":"square cycles (cube, non-group)","room_assignment":["brown","yellow","green","pink","red","purple","blue","grey"],"door_color_assignment":["black","white"],"door_generator_assignment":[1,0],"goal":3,"start":5,"action_noise":0.1,"location_history":"[5,4,7,6,5,1,0,4,5,1,2,3]","action_history":"[0,0,0,1,1,1,1,1,1,0,0]","door_history":"[1,1,1,0,0,0,0,0,0,1,1]","location_rts":"[1651,687,824,1358,768,1006,578,525,817,767,452]","trial_type":"two-door-navigation","trial_index":25,"time_elapsed":423709,"internal_node_id":"0.0-2.0-23.0"},{"group":"square cycles (cube, non-group)","room_assignment":["brown","yellow","green","pink","red","purple","blue","grey"],"door_color_assignment":["black","white"],"door_generator_assignment":[1,0],"goal":0,"start":3,"action_noise":0.1,"location_history":"[3,2,6,7,3,2,3,0]","action_history":"[1,1,1,1,1,0,0]","door_history":"[0,0,0,0,0,1,1]","location_rts":"[4355,493,504,518,464,496,496]","trial_type":"two-door-navigation","trial_index":26,"time_elapsed":441542,"internal_node_id":"0.0-2.0-24.0"},{"group":"square cycles (cube, non-group)","room_assignment":["brown","yellow","green","pink","red","purple","blue","grey"],"door_color_assignment":["black","white"],"door_generator_assignment":[1,0],"goal":7,"start":0,"action_noise":0.1,"location_history":"[0,1,2,3,0,1,0,4,7]","action_history":"[0,0,0,0,0,1,1,1]","door_history":"[1,1,1,1,1,0,0,0]","location_rts":"[1352,458,524,710,1203,1068,977,452]","trial_type":"two-door-navigation","trial_index":27,"time_elapsed":459863,"internal_node_id":"0.0-2.0-25.0"},{"group":"square cycles (cube, non-group)","room_assignment":["brown","yellow","green","pink","red","purple","blue","grey"],"door_color_assignment":["black","white"],"door_generator_assignment":[1,0],"goal":2,"start":7,"action_noise":0.1,"location_history":"[7,3,2]","action_history":"[1,1]","door_history":"[0,0]","location_rts":"[28535,997]","trial_type":"two-door-navigation","trial_index":28,"time_elapsed":494901,"internal_node_id":"0.0-2.0-26.0"},{"group":"square cycles (cube, non-group)","room_assignment":["brown","yellow","green","pink","red","purple","blue","grey"],"door_color_assignment":["black","white"],"door_generator_assignment":[1,0],"goal":1,"start":2,"action_noise":0.1,"location_history":"[2,6,7,3,0,1]","action_history":"[1,1,1,0,0]","door_history":"[0,0,0,1,1]","location_rts":"[1489,413,641,538,408]","trial_type":"two-door-navigation","trial_index":29,"time_elapsed":506899,"internal_node_id":"0.0-2.0-27.0"},{"group":"square cycles (cube, non-group)","room_assignment":["brown","yellow","green","pink","red","purple","blue","grey"],"door_color_assignment":["black","white"],"door_generator_assignment":[1,0],"goal":5,"start":1,"action_noise":0.1,"location_history":"[1,0,4,5]","action_history":"[1,1,1]","door_history":"[0,0,0]","location_rts":"[1843,494,683]","trial_type":"two-door-navigation","trial_index":30,"time_elapsed":516425,"internal_node_id":"0.0-2.0-28.0"},{"group":"square cycles (cube, non-group)","room_assignment":["brown","yellow","green","pink","red","purple","blue","grey"],"door_color_assignment":["black","white"],"door_generator_assignment":[1,0],"goal":4,"start":5,"action_noise":0.1,"location_history":"[5,4]","action_history":"[0]","door_history":"[1]","location_rts":"[2466]","trial_type":"two-door-navigation","trial_index":31,"time_elapsed":523400,"internal_node_id":"0.0-2.0-29.0"},{"group":"square cycles (cube, non-group)","room_assignment":["brown","yellow","green","pink","red","purple","blue","grey"],"door_color_assignment":["black","white"],"door_generator_assignment":[1,0],"goal":6,"start":4,"action_noise":0.1,"location_history":"[4,5,1,0,4,5,1,2,3,0,1,2,3,0,1,0,4,5,1,0,4,7,3,0,1,2,3,0,4,5,1,2,3,0,1,2,3,2,6]","action_history":"[1,1,1,1,1,1,0,0,0,0,0,0,0,0,1,1,1,1,1,1,0,0,0,0,0,0,0,1,1,1,0,0,0,0,0,0,1,1]","door_history":"[0,0,0,0,0,0,1,1,1,1,1,1,1,1,0,0,0,0,0,0,1,1,1,1,1,1,1,0,0,0,1,1,1,1,1,1,0,0]","location_rts":"[2032,822,613,491,551,1784,927,492,499,396,692,455,431,448,867,430,424,474,437,383,708,520,446,414,422,444,482,778,443,583,560,471,432,440,432,1260,912,420]","trial_type":"two-door-navigation","trial_index":32,"time_elapsed":588849,"internal_node_id":"0.0-2.0-30.0"},{"group":"square cycles (cube, non-group)","room_assignment":["brown","yellow","green","pink","red","purple","blue","grey"],"door_color_assignment":["black","white"],"door_generator_assignment":[1,0],"goal":4,"start":6,"action_noise":0.1,"location_history":"[6,5,4]","action_history":"[0,0]","door_history":"[1,1]","location_rts":"[2031,528]","trial_type":"two-door-navigation","trial_index":33,"time_elapsed":596956,"internal_node_id":"0.0-2.0-31.0"},{"group":"square cycles (cube, non-group)","room_assignment":["brown","yellow","green","pink","red","purple","blue","grey"],"door_color_assignment":["black","white"],"door_generator_assignment":[1,0],"goal":2,"start":4,"action_noise":0.1,"location_history":"[4,7,6,5,4,7,3,0,4,5,1,0,4,5,1,0,4,7,6,5,4,7,6,5,4,5,1,0,4,5,1,2]","action_history":"[0,0,0,0,0,0,0,1,1,1,1,1,1,1,1,1,0,0,0,0,0,0,0,0,0,1,1,1,1,1,0]","door_history":"[1,1,1,1,1,1,1,0,0,0,0,0,0,0,0,0,1,1,1,1,1,1,1,1,1,0,0,0,0,0,1]","location_rts":"[3529,470,479,395,455,494,447,785,385,406,564,462,383,405,414,437,565,548,456,375,424,455,351,399,566,430,508,407,353,359,404]","trial_type":"two-door-navigation","trial_index":34,"time_elapsed":648638,"internal_node_id":"0.0-2.0-32.0"},{"group":"square cycles (cube, non-group)","room_assignment":["brown","yellow","green","pink","red","purple","blue","grey"],"door_color_assignment":["black","white"],"door_generator_assignment":[1,0],"goal":0,"start":2,"action_noise":0.1,"location_history":"[2,3,0]","action_history":"[0,0]","door_history":"[1,1]","location_rts":"[1688,469]","trial_type":"two-door-navigation","trial_index":35,"time_elapsed":656302,"internal_node_id":"0.0-2.0-33.0"},{"group":"square cycles (cube, non-group)","room_assignment":["brown","yellow","green","pink","red","purple","blue","grey"],"door_color_assignment":["black","white"],"door_generator_assignment":[1,0],"goal":5,"start":0,"action_noise":0.1,"location_history":"[0,1,0,4,5]","action_history":"[1,1,1,1]","door_history":"[0,0,0,0]","location_rts":"[1762,425,436,498]","trial_type":"two-door-navigation","trial_index":36,"time_elapsed":666939,"internal_node_id":"0.0-2.0-34.0"},{"group":"square cycles (cube, non-group)","room_assignment":["brown","yellow","green","pink","red","purple","blue","grey"],"door_color_assignment":["black","white"],"door_generator_assignment":[1,0],"goal":1,"start":5,"action_noise":0.1,"location_history":"[5,4,5,4,7,3,0,4,5,1]","action_history":"[0,0,0,0,0,0,1,1,1]","door_history":"[1,1,1,1,1,1,0,0,0]","location_rts":"[1748,436,358,402,390,633,383,517,334]","trial_type":"two-door-navigation","trial_index":37,"time_elapsed":684679,"internal_node_id":"0.0-2.0-35.0"},{"group":"square cycles (cube, non-group)","room_assignment":["brown","yellow","green","pink","red","purple","blue","grey"],"door_color_assignment":["black","white"],"door_generator_assignment":[1,0],"goal":7,"start":1,"action_noise":0.1,"location_history":"[1,2,3,0,1,2,6,7]","action_history":"[0,0,0,0,0,1,1]","door_history":"[1,1,1,1,1,0,0]","location_rts":"[2144,400,448,435,423,397,551]","trial_type":"two-door-navigation","trial_index":38,"time_elapsed":699994,"internal_node_id":"0.0-2.0-36.0"},{"group":"square cycles (cube, non-group)","room_assignment":["brown","yellow","green","pink","red","purple","blue","grey"],"door_color_assignment":["black","white"],"door_generator_assignment":[1,0],"goal":3,"start":7,"action_noise":0.1,"location_history":"[7,3]","action_history":"[1]","door_history":"[0]","location_rts":"[2470]","trial_type":"two-door-navigation","trial_index":39,"time_elapsed":706967,"internal_node_id":"0.0-2.0-37.0"},{"group":"square cycles (cube, non-group)","room_assignment":["brown","yellow","green","pink","red","purple","blue","grey"],"door_color_assignment":["black","white"],"door_generator_assignment":[1,0],"goal":6,"start":3,"action_noise":0.1,"location_history":"[3,0,1,2,3,2,6]","action_history":"[0,0,0,0,1,1]","door_history":"[1,1,1,1,0,0]","location_rts":"[1599,362,411,1226,1012,416]","trial_type":"two-door-navigation","trial_index":40,"time_elapsed":721509,"internal_node_id":"0.0-2.0-38.0"},{"group":"square cycles (cube, non-group)","room_assignment":["brown","yellow","green","pink","red","purple","blue","grey"],"door_color_assignment":["black","white"],"door_generator_assignment":[1,0],"goal":2,"start":6,"action_noise":0.1,"location_history":"[6,7,6,7,3,0,1,2]","action_history":"[1,1,1,1,0,0,0]","door_history":"[0,0,0,0,1,1,1]","location_rts":"[1326,406,1092,352,520,437,474]","trial_type":"two-door-navigation","trial_index":41,"time_elapsed":736634,"internal_node_id":"0.0-2.0-39.0"},{"group":"square cycles (cube, non-group)","room_assignment":["brown","yellow","green","pink","red","purple","blue","grey"],"door_color_assignment":["black","white"],"door_generator_assignment":[1,0],"goal":1,"start":2,"action_noise":0.1,"location_history":"[2,3,0,1]","action_history":"[0,0,0]","door_history":"[1,1,1]","location_rts":"[1189,486,372]","trial_type":"two-door-navigation","trial_index":42,"time_elapsed":745194,"internal_node_id":"0.0-2.0-40.0"},{"group":"square cycles (cube, non-group)","room_assignment":["brown","yellow","green","pink","red","purple","blue","grey"],"door_color_assignment":["black","white"],"door_generator_assignment":[1,0],"goal":0,"start":1,"action_noise":0.1,"location_history":"[1,2,3,0]","action_history":"[0,0,0]","door_history":"[1,1,1]","location_rts":"[1547,450,395]","trial_type":"two-door-navigation","trial_index":43,"time_elapsed":754093,"internal_node_id":"0.0-2.0-41.0"},{"group":"square cycles (cube, non-group)","room_assignment":["brown","yellow","green","pink","red","purple","blue","grey"],"door_color_assignment":["black","white"],"door_generator_assignment":[1,0],"goal":4,"start":0,"action_noise":0.1,"location_history":"[0,4]","action_history":"[1]","door_history":"[0]","location_rts":"[1857]","trial_type":"two-door-navigation","trial_index":44,"time_elapsed":760452,"internal_node_id":"0.0-2.0-42.0"},{"group":"square cycles (cube, non-group)","room_assignment":["brown","yellow","green","pink","red","purple","blue","grey"],"door_color_assignment":["black","white"],"door_generator_assignment":[1,0],"goal":6,"start":4,"action_noise":0.1,"location_history":"[4,5,1,0,4,7,6]","action_history":"[1,1,1,1,0,0]","door_history":"[0,0,0,0,1,1]","location_rts":"[1595,457,390,410,1509,455]","trial_type":"two-door-navigation","trial_index":45,"time_elapsed":774790,"internal_node_id":"0.0-2.0-43.0"},{"group":"square cycles (cube, non-group)","room_assignment":["brown","yellow","green","pink","red","purple","blue","grey"],"door_color_assignment":["black","white"],"door_generator_assignment":[1,0],"goal":3,"start":6,"action_noise":0.1,"location_history":"[6,5,4,7,6,5,4,7,6,5,1,0,4,7,3]","action_history":"[0,0,0,0,0,0,0,0,1,1,1,1,1,1]","door_history":"[1,1,1,1,1,1,1,1,0,0,0,0,0,0]","location_rts":"[1360,689,380,398,407,461,689,1897,429,472,423,366,341,443]","trial_type":"two-door-navigation","trial_index":46,"time_elapsed":801103,"internal_node_id":"0.0-2.0-44.0"},{"group":"square cycles (cube, non-group)","room_assignment":["brown","yellow","green","pink","red","purple","blue","grey"],"door_color_assignment":["black","white"],"door_generator_assignment":[1,0],"goal":7,"start":3,"action_noise":0.1,"location_history":"[3,2,6,7]","action_history":"[1,1,1]","door_history":"[0,0,0]","location_rts":"[1296,389,366]","trial_type":"two-door-navigation","trial_index":47,"time_elapsed":809663,"internal_node_id":"0.0-2.0-45.0"},{"group":"square cycles (cube, non-group)","room_assignment":["brown","yellow","green","pink","red","purple","blue","grey"],"door_color_assignment":["black","white"],"door_generator_assignment":[1,0],"goal":5,"start":7,"action_noise":0.1,"location_history":"[7,3,2,6,7,3,2,6,5]","action_history":"[1,1,1,1,1,1,0,0]","door_history":"[0,0,0,0,0,0,1,1]","location_rts":"[1230,522,384,382,510,550,687,417]","trial_type":"two-door-navigation","trial_index":48,"time_elapsed":825869,"internal_node_id":"0.0-2.0-46.0"},{"group":"square cycles (cube, non-group)","room_assignment":["brown","yellow","green","pink","red","purple","blue","grey"],"door_color_assignment":["black","white"],"door_generator_assignment":[1,0],"goal":1,"start":5,"action_noise":0.1,"location_history":"[5,4,7,3,0,1]","action_history":"[0,0,0,0,0]","door_history":"[1,1,1,1,1]","location_rts":"[1683,506,374,389,359]","trial_type":"two-door-navigation","trial_index":49,"time_elapsed":837694,"internal_node_id":"0.0-2.0-47.0"},{"group":"square cycles (cube, non-group)","room_assignment":["brown","yellow","green","pink","red","purple","blue","grey"],"door_color_assignment":["black","white"],"door_generator_assignment":[1,0],"goal":6,"start":1,"action_noise":0.1,"location_history":"[1,0,4,5,1,0,4,7,6]","action_history":"[1,1,1,1,1,0,0,0]","door_history":"[0,0,0,0,0,1,1,1]","location_rts":"[1303,391,375,407,460,1242,375,410]","trial_type":"two-door-navigation","trial_index":50,"time_elapsed":854192,"internal_node_id":"0.0-2.0-48.0"},{"group":"square cycles (cube, non-group)","room_assignment":["brown","yellow","green","pink","red","purple","blue","grey"],"door_color_assignment":["black","white"],"door_generator_assignment":[1,0],"goal":0,"start":6,"action_noise":0.1,"location_history":"[6,5,4,7,6,5,4,7,6,5,1,0]","action_history":"[0,0,0,0,0,0,0,0,0,1,1]","door_history":"[1,1,1,1,1,1,1,1,1,0,0]","location_rts":"[1151,366,439,397,528,613,382,1047,427,449,421]","trial_type":"two-door-navigation","trial_index":51,"time_elapsed":874941,"internal_node_id":"0.0-2.0-49.0"},{"view_history":"[{\"page_index\":0,\"viewing_time\":3497}]","rt":3498,"trial_type":"instructions","trial_index":52,"time_elapsed":879440,"internal_node_id":"0.0-3.0"},{"view_history":"[{\"page_index\":0,\"viewing_time\":2870},{\"page_index\":1,\"viewing_time\":7304}]","rt":10175,"trial_type":"instructions","trial_index":53,"time_elapsed":890615,"internal_node_id":"0.0-4.0"},{"group":"square cycles (cube, non-group)","fractal_assignment":["../images/pnk_blu.png","../images/org_blu.png","../images/ylw_pnk.png","../images/blu_wht.png","../images/ylw_slt.png","../images/cyn_red.png","../images/gry_blk.png","../images/grn_red.png"],"mutagen_generator_assignment":[1,0],"goal":6,"start":3,"action_noise":0.1,"location_history":"[3,0,1,2,3,2,6]","action_history":"[0,0,0,0,1,1]","mutagen_history":"[1,1,1,1,0,0]","location_rts":"[48457,4400,1145,504,665,479]","trial_type":"fractal-mutation","trial_index":54,"time_elapsed":955926,"internal_node_id":"0.0-5.0-0.0"},{"group":"square cycles (cube, non-group)","fractal_assignment":["../images/pnk_blu.png","../images/org_blu.png","../images/ylw_pnk.png","../images/blu_wht.png","../images/ylw_slt.png","../images/cyn_red.png","../images/gry_blk.png","../images/grn_red.png"],"mutagen_generator_assignment":[1,0],"goal":1,"start":6,"action_noise":0.1,"location_history":"[6,5,4,7,3,0,4,7,6,5,1]","action_history":"[0,0,0,1,1,1,0,0,0,0]","mutagen_history":"[1,1,1,0,0,0,1,1,1,1]","location_rts":"[4921,1225,674,462,415,521,479,735,1500,1160]","trial_type":"fractal-mutation","trial_index":55,"time_elapsed":981772,"internal_node_id":"0.0-5.0-1.0"},{"group":"square cycles (cube, non-group)","fractal_assignment":["../images/pnk_blu.png","../images/org_blu.png","../images/ylw_pnk.png","../images/blu_wht.png","../images/ylw_slt.png","../images/cyn_red.png","../images/gry_blk.png","../images/grn_red.png"],"mutagen_generator_assignment":[1,0],"goal":2,"start":1,"action_noise":0.1,"location_history":"[1,2]","action_history":"[1]","mutagen_history":"[0]","location_rts":"[1866]","trial_type":"fractal-mutation","trial_index":56,"time_elapsed":988144,"internal_node_id":"0.0-5.0-2.0"},{"group":"square cycles (cube, non-group)","fractal_assignment":["../images/pnk_blu.png","../images/org_blu.png","../images/ylw_pnk.png","../images/blu_wht.png","../images/ylw_slt.png","../images/cyn_red.png","../images/gry_blk.png","../images/grn_red.png"],"mutagen_generator_assignment":[1,0],"goal":0,"start":2,"action_noise":0.1,"location_history":"[2,6,7,3,0]","action_history":"[1,1,1,0]","mutagen_history":"[0,0,0,1]","location_rts":"[2307,1080,912,661]","trial_type":"fractal-mutation","trial_index":57,"time_elapsed":1000670,"internal_node_id":"0.0-5.0-3.0"},{"group":"square cycles (cube, non-group)","fractal_assignment":["../images/pnk_blu.png","../images/org_blu.png","../images/ylw_pnk.png","../images/blu_wht.png","../images/ylw_slt.png","../images/cyn_red.png","../images/gry_blk.png","../images/grn_red.png"],"mutagen_generator_assignment":[1,0],"goal":7,"start":0,"action_noise":0.1,"location_history":"[0,4,5,1,2,3,0,1,0,4,5,1,0,1,2,3,0,4,5,1,0,1,2,6,7]","action_history":"[1,1,1,0,0,0,0,0,1,1,1,1,0,0,0,0,1,1,1,1,0,0,1,1]","mutagen_history":"[0,0,0,1,1,1,1,1,0,0,0,0,1,1,1,1,0,0,0,0,1,1,0,0]","location_rts":"[4632,1073,1186,1502,1611,2129,897,882,1832,611,774,900,505,737,607,1136,2263,885,654,954,541,599,909,874]","trial_type":"fractal-mutation","trial_index":58,"time_elapsed":1057282,"internal_node_id":"0.0-5.0-4.0"},{"group":"square cycles (cube, non-group)","fractal_assignment":["../images/pnk_blu.png","../images/org_blu.png","../images/ylw_pnk.png","../images/blu_wht.png","../images/ylw_slt.png","../images/cyn_red.png","../images/gry_blk.png","../images/grn_red.png"],"mutagen_generator_assignment":[1,0],"goal":5,"start":7,"action_noise":0.1,"location_history":"[7,6,7,6,7,3,0,4,5]","action_history":"[0,0,0,1,1,1,1,1]","mutagen_history":"[1,1,1,0,0,0,0,0]","location_rts":"[3381,695,931,558,561,880,2569,906]","trial_type":"fractal-mutation","trial_index":59,"time_elapsed":1079386,"internal_node_id":"0.0-5.0-5.0"},{"group":"square cycles (cube, non-group)","fractal_assignment":["../images/pnk_blu.png","../images/org_blu.png","../images/ylw_pnk.png","../images/blu_wht.png","../images/ylw_slt.png","../images/cyn_red.png","../images/gry_blk.png","../images/grn_red.png"],"mutagen_generator_assignment":[1,0],"goal":4,"start":5,"action_noise":0.1,"location_history":"[5,4]","action_history":"[0]","mutagen_history":"[1]","location_rts":"[2851]","trial_type":"fractal-mutation","trial_index":60,"time_elapsed":1086768,"internal_node_id":"0.0-5.0-6.0"},{"group":"square cycles (cube, non-group)","fractal_assignment":["../images/pnk_blu.png","../images/org_blu.png","../images/ylw_pnk.png","../images/blu_wht.png","../images/ylw_slt.png","../images/cyn_red.png","../images/gry_blk.png","../images/grn_red.png"],"mutagen_generator_assignment":[1,0],"goal":2,"start":4,"action_noise":0.1,"location_history":"[4,5,1,0,4,7,6,5,4,5,1,0,1,2]","action_history":"[1,1,1,1,0,0,0,0,1,1,1,0,0]","mutagen_history":"[0,0,0,0,1,1,1,1,0,0,0,1,1]","location_rts":"[1911,894,1474,681,591,2012,813,656,444,479,868,605,470]","trial_type":"fractal-mutation","trial_index":61,"time_elapsed":1115413,"internal_node_id":"0.0-5.0-7.0"},{"group":"square cycles (cube, non-group)","fractal_assignment":["../images/pnk_blu.png","../images/org_blu.png","../images/ylw_pnk.png","../images/blu_wht.png","../images/ylw_slt.png","../images/cyn_red.png","../images/gry_blk.png","../images/grn_red.png"],"mutagen_generator_assignment":[1,0],"goal":3,"start":2,"action_noise":0.1,"location_history":"[2,6,7,6,5,4,7,6,5,1,0,4,7,6,7,3]","action_history":"[1,1,0,0,0,0,0,0,1,1,1,0,0,1,1]","mutagen_history":"[0,0,1,1,1,1,1,1,0,0,0,1,1,0,0]","location_rts":"[3544,995,1489,1908,742,1805,2263,887,1044,822,520,501,624,572,721]","trial_type":"fractal-mutation","trial_index":62,"time_elapsed":1152623,"internal_node_id":"0.0-5.0-8.0"},{"group":"square cycles (cube, non-group)","fractal_assignment":["../images/pnk_blu.png","../images/org_blu.png","../images/ylw_pnk.png","../images/blu_wht.png","../images/ylw_slt.png","../images/cyn_red.png","../images/gry_blk.png","../images/grn_red.png"],"mutagen_generator_assignment":[1,0],"goal":7,"start":3,"action_noise":0.1,"location_history":"[3,2,6,7]","action_history":"[1,1,1]","mutagen_history":"[0,0,0]","location_rts":"[3800,2345,1570]","trial_type":"fractal-mutation","trial_index":63,"time_elapsed":1166871,"internal_node_id":"0.0-5.0-9.0"},{"group":"square cycles (cube, non-group)","fractal_assignment":["../images/pnk_blu.png","../images/org_blu.png","../images/ylw_pnk.png","../images/blu_wht.png","../images/ylw_slt.png","../images/cyn_red.png","../images/gry_blk.png","../images/grn_red.png"],"mutagen_generator_assignment":[1,0],"goal":0,"start":7,"action_noise":0.1,"location_history":"[7,3,2,3,0]","action_history":"[1,1,0,0]","mutagen_history":"[0,0,1,1]","location_rts":"[895,829,464,982]","trial_type":"fractal-mutation","trial_index":64,"time_elapsed":1177615,"internal_node_id":"0.0-5.0-10.0"},{"group":"square cycles (cube, non-group)","fractal_assignment":["../images/pnk_blu.png","../images/org_blu.png","../images/ylw_pnk.png","../images/blu_wht.png","../images/ylw_slt.png","../images/cyn_red.png","../images/gry_blk.png","../images/grn_red.png"],"mutagen_generator_assignment":[1,0],"goal":1,"start":0,"action_noise":0.1,"location_history":"[0,1]","action_history":"[0]","mutagen_history":"[1]","location_rts":"[751]","trial_type":"fractal-mutation","trial_index":65,"time_elapsed":1182895,"internal_node_id":"0.0-5.0-11.0"},{"group":"square cycles (cube, non-group)","fractal_assignment":["../images/pnk_blu.png","../images/org_blu.png","../images/ylw_pnk.png","../images/blu_wht.png","../images/ylw_slt.png","../images/cyn_red.png","../images/gry_blk.png","../images/grn_red.png"],"mutagen_generator_assignment":[1,0],"goal":6,"start":1,"action_noise":0.1,"location_history":"[1,2,3,0,1,0,1,0,1,2,3,0,1,2,6]","action_history":"[0,0,0,1,1,1,1,0,0,0,0,0,0,1]","mutagen_history":"[1,1,1,0,0,0,0,1,1,1,1,1,1,0]","location_rts":"[838,1011,975,1035,784,658,964,1295,613,849,654,789,1054,448]","trial_type":"fractal-mutation","trial_index":66,"time_elapsed":1212677,"internal_node_id":"0.0-5.0-12.0"},{"group":"square cycles (cube, non-group)","fractal_assignment":["../images/pnk_blu.png","../images/org_blu.png","../images/ylw_pnk.png","../images/blu_wht.png","../images/ylw_slt.png","../images/cyn_red.png","../images/gry_blk.png","../images/grn_red.png"],"mutagen_generator_assignment":[1,0],"goal":4,"start":6,"action_noise":0.1,"location_history":"[6,7,3,0,1,2,6,7,3,0,1,0,1,2,3,2,6,7,3,0,1,0,4]","action_history":"[1,1,0,0,0,1,1,1,0,0,1,0,0,0,1,1,1,1,0,0,1,1]","mutagen_history":"[0,0,1,1,1,0,0,0,1,1,0,1,1,1,0,0,0,0,1,1,0,0]","location_rts":"[3762,1378,1294,698,593,467,524,1161,1241,1819,1344,1368,1044,673,625,484,547,943,526,460,429,449]","trial_type":"fractal-mutation","trial_index":67,"time_elapsed":1260425,"internal_node_id":"0.0-5.0-13.0"},{"group":"square cycles (cube, non-group)","fractal_assignment":["../images/pnk_blu.png","../images/org_blu.png","../images/ylw_pnk.png","../images/blu_wht.png","../images/ylw_slt.png","../images/cyn_red.png","../images/gry_blk.png","../images/grn_red.png"],"mutagen_generator_assignment":[1,0],"goal":5,"start":4,"action_noise":0.1,"location_history":"[4,5]","action_history":"[0]","mutagen_history":"[1]","location_rts":"[765]","trial_type":"fractal-mutation","trial_index":68,"time_elapsed":1265720,"internal_node_id":"0.0-5.0-14.0"},{"group":"square cycles (cube, non-group)","fractal_assignment":["../images/pnk_blu.png","../images/org_blu.png","../images/ylw_pnk.png","../images/blu_wht.png","../images/ylw_slt.png","../images/cyn_red.png","../images/gry_blk.png","../images/grn_red.png"],"mutagen_generator_assignment":[1,0],"goal":4,"start":5,"action_noise":0.1,"location_history":"[5,4]","action_history":"[0]","mutagen_history":"[1]","location_rts":"[1268]","trial_type":"fractal-mutation","trial_index":69,"time_elapsed":1271517,"internal_node_id":"0.0-5.0-15.0"},{"group":"square cycles (cube, non-group)","fractal_assignment":["../images/pnk_blu.png","../images/org_blu.png","../images/ylw_pnk.png","../images/blu_wht.png","../images/ylw_slt.png","../images/cyn_red.png","../images/gry_blk.png","../images/grn_red.png"],"mutagen_generator_assignment":[1,0],"goal":0,"start":4,"action_noise":0.1,"location_history":"[4,7,6,5,4,7,6,5,4,7,6,7,6,5,1,2,3,2,3,0]","action_history":"[0,0,1,0,0,1,1,0,0,1,1,0,0,0,0,1,1,0,0]","mutagen_history":"[1,1,0,1,1,0,0,1,1,0,0,1,1,1,1,0,0,1,1]","location_rts":"[935,852,891,417,702,474,635,351,579,520,434,266,297,288,471,349,451,494,311]","trial_type":"fractal-mutation","trial_index":70,"time_elapsed":1304155,"internal_node_id":"0.0-5.0-16.0"},{"group":"square cycles (cube, non-group)","fractal_assignment":["../images/pnk_blu.png","../images/org_blu.png","../images/ylw_pnk.png","../images/blu_wht.png","../images/ylw_slt.png","../images/cyn_red.png","../images/gry_blk.png","../images/grn_red.png"],"mutagen_generator_assignment":[1,0],"goal":7,"start":0,"action_noise":0.1,"location_history":"[0,4,7]","action_history":"[0,0]","mutagen_history":"[1,1]","location_rts":"[851,685]","trial_type":"fractal-mutation","trial_index":71,"time_elapsed":1311252,"internal_node_id":"0.0-5.0-17.0"},{"group":"square cycles (cube, non-group)","fractal_assignment":["../images/pnk_blu.png","../images/org_blu.png","../images/ylw_pnk.png","../images/blu_wht.png","../images/ylw_slt.png","../images/cyn_red.png","../images/gry_blk.png","../images/grn_red.png"],"mutagen_generator_assignment":[1,0],"goal":2,"start":7,"action_noise":0.1,"location_history":"[7,6,5,4,7,3,0,1,0,1,0,4,7,6,7,3,0,1,2]","action_history":"[0,0,0,0,0,0,1,1,0,1,1,0,0,1,1,0,0,0]","mutagen_history":"[1,1,1,1,1,1,0,0,1,0,0,1,1,0,0,1,1,1]","location_rts":"[1000,923,806,402,429,847,438,437,388,612,495,543,336,706,59,389,468,378]","trial_type":"fractal-mutation","trial_index":72,"time_elapsed":1342777,"internal_node_id":"0.0-5.0-18.0"},{"group":"square cycles (cube, non-group)","fractal_assignment":["../images/pnk_blu.png","../images/org_blu.png","../images/ylw_pnk.png","../images/blu_wht.png","../images/ylw_slt.png","../images/cyn_red.png","../images/gry_blk.png","../images/grn_red.png"],"mutagen_generator_assignment":[1,0],"goal":1,"start":2,"action_noise":0.1,"location_history":"[2,3,0,1]","action_history":"[0,0,0]","mutagen_history":"[1,1,1]","location_rts":"[748,1133,531]","trial_type":"fractal-mutation","trial_index":73,"time_elapsed":1351782,"internal_node_id":"0.0-5.0-19.0"},{"group":"square cycles (cube, non-group)","fractal_assignment":["../images/pnk_blu.png","../images/org_blu.png","../images/ylw_pnk.png","../images/blu_wht.png","../images/ylw_slt.png","../images/cyn_red.png","../images/gry_blk.png","../images/grn_red.png"],"mutagen_generator_assignment":[1,0],"goal":3,"start":1,"action_noise":0.1,"location_history":"[1,2,6,5,4,5,4,5,1,0,4,5,1,0,4,7,6,5,4,7,6,7,3]","action_history":"[0,0,0,1,1,0,0,1,1,1,1,1,1,1,0,0,0,0,0,0,1,1]","mutagen_history":"[1,1,1,0,0,1,1,0,0,0,0,0,0,0,1,1,1,1,1,1,0,0]","location_rts":"[583,535,826,484,614,810,610,453,664,726,557,377,707,497,553,441,405,442,698,462,728,711]","trial_type":"fractal-mutation","trial_index":74,"time_elapsed":1390551,"internal_node_id":"0.0-5.0-20.0"},{"group":"square cycles (cube, non-group)","fractal_assignment":["../images/pnk_blu.png","../images/org_blu.png","../images/ylw_pnk.png","../images/blu_wht.png","../images/ylw_slt.png","../images/cyn_red.png","../images/gry_blk.png","../images/grn_red.png"],"mutagen_generator_assignment":[1,0],"goal":6,"start":3,"action_noise":0.1,"location_history":"[3,0,1,2,3,2,6]","action_history":"[0,0,0,0,1,1]","mutagen_history":"[1,1,1,1,0,0]","location_rts":"[1080,583,503,687,682,538]","trial_type":"fractal-mutation","trial_index":75,"time_elapsed":1404255,"internal_node_id":"0.0-5.0-21.0"},{"group":"square cycles (cube, non-group)","fractal_assignment":["../images/pnk_blu.png","../images/org_blu.png","../images/ylw_pnk.png","../images/blu_wht.png","../images/ylw_slt.png","../images/cyn_red.png","../images/gry_blk.png","../images/grn_red.png"],"mutagen_generator_assignment":[1,0],"goal":5,"start":6,"action_noise":0.1,"location_history":"[6,5]","action_history":"[0]","mutagen_history":"[1]","location_rts":"[464]","trial_type":"fractal-mutation","trial_index":76,"time_elapsed":1409245,"internal_node_id":"0.0-5.0-22.0"},{"group":"square cycles (cube, non-group)","fractal_assignment":["../images/pnk_blu.png","../images/org_blu.png","../images/ylw_pnk.png","../images/blu_wht.png","../images/ylw_slt.png","../images/cyn_red.png","../images/gry_blk.png","../images/grn_red.png"],"mutagen_generator_assignment":[1,0],"goal":3,"start":5,"action_noise":0.1,"location_history":"[5,4,5,1,0,4,5,1,0,4,5,1,2,3]","action_history":"[0,1,1,1,1,1,1,1,1,1,1,0,0]","mutagen_history":"[1,0,0,0,0,0,0,0,0,0,0,1,1]","location_rts":"[710,1320,446,610,461,753,1110182,1989,694,1025,884,506,413]","trial_type":"fractal-mutation","trial_index":77,"time_elapsed":2545934,"internal_node_id":"0.0-5.0-23.0"},{"group":"square cycles (cube, non-group)","fractal_assignment":["../images/pnk_blu.png","../images/org_blu.png","../images/ylw_pnk.png","../images/blu_wht.png","../images/ylw_slt.png","../images/cyn_red.png","../images/gry_blk.png","../images/grn_red.png"],"mutagen_generator_assignment":[1,0],"goal":0,"start":3,"action_noise":0.1,"location_history":"[3,0]","action_history":"[0]","mutagen_history":"[1]","location_rts":"[1846]","trial_type":"fractal-mutation","trial_index":78,"time_elapsed":2552308,"internal_node_id":"0.0-5.0-24.0"},{"group":"square cycles (cube, non-group)","fractal_assignment":["../images/pnk_blu.png","../images/org_blu.png","../images/ylw_pnk.png","../images/blu_wht.png","../images/ylw_slt.png","../images/cyn_red.png","../images/gry_blk.png","../images/grn_red.png"],"mutagen_generator_assignment":[1,0],"goal":7,"start":0,"action_noise":0.1,"location_history":"[0,1,0,4,7]","action_history":"[0,1,1,0]","mutagen_history":"[1,0,0,1]","location_rts":"[714,605,428,524]","trial_type":"fractal-mutation","trial_index":79,"time_elapsed":2562170,"internal_node_id":"0.0-5.0-25.0"},{"group":"square cycles (cube, non-group)","fractal_assignment":["../images/pnk_blu.png","../images/org_blu.png","../images/ylw_pnk.png","../images/blu_wht.png","../images/ylw_slt.png","../images/cyn_red.png","../images/gry_blk.png","../images/grn_red.png"],"mutagen_generator_assignment":[1,0],"goal":2,"start":7,"action_noise":0.1,"location_history":"[7,6,5,4,7,3,0,1,0,1,2]","action_history":"[0,0,0,0,1,1,1,1,0,0]","mutagen_history":"[1,1,1,1,0,0,0,0,1,1]","location_rts":"[643,567,437,551,314,572,591,486,360,726]","trial_type":"fractal-mutation","trial_index":80,"time_elapsed":2581174,"internal_node_id":"0.0-5.0-26.0"},{"group":"square cycles (cube, non-group)","fractal_assignment":["../images/pnk_blu.png","../images/org_blu.png","../images/ylw_pnk.png","../images/blu_wht.png","../images/ylw_slt.png","../images/cyn_red.png","../images/gry_blk.png","../images/grn_red.png"],"mutagen_generator_assignment":[1,0],"goal":1,"start":2,"action_noise":0.1,"location_history":"[2,3,0,4,7,6,7,3,2,3,0,1]","action_history":"[0,0,1,0,0,1,1,1,0,0,0]","mutagen_history":"[1,1,0,1,1,0,0,0,1,1,1]","location_rts":"[893,1151,903,408,440,325,370,393,381,766,487]","trial_type":"fractal-mutation","trial_index":81,"time_elapsed":2602438,"internal_node_id":"0.0-5.0-27.0"},{"group":"square cycles (cube, non-group)","fractal_assignment":["../images/pnk_blu.png","../images/org_blu.png","../images/ylw_pnk.png","../images/blu_wht.png","../images/ylw_slt.png","../images/cyn_red.png","../images/gry_blk.png","../images/grn_red.png"],"mutagen_generator_assignment":[1,0],"goal":5,"start":1,"action_noise":0.1,"location_history":"[1,2,3,0,4,5]","action_history":"[0,0,0,1,1]","mutagen_history":"[1,1,1,0,0]","location_rts":"[2030,702,850,399,413]","trial_type":"fractal-mutation","trial_index":82,"time_elapsed":2615430,"internal_node_id":"0.0-5.0-28.0"},{"group":"square cycles (cube, non-group)","fractal_assignment":["../images/pnk_blu.png","../images/org_blu.png","../images/ylw_pnk.png","../images/blu_wht.png","../images/ylw_slt.png","../images/cyn_red.png","../images/gry_blk.png","../images/grn_red.png"],"mutagen_generator_assignment":[1,0],"goal":4,"start":5,"action_noise":0.1,"location_history":"[5,1,0,4]","action_history":"[0,1,1]","mutagen_history":"[1,0,0]","location_rts":"[372,735,368]","trial_type":"fractal-mutation","trial_index":83,"time_elapsed":2623452,"internal_node_id":"0.0-5.0-29.0"},{"group":"square cycles (cube, non-group)","fractal_assignment":["../images/pnk_blu.png","../images/org_blu.png","../images/ylw_pnk.png","../images/blu_wht.png","../images/ylw_slt.png","../images/cyn_red.png","../images/gry_blk.png","../images/grn_red.png"],"mutagen_generator_assignment":[1,0],"goal":6,"start":4,"action_noise":0.1,"location_history":"[4,7,6]","action_history":"[0,0]","mutagen_history":"[1,1]","location_rts":"[297,485]","trial_type":"fractal-mutation","trial_index":84,"time_elapsed":2629789,"internal_node_id":"0.0-5.0-30.0"},{"group":"square cycles (cube, non-group)","fractal_assignment":["../images/pnk_blu.png","../images/org_blu.png","../images/ylw_pnk.png","../images/blu_wht.png","../images/ylw_slt.png","../images/cyn_red.png","../images/gry_blk.png","../images/grn_red.png"],"mutagen_generator_assignment":[1,0],"goal":4,"start":6,"action_noise":0.1,"location_history":"[6,5,1,0,4]","action_history":"[0,0,1,1]","mutagen_history":"[1,1,0,0]","location_rts":"[400,486,450,367]","trial_type":"fractal-mutation","trial_index":85,"time_elapsed":2639063,"internal_node_id":"0.0-5.0-31.0"},{"group":"square cycles (cube, non-group)","fractal_assignment":["../images/pnk_blu.png","../images/org_blu.png","../images/ylw_pnk.png","../images/blu_wht.png","../images/ylw_slt.png","../images/cyn_red.png","../images/gry_blk.png","../images/grn_red.png"],"mutagen_generator_assignment":[1,0],"goal":2,"start":4,"action_noise":0.1,"location_history":"[4,7,6,5,1,0,1,2]","action_history":"[0,0,1,1,1,0,0]","mutagen_history":"[1,1,0,0,0,1,1]","location_rts":"[477,363,455,355,423,465,303]","trial_type":"fractal-mutation","trial_index":86,"time_elapsed":2652551,"internal_node_id":"0.0-5.0-32.0"},{"group":"square cycles (cube, non-group)","fractal_assignment":["../images/pnk_blu.png","../images/org_blu.png","../images/ylw_pnk.png","../images/blu_wht.png","../images/ylw_slt.png","../images/cyn_red.png","../images/gry_blk.png","../images/grn_red.png"],"mutagen_generator_assignment":[1,0],"goal":0,"start":2,"action_noise":0.1,"location_history":"[2,3,2,6,5,1,0]","action_history":"[0,1,1,0,1,1]","mutagen_history":"[1,0,0,1,0,0]","location_rts":"[321,308,409,378,356,352]","trial_type":"fractal-mutation","trial_index":87,"time_elapsed":2664269,"internal_node_id":"0.0-5.0-33.0"},{"group":"square cycles (cube, non-group)","fractal_assignment":["../images/pnk_blu.png","../images/org_blu.png","../images/ylw_pnk.png","../images/blu_wht.png","../images/ylw_slt.png","../images/cyn_red.png","../images/gry_blk.png","../images/grn_red.png"],"mutagen_generator_assignment":[1,0],"goal":5,"start":0,"action_noise":0.1,"location_history":"[0,1,0,4,7,3,2,6,7,6,5]","action_history":"[0,0,1,1,1,0,0,1,0,0]","mutagen_history":"[1,1,0,0,0,1,1,0,1,1]","location_rts":"[419,299,354,440,315,361,268,399,337,318]","trial_type":"fractal-mutation","trial_index":88,"time_elapsed":2681531,"internal_node_id":"0.0-5.0-34.0"},{"group":"square cycles (cube, non-group)","fractal_assignment":["../images/pnk_blu.png","../images/org_blu.png","../images/ylw_pnk.png","../images/blu_wht.png","../images/ylw_slt.png","../images/cyn_red.png","../images/gry_blk.png","../images/grn_red.png"],"mutagen_generator_assignment":[1,0],"goal":1,"start":5,"action_noise":0.1,"location_history":"[5,4,7,3,2,6,7,3,0,1]","action_history":"[0,0,1,1,1,1,1,0,0]","mutagen_history":"[1,1,0,0,0,0,0,1,1]","location_rts":"[336,646,473,661,866,1414,591,421,335]","trial_type":"fractal-mutation","trial_index":89,"time_elapsed":2699946,"internal_node_id":"0.0-5.0-35.0"},{"group":"square cycles (cube, non-group)","fractal_assignment":["../images/pnk_blu.png","../images/org_blu.png","../images/ylw_pnk.png","../images/blu_wht.png","../images/ylw_slt.png","../images/cyn_red.png","../images/gry_blk.png","../images/grn_red.png"],"mutagen_generator_assignment":[1,0],"goal":7,"start":1,"action_noise":0.1,"location_history":"[1,2,3,0,4,5,1,2,6,7]","action_history":"[0,0,0,1,1,1,0,1,1]","mutagen_history":"[1,1,1,0,0,0,1,0,0]","location_rts":"[330,309,357,420,410,346,349,294,324]","trial_type":"fractal-mutation","trial_index":90,"time_elapsed":2715762,"internal_node_id":"0.0-5.0-36.0"},{"group":"square cycles (cube, non-group)","fractal_assignment":["../images/pnk_blu.png","../images/org_blu.png","../images/ylw_pnk.png","../images/blu_wht.png","../images/ylw_slt.png","../images/cyn_red.png","../images/gry_blk.png","../images/grn_red.png"],"mutagen_generator_assignment":[1,0],"goal":3,"start":7,"action_noise":0.1,"location_history":"[7,3]","action_history":"[1]","mutagen_history":"[0]","location_rts":"[545]","trial_type":"fractal-mutation","trial_index":91,"time_elapsed":2720815,"internal_node_id":"0.0-5.0-37.0"},{"group":"square cycles (cube, non-group)","fractal_assignment":["../images/pnk_blu.png","../images/org_blu.png","../images/ylw_pnk.png","../images/blu_wht.png","../images/ylw_slt.png","../images/cyn_red.png","../images/gry_blk.png","../images/grn_red.png"],"mutagen_generator_assignment":[1,0],"goal":6,"start":3,"action_noise":0.1,"location_history":"[3,0,1,2,6]","action_history":"[0,0,0,1]","mutagen_history":"[1,1,1,0]","location_rts":"[566,316,373,403]","trial_type":"fractal-mutation","trial_index":92,"time_elapsed":2730066,"internal_node_id":"0.0-5.0-38.0"},{"group":"square cycles (cube, non-group)","fractal_assignment":["../images/pnk_blu.png","../images/org_blu.png","../images/ylw_pnk.png","../images/blu_wht.png","../images/ylw_slt.png","../images/cyn_red.png","../images/gry_blk.png","../images/grn_red.png"],"mutagen_generator_assignment":[1,0],"goal":2,"start":6,"action_noise":0.1,"location_history":"[6,7,3,0,1,2]","action_history":"[1,1,1,0,0]","mutagen_history":"[0,0,0,1,1]","location_rts":"[410,354,444,442,292]","trial_type":"fractal-mutation","trial_index":93,"time_elapsed":2740590,"internal_node_id":"0.0-5.0-39.0"},{"group":"square cycles (cube, non-group)","fractal_assignment":["../images/pnk_blu.png","../images/org_blu.png","../images/ylw_pnk.png","../images/blu_wht.png","../images/ylw_slt.png","../images/cyn_red.png","../images/gry_blk.png","../images/grn_red.png"],"mutagen_generator_assignment":[1,0],"goal":1,"start":2,"action_noise":0.1,"location_history":"[2,6,7,6,5,4,5,1]","action_history":"[1,1,0,0,0,1,1]","mutagen_history":"[0,0,1,1,1,0,0]","location_rts":"[512,722,439,319,306,413,572]","trial_type":"fractal-mutation","trial_index":94,"time_elapsed":2754498,"internal_node_id":"0.0-5.0-40.0"},{"group":"square cycles (cube, non-group)","fractal_assignment":["../images/pnk_blu.png","../images/org_blu.png","../images/ylw_pnk.png","../images/blu_wht.png","../images/ylw_slt.png","../images/cyn_red.png","../images/gry_blk.png","../images/grn_red.png"],"mutagen_generator_assignment":[1,0],"goal":0,"start":1,"action_noise":0.1,"location_history":"[1,2,3,2,6,5,4,7,6,7,3,2,6,7,6,5,4,5,1,2,6,7,3,2,3,0]","action_history":"[0,0,1,1,0,0,0,0,1,1,1,1,1,0,0,0,1,1,0,1,1,1,1,0,0]","mutagen_history":"[1,1,0,0,1,1,1,1,0,0,0,0,0,1,1,1,0,0,1,0,0,0,0,1,1]","location_rts":"[348,377,271,298,412,238,274,287,411,271,279,379,399,257,228,274,329,473,127,756,436,389,354,437,256]","trial_type":"fractal-mutation","trial_index":95,"time_elapsed":2792000,"internal_node_id":"0.0-5.0-41.0"},{"group":"square cycles (cube, non-group)","fractal_assignment":["../images/pnk_blu.png","../images/org_blu.png","../images/ylw_pnk.png","../images/blu_wht.png","../images/ylw_slt.png","../images/cyn_red.png","../images/gry_blk.png","../images/grn_red.png"],"mutagen_generator_assignment":[1,0],"goal":4,"start":0,"action_noise":0.1,"location_history":"[0,1,2,3,0,4]","action_history":"[0,0,0,0,1]","mutagen_history":"[1,1,1,1,0]","location_rts":"[421,392,284,256,445]","trial_type":"fractal-mutation","trial_index":96,"time_elapsed":2802413,"internal_node_id":"0.0-5.0-42.0"},{"group":"square cycles (cube, non-group)","fractal_assignment":["../images/pnk_blu.png","../images/org_blu.png","../images/ylw_pnk.png","../images/blu_wht.png","../images/ylw_slt.png","../images/cyn_red.png","../images/gry_blk.png","../images/grn_red.png"],"mutagen_generator_assignment":[1,0],"goal":6,"start":4,"action_noise":0.1,"location_history":"[4,5,1,0,4,7,6]","action_history":"[1,1,1,1,0,0]","mutagen_history":"[0,0,0,0,1,1]","location_rts":"[279,349,279,596,499,309]","trial_type":"fractal-mutation","trial_index":97,"time_elapsed":2814309,"internal_node_id":"0.0-5.0-43.0"},{"group":"square cycles (cube, non-group)","fractal_assignment":["../images/pnk_blu.png","../images/org_blu.png","../images/ylw_pnk.png","../images/blu_wht.png","../images/ylw_slt.png","../images/cyn_red.png","../images/gry_blk.png","../images/grn_red.png"],"mutagen_generator_assignment":[1,0],"goal":3,"start":6,"action_noise":0.1,"location_history":"[6,5,4,5,1,2,6,7,3]","action_history":"[0,0,1,1,0,1,1,1]","mutagen_history":"[1,1,0,0,1,0,0,0]","location_rts":"[326,312,409,417,378,278,363,476]","trial_type":"fractal-mutation","trial_index":98,"time_elapsed":2828914,"internal_node_id":"0.0-5.0-44.0"},{"group":"square cycles (cube, non-group)","fractal_assignment":["../images/pnk_blu.png","../images/org_blu.png","../images/ylw_pnk.png","../images/blu_wht.png","../images/ylw_slt.png","../images/cyn_red.png","../images/gry_blk.png","../images/grn_red.png"],"mutagen_generator_assignment":[1,0],"goal":7,"start":3,"action_noise":0.1,"location_history":"[3,2,6,7]","action_history":"[1,1,1]","mutagen_history":"[0,0,0]","location_rts":"[322,287,374]","trial_type":"fractal-mutation","trial_index":99,"time_elapsed":2836417,"internal_node_id":"0.0-5.0-45.0"},{"group":"square cycles (cube, non-group)","fractal_assignment":["../images/pnk_blu.png","../images/org_blu.png","../images/ylw_pnk.png","../images/blu_wht.png","../images/ylw_slt.png","../images/cyn_red.png","../images/gry_blk.png","../images/grn_red.png"],"mutagen_generator_assignment":[1,0],"goal":5,"start":7,"action_noise":0.1,"location_history":"[7,6,5]","action_history":"[0,0]","mutagen_history":"[1,1]","location_rts":"[363,323]","trial_type":"fractal-mutation","trial_index":100,"time_elapsed":2842658,"internal_node_id":"0.0-5.0-46.0"},{"group":"square cycles (cube, non-group)","fractal_assignment":["../images/pnk_blu.png","../images/org_blu.png","../images/ylw_pnk.png","../images/blu_wht.png","../images/ylw_slt.png","../images/cyn_red.png","../images/gry_blk.png","../images/grn_red.png"],"mutagen_generator_assignment":[1,0],"goal":1,"start":5,"action_noise":0.1,"location_history":"[5,4,7,6,7,3,2,3,0,4,5,1]","action_history":"[0,0,0,1,1,1,0,0,1,1,1]","mutagen_history":"[1,1,1,0,0,0,1,1,0,0,0]","location_rts":"[330,294,444,629,336,567,889,464,432,379,321]","trial_type":"fractal-mutation","trial_index":101,"time_elapsed":2862463,"internal_node_id":"0.0-5.0-47.0"},{"group":"square cycles (cube, non-group)","fractal_assignment":["../images/pnk_blu.png","../images/org_blu.png","../images/ylw_pnk.png","../images/blu_wht.png","../images/ylw_slt.png","../images/cyn_red.png","../images/gry_blk.png","../images/grn_red.png"],"mutagen_generator_assignment":[1,0],"goal":6,"start":1,"action_noise":0.1,"location_history":"[1,0,4,5,1,0,1,0,1,2,6]","action_history":"[1,1,1,0,1,1,1,0,0,1]","mutagen_history":"[0,0,0,1,0,0,0,1,1,0]","location_rts":"[335,424,467,664,416,408,390,422,321,330]","trial_type":"fractal-mutation","trial_index":102,"time_elapsed":2880309,"internal_node_id":"0.0-5.0-48.0"},{"group":"square cycles (cube, non-group)","fractal_assignment":["../images/pnk_blu.png","../images/org_blu.png","../images/ylw_pnk.png","../images/blu_wht.png","../images/ylw_slt.png","../images/cyn_red.png","../images/gry_blk.png","../images/grn_red.png"],"mutagen_generator_assignment":[1,0],"goal":0,"start":6,"action_noise":0.1,"location_history":"[6,7,3,0]","action_history":"[1,1,0]","mutagen_history":"[0,0,1]","location_rts":"[309,404,404]","trial_type":"fractal-mutation","trial_index":103,"time_elapsed":2887964,"internal_node_id":"0.0-5.0-49.0"},{"view_history":"[{\"page_index\":0,\"viewing_time\":7508}]","rt":7508,"trial_type":"instructions","trial_index":104,"time_elapsed":2896472,"internal_node_id":"0.0-6.0"},{"rt":2035,"responses":"{\"Q0\":\"\"}","trial_type":"survey-text","trial_index":105,"time_elapsed":2899517,"internal_node_id":"0.0-7.0"}]