[{"view_history":"[{\"page_index\":0,\"viewing_time\":5325},{\"page_index\":1,\"viewing_time\":5479}]","rt":10807,"trial_type":"instructions","trial_index":0,"time_elapsed":10809,"internal_node_id":"0.0-0.0"},{"view_history":"[{\"page_index\":0,\"viewing_time\":1997},{\"page_index\":1,\"viewing_time\":32417}]","rt":34416,"trial_type":"instructions","trial_index":1,"time_elapsed":46230,"internal_node_id":"0.0-1.0"},{"group":"square cycles (cube, non-group)","room_assignment":["red","green","grey","brown","blue","purple","yellow","pink"],"door_color_assignment":["white","black"],"door_generator_assignment":[1,0],"goal":6,"start":3,"action_noise":0.1,"location_history":"[3,0,4,7,6]","action_history":"[0,1,0,0]","door_history":"[1,0,1,1]","location_rts":"[5822,5270,396,394]","trial_type":"two-door-navigation","trial_index":2,"time_elapsed":66053,"internal_node_id":"0.0-2.0-0.0"},{"group":"square cycles (cube, non-group)","room_assignment":["red","green","grey","brown","blue","purple","yellow","pink"],"door_color_assignment":["white","black"],"door_generator_assignment":[1,0],"goal":1,"start":6,"action_noise":0.1,"location_history":"[6,5,4,7,3,0,4,5,1]","action_history":"[0,0,0,1,1,1,1,1]","door_history":"[1,1,1,0,0,0,0,0]","location_rts":"[2055,1235,597,489,330,350,379,296]","trial_type":"two-door-navigation","trial_index":3,"time_elapsed":84182,"internal_node_id":"0.0-2.0-1.0"},{"group":"square cycles (cube, non-group)","room_assignment":["red","green","grey","brown","blue","purple","yellow","pink"],"door_color_assignment":["white","black"],"door_generator_assignment":[1,0],"goal":2,"start":1,"action_noise":0.1,"location_history":"[1,2]","action_history":"[0]","door_history":"[1]","location_rts":"[3030]","trial_type":"two-door-navigation","trial_index":4,"time_elapsed":91842,"internal_node_id":"0.0-2.0-2.0"},{"group":"square cycles (cube, non-group)","room_assignment":["red","green","grey","brown","blue","purple","yellow","pink"],"door_color_assignment":["white","black"],"door_generator_assignment":[1,0],"goal":0,"start":2,"action_noise":0.1,"location_history":"[2,3,0]","action_history":"[0,0]","door_history":"[1,1]","location_rts":"[1889,726]","trial_type":"two-door-navigation","trial_index":5,"time_elapsed":100181,"internal_node_id":"0.0-2.0-3.0"},{"group":"square cycles (cube, non-group)","room_assignment":["red","green","grey","brown","blue","purple","yellow","pink"],"door_color_assignment":["white","black"],"door_generator_assignment":[1,0],"goal":7,"start":0,"action_noise":0.1,"location_history":"[0,1,2,3,2,3,2,3,2,6,5,1,0,4,5,1,2,3,0,4,7]","action_history":"[0,0,0,0,0,0,1,1,1,0,1,1,1,1,1,0,0,0,1,0]","door_history":"[1,1,1,1,1,1,0,0,0,1,0,0,0,0,0,1,1,1,0,1]","location_rts":"[2647,403,646,545,1318,643,2191,372,495,751,468,353,391,707,498,313,262,373,112,343]","trial_type":"two-door-navigation","trial_index":6,"time_elapsed":139551,"internal_node_id":"0.0-2.0-4.0"},{"group":"square cycles (cube, non-group)","room_assignment":["red","green","grey","brown","blue","purple","yellow","pink"],"door_color_assignment":["white","black"],"door_generator_assignment":[1,0],"goal":5,"start":7,"action_noise":0.1,"location_history":"[7,3,2,3,2,6,7,6,5]","action_history":"[1,1,1,1,1,1,0,0]","door_history":"[0,0,0,0,0,0,1,1]","location_rts":"[900,693,1288,441,859,523,472,293]","trial_type":"two-door-navigation","trial_index":7,"time_elapsed":157360,"internal_node_id":"0.0-2.0-5.0"},{"group":"square cycles (cube, non-group)","room_assignment":["red","green","grey","brown","blue","purple","yellow","pink"],"door_color_assignment":["white","black"],"door_generator_assignment":[1,0],"goal":4,"start":5,"action_noise":0.1,"location_history":"[5,4]","action_history":"[0]","door_history":"[1]","location_rts":"[1539]","trial_type":"two-door-navigation","trial_index":8,"time_elapsed":163530,"internal_node_id":"0.0-2.0-6.0"},{"group":"square cycles (cube, non-group)","room_assignment":["red","green","grey","brown","blue","purple","yellow","pink"],"door_color_assignment":["white","black"],"door_generator_assignment":[1,0],"goal":2,"start":4,"action_noise":0.1,"location_history":"[4,5,4,5,1,0,4,7,3,0,1,2]","action_history":"[1,1,0,1,1,1,1,0,0,1,0]","door_history":"[0,0,1,0,0,0,0,1,1,0,1]","location_rts":"[786,571,1029,329,301,306,761,448,212,1100,1243]","trial_type":"two-door-navigation","trial_index":9,"time_elapsed":186230,"internal_node_id":"0.0-2.0-7.0"},{"group":"square cycles (cube, non-group)","room_assignment":["red","green","grey","brown","blue","purple","yellow","pink"],"door_color_assignment":["white","black"],"door_generator_assignment":[1,0],"goal":3,"start":2,"action_noise":0.1,"location_history":"[2,3]","action_history":"[0]","door_history":"[1]","location_rts":"[1861]","trial_type":"two-door-navigation","trial_index":10,"time_elapsed":192719,"internal_node_id":"0.0-2.0-8.0"},{"group":"square cycles (cube, non-group)","room_assignment":["red","green","grey","brown","blue","purple","yellow","pink"],"door_color_assignment":["white","black"],"door_generator_assignment":[1,0],"goal":7,"start":3,"action_noise":0.1,"location_history":"[3,2,6,7]","action_history":"[1,1,1]","door_history":"[0,0,0]","location_rts":"[1499,269,18]","trial_type":"two-door-navigation","trial_index":11,"time_elapsed":201340,"internal_node_id":"0.0-2.0-9.0"},{"group":"square cycles (cube, non-group)","room_assignment":["red","green","grey","brown","blue","purple","yellow","pink"],"door_color_assignment":["white","black"],"door_generator_assignment":[1,0],"goal":0,"start":7,"action_noise":0.1,"location_history":"[7,6,5,4,5,4,7,6,5,4,7,3,2,3,0]","action_history":"[0,0,0,1,0,0,0,0,0,0,1,1,1,0]","door_history":"[1,1,1,0,1,1,1,1,1,1,0,0,0,1]","location_rts":"[1086,293,367,400,411,243,317,281,388,315,248,355,288,231]","trial_type":"two-door-navigation","trial_index":12,"time_elapsed":225526,"internal_node_id":"0.0-2.0-10.0"},{"group":"square cycles (cube, non-group)","room_assignment":["red","green","grey","brown","blue","purple","yellow","pink"],"door_color_assignment":["white","black"],"door_generator_assignment":[1,0],"goal":1,"start":0,"action_noise":0.1,"location_history":"[0,4,7,3,0,1]","action_history":"[1,1,1,0,0]","door_history":"[0,0,0,1,1]","location_rts":"[380,357,288,206,216]","trial_type":"two-door-navigation","trial_index":13,"time_elapsed":235982,"internal_node_id":"0.0-2.0-11.0"},{"group":"square cycles (cube, non-group)","room_assignment":["red","green","grey","brown","blue","purple","yellow","pink"],"door_color_assignment":["white","black"],"door_generator_assignment":[1,0],"goal":6,"start":1,"action_noise":0.1,"location_history":"[1,0,4,5,4,7,6]","action_history":"[1,1,1,0,0,0]","door_history":"[0,0,0,1,1,1]","location_rts":"[1128,296,344,295,295,551]","trial_type":"two-door-navigation","trial_index":14,"time_elapsed":249038,"internal_node_id":"0.0-2.0-12.0"},{"group":"square cycles (cube, non-group)","room_assignment":["red","green","grey","brown","blue","purple","yellow","pink"],"door_color_assignment":["white","black"],"door_generator_assignment":[1,0],"goal":4,"start":6,"action_noise":0.1,"location_history":"[6,5,1,0,1,0,1,2,6,7,3,0,4]","action_history":"[1,1,1,0,0,0,0,1,1,1,1,1]","door_history":"[0,0,0,1,1,1,1,0,0,0,0,0]","location_rts":"[773,375,285,367,83,325,311,69,283,551,541,597]","trial_type":"two-door-navigation","trial_index":15,"time_elapsed":270318,"internal_node_id":"0.0-2.0-13.0"},{"group":"square cycles (cube, non-group)","room_assignment":["red","green","grey","brown","blue","purple","yellow","pink"],"door_color_assignment":["white","black"],"door_generator_assignment":[1,0],"goal":5,"start":4,"action_noise":0.1,"location_history":"[4,7,6,5]","action_history":"[0,0,0]","door_history":"[1,1,1]","location_rts":"[1452,1789,707]","trial_type":"two-door-navigation","trial_index":16,"time_elapsed":281108,"internal_node_id":"0.0-2.0-14.0"},{"group":"square cycles (cube, non-group)","room_assignment":["red","green","grey","brown","blue","purple","yellow","pink"],"door_color_assignment":["white","black"],"door_generator_assignment":[1,0],"goal":4,"start":5,"action_noise":0.1,"location_history":"[5,4]","action_history":"[1]","door_history":"[0]","location_rts":"[4108]","trial_type":"two-door-navigation","trial_index":17,"time_elapsed":289836,"internal_node_id":"0.0-2.0-15.0"},{"group":"square cycles (cube, non-group)","room_assignment":["red","green","grey","brown","blue","purple","yellow","pink"],"door_color_assignment":["white","black"],"door_generator_assignment":[1,0],"goal":0,"start":4,"action_noise":0.1,"location_history":"[4,7,3,2,6,7,3,2,3,0]","action_history":"[0,1,1,1,1,0,1,0,0]","door_history":"[1,0,0,0,0,1,0,1,1]","location_rts":"[629,563,436,310,782,360,725,420,872]","trial_type":"two-door-navigation","trial_index":18,"time_elapsed":308318,"internal_node_id":"0.0-2.0-16.0"},{"group":"square cycles (cube, non-group)","room_assignment":["red","green","grey","brown","blue","purple","yellow","pink"],"door_color_assignment":["white","black"],"door_generator_assignment":[1,0],"goal":7,"start":0,"action_noise":0.1,"location_history":"[0,1,2,3,2,3,2,6,5,4,7]","action_history":"[0,0,0,1,1,1,1,0,0,0]","door_history":"[1,1,1,0,0,0,0,1,1,1]","location_rts":"[957,408,66,161,244,263,240,74,143,188]","trial_type":"two-door-navigation","trial_index":19,"time_elapsed":325608,"internal_node_id":"0.0-2.0-17.0"},{"group":"square cycles (cube, non-group)","room_assignment":["red","green","grey","brown","blue","purple","yellow","pink"],"door_color_assignment":["white","black"],"door_generator_assignment":[1,0],"goal":2,"start":7,"action_noise":0.1,"location_history":"[7,3,2]","action_history":"[1,1]","door_history":"[0,0]","location_rts":"[2057,288]","trial_type":"two-door-navigation","trial_index":20,"time_elapsed":333697,"internal_node_id":"0.0-2.0-18.0"},{"group":"square cycles (cube, non-group)","room_assignment":["red","green","grey","brown","blue","purple","yellow","pink"],"door_color_assignment":["white","black"],"door_generator_assignment":[1,0],"goal":1,"start":2,"action_noise":0.1,"location_history":"[2,3,0,1]","action_history":"[0,0,0]","door_history":"[1,1,1]","location_rts":"[662,423,439]","trial_type":"two-door-navigation","trial_index":21,"time_elapsed":342048,"internal_node_id":"0.0-2.0-19.0"},{"group":"square cycles (cube, non-group)","room_assignment":["red","green","grey","brown","blue","purple","yellow","pink"],"door_color_assignment":["white","black"],"door_generator_assignment":[1,0],"goal":3,"start":1,"action_noise":0.1,"location_history":"[1,0,4,5,1,2,6,7,6,5,4,5,4,7,3]","action_history":"[1,1,1,1,1,1,0,0,0,0,1,1,1,1]","door_history":"[0,0,0,0,0,0,1,1,1,1,0,0,0,0]","location_rts":"[1000,366,639,410,370,364,328,287,332,380,442,332,291,392]","trial_type":"two-door-navigation","trial_index":22,"time_elapsed":366957,"internal_node_id":"0.0-2.0-20.0"},{"group":"square cycles (cube, non-group)","room_assignment":["red","green","grey","brown","blue","purple","yellow","pink"],"door_color_assignment":["white","black"],"door_generator_assignment":[1,0],"goal":6,"start":3,"action_noise":0.1,"location_history":"[3,2,3,2,3,2,3,0,4,7,6]","action_history":"[1,0,0,0,0,0,1,1,1,0]","door_history":"[0,1,1,1,1,1,0,0,0,1]","location_rts":"[1511,352,704,471,641,957,1433,407,489,507]","trial_type":"two-door-navigation","trial_index":23,"time_elapsed":388956,"internal_node_id":"0.0-2.0-21.0"},{"group":"square cycles (cube, non-group)","room_assignment":["red","green","grey","brown","blue","purple","yellow","pink"],"door_color_assignment":["white","black"],"door_generator_assignment":[1,0],"goal":5,"start":6,"action_noise":0.1,"location_history":"[6,5]","action_history":"[0]","door_history":"[1]","location_rts":"[1155]","trial_type":"two-door-navigation","trial_index":24,"time_elapsed":394746,"internal_node_id":"0.0-2.0-22.0"},{"group":"square cycles (cube, non-group)","room_assignment":["red","green","grey","brown","blue","purple","yellow","pink"],"door_color_assignment":["white","black"],"door_generator_assignment":[1,0],"goal":3,"start":5,"action_noise":0.1,"location_history":"[5,4,5,1,0,4,7,6,7,3]","action_history":"[0,1,1,1,1,0,0,1,1]","door_history":"[1,0,0,0,0,1,1,0,0]","location_rts":"[1117,793,304,470,666,236,968,438,312]","trial_type":"two-door-navigation","trial_index":25,"time_elapsed":413482,"internal_node_id":"0.0-2.0-23.0"},{"group":"square cycles (cube, non-group)","room_assignment":["red","green","grey","brown","blue","purple","yellow","pink"],"door_color_assignment":["white","black"],"door_generator_assignment":[1,0],"goal":0,"start":3,"action_noise":0.1,"location_history":"[3,0]","action_history":"[0]","door_history":"[1]","location_rts":"[460]","trial_type":"two-door-navigation","trial_index":26,"time_elapsed":418576,"internal_node_id":"0.0-2.0-24.0"},{"group":"square cycles (cube, non-group)","room_assignment":["red","green","grey","brown","blue","purple","yellow","pink"],"door_color_assignment":["white","black"],"door_generator_assignment":[1,0],"goal":7,"start":0,"action_noise":0.1,"location_history":"[0,4,5,1,2,6,5,4,5,1,0,4,7]","action_history":"[1,1,1,0,0,0,0,1,1,1,1,0]","door_history":"[0,0,0,1,1,1,1,0,0,0,0,1]","location_rts":"[1223,288,360,259,491,470,435,265,262,303,215,199]","trial_type":"two-door-navigation","trial_index":27,"time_elapsed":440086,"internal_node_id":"0.0-2.0-25.0"},{"group":"square cycles (cube, non-group)","room_assignment":["red","green","grey","brown","blue","purple","yellow","pink"],"door_color_assignment":["white","black"],"door_generator_assignment":[1,0],"goal":2,"start":7,"action_noise":0.1,"location_history":"[7,3,2]","action_history":"[1,1]","door_history":"[0,0]","location_rts":"[760,252]","trial_type":"two-door-navigation","trial_index":28,"time_elapsed":446815,"internal_node_id":"0.0-2.0-26.0"},{"group":"square cycles (cube, non-group)","room_assignment":["red","green","grey","brown","blue","purple","yellow","pink"],"door_color_assignment":["white","black"],"door_generator_assignment":[1,0],"goal":1,"start":2,"action_noise":0.1,"location_history":"[2,3,0,1]","action_history":"[0,0,0]","door_history":"[1,1,1]","location_rts":"[1415,497,482]","trial_type":"two-door-navigation","trial_index":29,"time_elapsed":456035,"internal_node_id":"0.0-2.0-27.0"},{"group":"square cycles (cube, non-group)","room_assignment":["red","green","grey","brown","blue","purple","yellow","pink"],"door_color_assignment":["white","black"],"door_generator_assignment":[1,0],"goal":5,"start":1,"action_noise":0.1,"location_history":"[1,0,4,5]","action_history":"[1,1,1]","door_history":"[0,0,0]","location_rts":"[834,382,367]","trial_type":"two-door-navigation","trial_index":30,"time_elapsed":464435,"internal_node_id":"0.0-2.0-28.0"},{"group":"square cycles (cube, non-group)","room_assignment":["red","green","grey","brown","blue","purple","yellow","pink"],"door_color_assignment":["white","black"],"door_generator_assignment":[1,0],"goal":4,"start":5,"action_noise":0.1,"location_history":"[5,4]","action_history":"[0]","door_history":"[1]","location_rts":"[667]","trial_type":"two-door-navigation","trial_index":31,"time_elapsed":469729,"internal_node_id":"0.0-2.0-29.0"},{"group":"square cycles (cube, non-group)","room_assignment":["red","green","grey","brown","blue","purple","yellow","pink"],"door_color_assignment":["white","black"],"door_generator_assignment":[1,0],"goal":6,"start":4,"action_noise":0.1,"location_history":"[4,5,1,2,3,2,3,0,4,5,1,2,6]","action_history":"[1,1,0,0,0,0,1,1,1,1,1,0]","door_history":"[0,0,1,1,1,1,0,0,0,0,0,1]","location_rts":"[320,246,118,304,288,351,137,103,101,326,470,826]","trial_type":"two-door-navigation","trial_index":32,"time_elapsed":490055,"internal_node_id":"0.0-2.0-30.0"},{"group":"square cycles (cube, non-group)","room_assignment":["red","green","grey","brown","blue","purple","yellow","pink"],"door_color_assignment":["white","black"],"door_generator_assignment":[1,0],"goal":4,"start":6,"action_noise":0.1,"location_history":"[6,5,4]","action_history":"[0,0]","door_history":"[1,1]","location_rts":"[2822,626]","trial_type":"two-door-navigation","trial_index":33,"time_elapsed":499214,"internal_node_id":"0.0-2.0-31.0"},{"group":"square cycles (cube, non-group)","room_assignment":["red","green","grey","brown","blue","purple","yellow","pink"],"door_color_assignment":["white","black"],"door_generator_assignment":[1,0],"goal":2,"start":4,"action_noise":0.1,"location_history":"[4,7,3,0,1,0,4,5,1,0,4,7,6,7,3,0,1,2]","action_history":"[1,1,0,0,1,1,1,1,1,1,0,0,1,1,0,0,0]","door_history":"[0,0,1,1,0,0,0,0,0,0,1,1,0,0,1,1,1]","location_rts":"[646,465,840,549,396,271,588,548,341,365,352,351,399,361,421,125,367]","trial_type":"two-door-navigation","trial_index":34,"time_elapsed":528847,"internal_node_id":"0.0-2.0-32.0"},{"group":"square cycles (cube, non-group)","room_assignment":["red","green","grey","brown","blue","purple","yellow","pink"],"door_color_assignment":["white","black"],"door_generator_assignment":[1,0],"goal":0,"start":2,"action_noise":0.1,"location_history":"[2,6,7,3,2,3,0]","action_history":"[1,1,1,0,0,0]","door_history":"[0,0,0,1,1,1]","location_rts":"[903,411,469,269,51,395]","trial_type":"two-door-navigation","trial_index":35,"time_elapsed":541494,"internal_node_id":"0.0-2.0-33.0"},{"group":"square cycles (cube, non-group)","room_assignment":["red","green","grey","brown","blue","purple","yellow","pink"],"door_color_assignment":["white","black"],"door_generator_assignment":[1,0],"goal":5,"start":0,"action_noise":0.1,"location_history":"[0,1,0,4,5]","action_history":"[0,1,1,1]","door_history":"[1,0,0,0]","location_rts":"[365,386,399,275]","trial_type":"two-door-navigation","trial_index":36,"time_elapsed":550863,"internal_node_id":"0.0-2.0-34.0"},{"group":"square cycles (cube, non-group)","room_assignment":["red","green","grey","brown","blue","purple","yellow","pink"],"door_color_assignment":["white","black"],"door_generator_assignment":[1,0],"goal":1,"start":5,"action_noise":0.1,"location_history":"[5,4,5,4,5,1]","action_history":"[0,0,0,1,1]","door_history":"[1,1,1,0,0]","location_rts":"[324,311,287,130,260]","trial_type":"two-door-navigation","trial_index":37,"time_elapsed":561203,"internal_node_id":"0.0-2.0-35.0"},{"group":"square cycles (cube, non-group)","room_assignment":["red","green","grey","brown","blue","purple","yellow","pink"],"door_color_assignment":["white","black"],"door_generator_assignment":[1,0],"goal":7,"start":1,"action_noise":0.1,"location_history":"[1,0,1,0,4,5,1,0,4,7]","action_history":"[0,0,1,1,1,1,1,1,0]","door_history":"[1,1,0,0,0,0,0,0,1]","location_rts":"[576,495,263,216,288,264,301,291,359]","trial_type":"two-door-navigation","trial_index":38,"time_elapsed":577733,"internal_node_id":"0.0-2.0-36.0"},{"group":"square cycles (cube, non-group)","room_assignment":["red","green","grey","brown","blue","purple","yellow","pink"],"door_color_assignment":["white","black"],"door_generator_assignment":[1,0],"goal":3,"start":7,"action_noise":0.1,"location_history":"[7,3]","action_history":"[1]","door_history":"[0]","location_rts":"[1159]","trial_type":"two-door-navigation","trial_index":39,"time_elapsed":583503,"internal_node_id":"0.0-2.0-37.0"},{"group":"square cycles (cube, non-group)","room_assignment":["red","green","grey","brown","blue","purple","yellow","pink"],"door_color_assignment":["white","black"],"door_generator_assignment":[1,0],"goal":6,"start":3,"action_noise":0.1,"location_history":"[3,0,1,0,4,5,4,5,4,5,1,0,4,5,4,7,6]","action_history":"[0,0,1,1,1,0,0,0,1,1,1,1,1,0,0,0]","door_history":"[1,1,0,0,0,1,1,1,0,0,0,0,0,1,1,1]","location_rts":"[1036,452,2453,511,393,274,407,410,213,286,343,431,493,1568,345,413]","trial_type":"two-door-navigation","trial_index":40,"time_elapsed":614662,"internal_node_id":"0.0-2.0-38.0"},{"group":"square cycles (cube, non-group)","room_assignment":["red","green","grey","brown","blue","purple","yellow","pink"],"door_color_assignment":["white","black"],"door_generator_assignment":[1,0],"goal":2,"start":6,"action_noise":0.1,"location_history":"[6,7,3,2]","action_history":"[1,1,1]","door_history":"[0,0,0]","location_rts":"[1173,390,378]","trial_type":"two-door-navigation","trial_index":41,"time_elapsed":623452,"internal_node_id":"0.0-2.0-39.0"},{"group":"square cycles (cube, non-group)","room_assignment":["red","green","grey","brown","blue","purple","yellow","pink"],"door_color_assignment":["white","black"],"door_generator_assignment":[1,0],"goal":1,"start":2,"action_noise":0.1,"location_history":"[2,3,0,1]","action_history":"[0,0,0]","door_history":"[1,1,1]","location_rts":"[375,318,423]","trial_type":"two-door-navigation","trial_index":42,"time_elapsed":631422,"internal_node_id":"0.0-2.0-40.0"},{"group":"square cycles (cube, non-group)","room_assignment":["red","green","grey","brown","blue","purple","yellow","pink"],"door_color_assignment":["white","black"],"door_generator_assignment":[1,0],"goal":0,"start":1,"action_noise":0.1,"location_history":"[1,0]","action_history":"[1]","door_history":"[0]","location_rts":"[516]","trial_type":"two-door-navigation","trial_index":43,"time_elapsed":636572,"internal_node_id":"0.0-2.0-41.0"},{"group":"square cycles (cube, non-group)","room_assignment":["red","green","grey","brown","blue","purple","yellow","pink"],"door_color_assignment":["white","black"],"door_generator_assignment":[1,0],"goal":4,"start":0,"action_noise":0.1,"location_history":"[0,4]","action_history":"[1]","door_history":"[0]","location_rts":"[878]","trial_type":"two-door-navigation","trial_index":44,"time_elapsed":642092,"internal_node_id":"0.0-2.0-42.0"},{"group":"square cycles (cube, non-group)","room_assignment":["red","green","grey","brown","blue","purple","yellow","pink"],"door_color_assignment":["white","black"],"door_generator_assignment":[1,0],"goal":6,"start":4,"action_noise":0.1,"location_history":"[4,7,6]","action_history":"[0,0]","door_history":"[1,1]","location_rts":"[1342,1483]","trial_type":"two-door-navigation","trial_index":45,"time_elapsed":650661,"internal_node_id":"0.0-2.0-43.0"},{"group":"square cycles (cube, non-group)","room_assignment":["red","green","grey","brown","blue","purple","yellow","pink"],"door_color_assignment":["white","black"],"door_generator_assignment":[1,0],"goal":3,"start":6,"action_noise":0.1,"location_history":"[6,5,1,0,1,2,3]","action_history":"[0,1,1,1,0,0]","door_history":"[1,0,0,0,1,1]","location_rts":"[1252,1023,424,533,440,46]","trial_type":"two-door-navigation","trial_index":46,"time_elapsed":664491,"internal_node_id":"0.0-2.0-44.0"},{"group":"square cycles (cube, non-group)","room_assignment":["red","green","grey","brown","blue","purple","yellow","pink"],"door_color_assignment":["white","black"],"door_generator_assignment":[1,0],"goal":7,"start":3,"action_noise":0.1,"location_history":"[3,0,1,0,4,5,1,0,1,2,3,2,3,2,3,0,1,0,4,5,1,0,1,0,4,7]","action_history":"[0,0,1,1,1,1,1,0,0,0,1,0,0,0,0,0,1,1,1,1,1,1,1,1,0]","door_history":"[1,1,0,0,0,0,0,1,1,1,0,1,1,1,1,1,0,0,0,0,0,0,0,0,1]","location_rts":"[2239,381,366,367,575,487,927,1257,319,413,349,736,987,1503,3509,629,937,424,379,283,312,651,325,304,126]","trial_type":"two-door-navigation","trial_index":47,"time_elapsed":714370,"internal_node_id":"0.0-2.0-45.0"},{"group":"square cycles (cube, non-group)","room_assignment":["red","green","grey","brown","blue","purple","yellow","pink"],"door_color_assignment":["white","black"],"door_generator_assignment":[1,0],"goal":5,"start":7,"action_noise":0.1,"location_history":"[7,3,0,1,2,3,0,4,5]","action_history":"[1,0,0,0,0,0,1,1]","door_history":"[0,1,1,1,1,1,0,0]","location_rts":"[49422,4267,1680,2545,1871,669,500,715]","trial_type":"two-door-navigation","trial_index":48,"time_elapsed":788379,"internal_node_id":"0.0-2.0-46.0"},{"group":"square cycles (cube, non-group)","room_assignment":["red","green","grey","brown","blue","purple","yellow","pink"],"door_color_assignment":["white","black"],"door_generator_assignment":[1,0],"goal":1,"start":5,"action_noise":0.1,"location_history":"[5,1]","action_history":"[1]","door_history":"[0]","location_rts":"[14284]","trial_type":"two-door-navigation","trial_index":49,"time_elapsed":807279,"internal_node_id":"0.0-2.0-47.0"},{"group":"square cycles (cube, non-group)","room_assignment":["red","green","grey","brown","blue","purple","yellow","pink"],"door_color_assignment":["white","black"],"door_generator_assignment":[1,0],"goal":6,"start":1,"action_noise":0.1,"location_history":"[1,2,6]","action_history":"[0,1]","door_history":"[1,0]","location_rts":"[11760,439]","trial_type":"two-door-navigation","trial_index":50,"time_elapsed":825218,"internal_node_id":"0.0-2.0-48.0"},{"group":"square cycles (cube, non-group)","room_assignment":["red","green","grey","brown","blue","purple","yellow","pink"],"door_color_assignment":["white","black"],"door_generator_assignment":[1,0],"goal":0,"start":6,"action_noise":0.1,"location_history":"[6,5,4,7,6,7,6,7,6,7,3,2,6,5,4,7,6,5,4,7,6,7,3,2,6,5,1,2,3,0]","action_history":"[0,0,0,0,1,0,0,0,1,1,1,1,0,0,0,0,0,0,0,0,1,1,1,1,0,0,0,0,0]","door_history":"[1,1,1,1,0,1,1,1,0,0,0,0,1,1,1,1,1,1,1,1,0,0,0,0,1,1,1,1,1]","location_rts":"[1347,509,796,823,452,602,518,1340,705,489,576,872,830,876,1080,716,634,927,568,529,406,408,687,731,351,768,457,9648,8866]","trial_type":"two-door-navigation","trial_index":51,"time_elapsed":898168,"internal_node_id":"0.0-2.0-49.0"},{"view_history":"[{\"page_index\":0,\"viewing_time\":2416}]","rt":2416,"trial_type":"instructions","trial_index":52,"time_elapsed":901594,"internal_node_id":"0.0-3.0"},{"view_history":"[{\"page_index\":0,\"viewing_time\":4524},{\"page_index\":1,\"viewing_time\":5135}]","rt":9660,"trial_type":"instructions","trial_index":53,"time_elapsed":912257,"internal_node_id":"0.0-4.0"},{"group":"square cycles (cube, non-group)","fractal_assignment":["../images/blu_wht.png","../images/org_blu.png","../images/cyn_red.png","../images/grn_red.png","../images/pnk_blu.png","../images/gry_blk.png","../images/ylw_pnk.png","../images/ylw_slt.png"],"mutagen_generator_assignment":[0,1],"goal":6,"start":3,"action_noise":0.1,"location_history":"[3,2,6]","action_history":"[1,1]","mutagen_history":"[1,1]","location_rts":"[1913,826]","trial_type":"fractal-mutation","trial_index":54,"time_elapsed":920778,"internal_node_id":"0.0-5.0-0.0"},{"group":"square cycles (cube, non-group)","fractal_assignment":["../images/blu_wht.png","../images/org_blu.png","../images/cyn_red.png","../images/grn_red.png","../images/pnk_blu.png","../images/gry_blk.png","../images/ylw_pnk.png","../images/ylw_slt.png"],"mutagen_generator_assignment":[0,1],"goal":1,"start":6,"action_noise":0.1,"location_history":"[6,5,4,5,4,7,6,5,4,7,6,5,1]","action_history":"[0,0,0,0,0,1,0,0,0,0,0,1]","mutagen_history":"[0,0,0,0,0,1,0,0,0,0,0,1]","location_rts":"[1389,1223,10299,4011,947,723,419,545,247,550,1195,482]","trial_type":"fractal-mutation","trial_index":55,"time_elapsed":959839,"internal_node_id":"0.0-5.0-1.0"},{"group":"square cycles (cube, non-group)","fractal_assignment":["../images/blu_wht.png","../images/org_blu.png","../images/cyn_red.png","../images/grn_red.png","../images/pnk_blu.png","../images/gry_blk.png","../images/ylw_pnk.png","../images/ylw_slt.png"],"mutagen_generator_assignment":[0,1],"goal":2,"start":1,"action_noise":0.1,"location_history":"[1,2]","action_history":"[0]","mutagen_history":"[0]","location_rts":"[1183]","trial_type":"fractal-mutation","trial_index":56,"time_elapsed":965659,"internal_node_id":"0.0-5.0-2.0"},{"group":"square cycles (cube, non-group)","fractal_assignment":["../images/blu_wht.png","../images/org_blu.png","../images/cyn_red.png","../images/grn_red.png","../images/pnk_blu.png","../images/gry_blk.png","../images/ylw_pnk.png","../images/ylw_slt.png"],"mutagen_generator_assignment":[0,1],"goal":0,"start":2,"action_noise":0.1,"location_history":"[2,6,7,6,5,4,5,1,0]","action_history":"[1,1,0,0,0,1,1,1]","mutagen_history":"[1,1,0,0,0,1,1,1]","location_rts":"[1123,357,526,527,767,470,779,922]","trial_type":"fractal-mutation","trial_index":57,"time_elapsed":983559,"internal_node_id":"0.0-5.0-3.0"},{"group":"square cycles (cube, non-group)","fractal_assignment":["../images/blu_wht.png","../images/org_blu.png","../images/cyn_red.png","../images/grn_red.png","../images/pnk_blu.png","../images/gry_blk.png","../images/ylw_pnk.png","../images/ylw_slt.png"],"mutagen_generator_assignment":[0,1],"goal":7,"start":0,"action_noise":0.1,"location_history":"[0,4,5,4,5,1,0,4,5,4,7]","action_history":"[1,0,0,1,1,1,0,0,0,0]","mutagen_history":"[1,0,0,1,1,1,0,0,0,0]","location_rts":"[1616,737,527,954,483,727,543,365,500,779]","trial_type":"fractal-mutation","trial_index":58,"time_elapsed":1005408,"internal_node_id":"0.0-5.0-4.0"},{"group":"square cycles (cube, non-group)","fractal_assignment":["../images/blu_wht.png","../images/org_blu.png","../images/cyn_red.png","../images/grn_red.png","../images/pnk_blu.png","../images/gry_blk.png","../images/ylw_pnk.png","../images/ylw_slt.png"],"mutagen_generator_assignment":[0,1],"goal":5,"start":7,"action_noise":0.1,"location_history":"[7,3,0,4,5]","action_history":"[1,0,1,1]","mutagen_history":"[1,0,1,1]","location_rts":"[1213,658,840,298]","trial_type":"fractal-mutation","trial_index":59,"time_elapsed":1016398,"internal_node_id":"0.0-5.0-5.0"},{"group":"square cycles (cube, non-group)","fractal_assignment":["../images/blu_wht.png","../images/org_blu.png","../images/cyn_red.png","../images/grn_red.png","../images/pnk_blu.png","../images/gry_blk.png","../images/ylw_pnk.png","../images/ylw_slt.png"],"mutagen_generator_assignment":[0,1],"goal":4,"start":5,"action_noise":0.1,"location_history":"[5,1,2,3,0,4]","action_history":"[1,0,0,0,1]","mutagen_history":"[1,0,0,0,1]","location_rts":"[1367,328,440,506,518]","trial_type":"fractal-mutation","trial_index":60,"time_elapsed":1028657,"internal_node_id":"0.0-5.0-6.0"},{"group":"square cycles (cube, non-group)","fractal_assignment":["../images/blu_wht.png","../images/org_blu.png","../images/cyn_red.png","../images/grn_red.png","../images/pnk_blu.png","../images/gry_blk.png","../images/ylw_pnk.png","../images/ylw_slt.png"],"mutagen_generator_assignment":[0,1],"goal":2,"start":4,"action_noise":0.1,"location_history":"[4,7,6,5,1,2]","action_history":"[0,0,0,1,0]","mutagen_history":"[0,0,0,1,0]","location_rts":"[1275,1142,851,1075,557]","trial_type":"fractal-mutation","trial_index":61,"time_elapsed":1042657,"internal_node_id":"0.0-5.0-7.0"},{"group":"square cycles (cube, non-group)","fractal_assignment":["../images/blu_wht.png","../images/org_blu.png","../images/cyn_red.png","../images/grn_red.png","../images/pnk_blu.png","../images/gry_blk.png","../images/ylw_pnk.png","../images/ylw_slt.png"],"mutagen_generator_assignment":[0,1],"goal":3,"start":2,"action_noise":0.1,"location_history":"[2,3]","action_history":"[0]","mutagen_history":"[0]","location_rts":"[2268]","trial_type":"fractal-mutation","trial_index":62,"time_elapsed":1049567,"internal_node_id":"0.0-5.0-8.0"},{"group":"square cycles (cube, non-group)","fractal_assignment":["../images/blu_wht.png","../images/org_blu.png","../images/cyn_red.png","../images/grn_red.png","../images/pnk_blu.png","../images/gry_blk.png","../images/ylw_pnk.png","../images/ylw_slt.png"],"mutagen_generator_assignment":[0,1],"goal":7,"start":3,"action_noise":0.1,"location_history":"[3,0,4,7]","action_history":"[0,1,0]","mutagen_history":"[0,1,0]","location_rts":"[1638,530,1556]","trial_type":"fractal-mutation","trial_index":63,"time_elapsed":1060137,"internal_node_id":"0.0-5.0-9.0"},{"group":"square cycles (cube, non-group)","fractal_assignment":["../images/blu_wht.png","../images/org_blu.png","../images/cyn_red.png","../images/grn_red.png","../images/pnk_blu.png","../images/gry_blk.png","../images/ylw_pnk.png","../images/ylw_slt.png"],"mutagen_generator_assignment":[0,1],"goal":0,"start":7,"action_noise":0.1,"location_history":"[7,6,7,3,0]","action_history":"[0,1,1,0]","mutagen_history":"[0,1,1,0]","location_rts":"[2411,706,255,580]","trial_type":"fractal-mutation","trial_index":64,"time_elapsed":1072077,"internal_node_id":"0.0-5.0-10.0"},{"group":"square cycles (cube, non-group)","fractal_assignment":["../images/blu_wht.png","../images/org_blu.png","../images/cyn_red.png","../images/grn_red.png","../images/pnk_blu.png","../images/gry_blk.png","../images/ylw_pnk.png","../images/ylw_slt.png"],"mutagen_generator_assignment":[0,1],"goal":1,"start":0,"action_noise":0.1,"location_history":"[0,1]","action_history":"[0]","mutagen_history":"[0]","location_rts":"[1101]","trial_type":"fractal-mutation","trial_index":65,"time_elapsed":1077827,"internal_node_id":"0.0-5.0-11.0"},{"group":"square cycles (cube, non-group)","fractal_assignment":["../images/blu_wht.png","../images/org_blu.png","../images/cyn_red.png","../images/grn_red.png","../images/pnk_blu.png","../images/gry_blk.png","../images/ylw_pnk.png","../images/ylw_slt.png"],"mutagen_generator_assignment":[0,1],"goal":6,"start":1,"action_noise":0.1,"location_history":"[1,0,1,2,6]","action_history":"[1,0,0,1]","mutagen_history":"[1,0,0,1]","location_rts":"[1834,372,474,229]","trial_type":"fractal-mutation","trial_index":66,"time_elapsed":1088726,"internal_node_id":"0.0-5.0-12.0"},{"group":"square cycles (cube, non-group)","fractal_assignment":["../images/blu_wht.png","../images/org_blu.png","../images/cyn_red.png","../images/grn_red.png","../images/pnk_blu.png","../images/gry_blk.png","../images/ylw_pnk.png","../images/ylw_slt.png"],"mutagen_generator_assignment":[0,1],"goal":4,"start":6,"action_noise":0.1,"location_history":"[6,7,3,0,4]","action_history":"[1,1,0,1]","mutagen_history":"[1,1,0,1]","location_rts":"[1358,1305,1060,1122]","trial_type":"fractal-mutation","trial_index":67,"time_elapsed":1101556,"internal_node_id":"0.0-5.0-13.0"},{"group":"square cycles (cube, non-group)","fractal_assignment":["../images/blu_wht.png","../images/org_blu.png","../images/cyn_red.png","../images/grn_red.png","../images/pnk_blu.png","../images/gry_blk.png","../images/ylw_pnk.png","../images/ylw_slt.png"],"mutagen_generator_assignment":[0,1],"goal":5,"start":4,"action_noise":0.1,"location_history":"[4,5]","action_history":"[1]","mutagen_history":"[1]","location_rts":"[2575]","trial_type":"fractal-mutation","trial_index":68,"time_elapsed":1108766,"internal_node_id":"0.0-5.0-14.0"},{"group":"square cycles (cube, non-group)","fractal_assignment":["../images/blu_wht.png","../images/org_blu.png","../images/cyn_red.png","../images/grn_red.png","../images/pnk_blu.png","../images/gry_blk.png","../images/ylw_pnk.png","../images/ylw_slt.png"],"mutagen_generator_assignment":[0,1],"goal":4,"start":5,"action_noise":0.1,"location_history":"[5,4]","action_history":"[0]","mutagen_history":"[0]","location_rts":"[1077]","trial_type":"fractal-mutation","trial_index":69,"time_elapsed":1114486,"internal_node_id":"0.0-5.0-15.0"},{"group":"square cycles (cube, non-group)","fractal_assignment":["../images/blu_wht.png","../images/org_blu.png","../images/cyn_red.png","../images/grn_red.png","../images/pnk_blu.png","../images/gry_blk.png","../images/ylw_pnk.png","../images/ylw_slt.png"],"mutagen_generator_assignment":[0,1],"goal":0,"start":4,"action_noise":0.1,"location_history":"[4,7,3,2,6,7,6,5,4,7,6,5,1,2,3,0]","action_history":"[0,1,1,1,1,0,0,0,0,0,0,1,1,0,0]","mutagen_history":"[0,1,1,1,1,0,0,0,0,0,0,1,1,0,0]","location_rts":"[1397,992,826,702,1042,794,549,920,674,821,723,836,375,756,1200]","trial_type":"fractal-mutation","trial_index":70,"time_elapsed":1147315,"internal_node_id":"0.0-5.0-16.0"},{"group":"square cycles (cube, non-group)","fractal_assignment":["../images/blu_wht.png","../images/org_blu.png","../images/cyn_red.png","../images/grn_red.png","../images/pnk_blu.png","../images/gry_blk.png","../images/ylw_pnk.png","../images/ylw_slt.png"],"mutagen_generator_assignment":[0,1],"goal":7,"start":0,"action_noise":0.1,"location_history":"[0,1,0,1,2,3,0,4,7]","action_history":"[0,1,1,1,0,0,1,0]","mutagen_history":"[0,1,1,1,0,0,1,0]","location_rts":"[2038,414,242,1669,1072,534,526,294]","trial_type":"fractal-mutation","trial_index":71,"time_elapsed":1166495,"internal_node_id":"0.0-5.0-17.0"},{"group":"square cycles (cube, non-group)","fractal_assignment":["../images/blu_wht.png","../images/org_blu.png","../images/cyn_red.png","../images/grn_red.png","../images/pnk_blu.png","../images/gry_blk.png","../images/ylw_pnk.png","../images/ylw_slt.png"],"mutagen_generator_assignment":[0,1],"goal":2,"start":7,"action_noise":0.1,"location_history":"[7,6,5,4,7,6,5,1,0,1,2]","action_history":"[0,0,0,0,1,0,1,1,0,0]","mutagen_history":"[0,0,0,0,1,0,1,1,0,0]","location_rts":"[2195,902,786,1342,515,1260,794,708,337,319]","trial_type":"fractal-mutation","trial_index":72,"time_elapsed":1190324,"internal_node_id":"0.0-5.0-18.0"},{"group":"square cycles (cube, non-group)","fractal_assignment":["../images/blu_wht.png","../images/org_blu.png","../images/cyn_red.png","../images/grn_red.png","../images/pnk_blu.png","../images/gry_blk.png","../images/ylw_pnk.png","../images/ylw_slt.png"],"mutagen_generator_assignment":[0,1],"goal":1,"start":2,"action_noise":0.1,"location_history":"[2,3,0,1]","action_history":"[1,0,0]","mutagen_history":"[1,0,0]","location_rts":"[2951,2073,450]","trial_type":"fractal-mutation","trial_index":73,"time_elapsed":1202674,"internal_node_id":"0.0-5.0-19.0"},{"group":"square cycles (cube, non-group)","fractal_assignment":["../images/blu_wht.png","../images/org_blu.png","../images/cyn_red.png","../images/grn_red.png","../images/pnk_blu.png","../images/gry_blk.png","../images/ylw_pnk.png","../images/ylw_slt.png"],"mutagen_generator_assignment":[0,1],"goal":3,"start":1,"action_noise":0.1,"location_history":"[1,2,3]","action_history":"[0,0]","mutagen_history":"[0,0]","location_rts":"[1359,274]","trial_type":"fractal-mutation","trial_index":74,"time_elapsed":1210064,"internal_node_id":"0.0-5.0-20.0"},{"group":"square cycles (cube, non-group)","fractal_assignment":["../images/blu_wht.png","../images/org_blu.png","../images/cyn_red.png","../images/grn_red.png","../images/pnk_blu.png","../images/gry_blk.png","../images/ylw_pnk.png","../images/ylw_slt.png"],"mutagen_generator_assignment":[0,1],"goal":6,"start":3,"action_noise":0.1,"location_history":"[3,2,3,0,1,2,3,2,3,0,4,7,3,0,1,2,3,0,1,0,4,5,1,0,4,5,4,7,6]","action_history":"[1,1,0,0,0,0,1,0,0,0,0,0,0,0,0,0,0,0,1,1,1,1,1,1,1,0,0,0]","mutagen_history":"[1,1,0,0,0,0,1,0,0,0,0,0,0,0,0,0,0,0,1,1,1,1,1,1,1,0,0,0]","location_rts":"[2049,754,755,573,283,395,741,393,500,369,425,421,483,479,593,547,544,743,683,651,433,435,644,573,634,2396,310,426]","trial_type":"fractal-mutation","trial_index":75,"time_elapsed":1263005,"internal_node_id":"0.0-5.0-21.0"},{"group":"square cycles (cube, non-group)","fractal_assignment":["../images/blu_wht.png","../images/org_blu.png","../images/cyn_red.png","../images/grn_red.png","../images/pnk_blu.png","../images/gry_blk.png","../images/ylw_pnk.png","../images/ylw_slt.png"],"mutagen_generator_assignment":[0,1],"goal":5,"start":6,"action_noise":0.1,"location_history":"[6,5]","action_history":"[1]","mutagen_history":"[1]","location_rts":"[1547]","trial_type":"fractal-mutation","trial_index":76,"time_elapsed":1269195,"internal_node_id":"0.0-5.0-22.0"},{"group":"square cycles (cube, non-group)","fractal_assignment":["../images/blu_wht.png","../images/org_blu.png","../images/cyn_red.png","../images/grn_red.png","../images/pnk_blu.png","../images/gry_blk.png","../images/ylw_pnk.png","../images/ylw_slt.png"],"mutagen_generator_assignment":[0,1],"goal":3,"start":5,"action_noise":0.1,"location_history":"[5,1,0,1,2,3]","action_history":"[1,0,0,0,0]","mutagen_history":"[1,0,0,0,0]","location_rts":"[1555,1183,1179,577,224]","trial_type":"fractal-mutation","trial_index":77,"time_elapsed":1283005,"internal_node_id":"0.0-5.0-23.0"},{"group":"square cycles (cube, non-group)","fractal_assignment":["../images/blu_wht.png","../images/org_blu.png","../images/cyn_red.png","../images/grn_red.png","../images/pnk_blu.png","../images/gry_blk.png","../images/ylw_pnk.png","../images/ylw_slt.png"],"mutagen_generator_assignment":[0,1],"goal":0,"start":3,"action_noise":0.1,"location_history":"[3,0]","action_history":"[0]","mutagen_history":"[0]","location_rts":"[3274]","trial_type":"fractal-mutation","trial_index":78,"time_elapsed":1290926,"internal_node_id":"0.0-5.0-24.0"},{"group":"square cycles (cube, non-group)","fractal_assignment":["../images/blu_wht.png","../images/org_blu.png","../images/cyn_red.png","../images/grn_red.png","../images/pnk_blu.png","../images/gry_blk.png","../images/ylw_pnk.png","../images/ylw_slt.png"],"mutagen_generator_assignment":[0,1],"goal":7,"start":0,"action_noise":0.1,"location_history":"[0,4,7]","action_history":"[1,0]","mutagen_history":"[1,0]","location_rts":"[2026,490]","trial_type":"fractal-mutation","trial_index":79,"time_elapsed":1299185,"internal_node_id":"0.0-5.0-25.0"},{"group":"square cycles (cube, non-group)","fractal_assignment":["../images/blu_wht.png","../images/org_blu.png","../images/cyn_red.png","../images/grn_red.png","../images/pnk_blu.png","../images/gry_blk.png","../images/ylw_pnk.png","../images/ylw_slt.png"],"mutagen_generator_assignment":[0,1],"goal":2,"start":7,"action_noise":0.1,"location_history":"[7,3,2]","action_history":"[1,1]","mutagen_history":"[1,1]","location_rts":"[3583,1090]","trial_type":"fractal-mutation","trial_index":80,"time_elapsed":1309625,"internal_node_id":"0.0-5.0-26.0"},{"group":"square cycles (cube, non-group)","fractal_assignment":["../images/blu_wht.png","../images/org_blu.png","../images/cyn_red.png","../images/grn_red.png","../images/pnk_blu.png","../images/gry_blk.png","../images/ylw_pnk.png","../images/ylw_slt.png"],"mutagen_generator_assignment":[0,1],"goal":1,"start":2,"action_noise":0.1,"location_history":"[2,6,7,3,0,1]","action_history":"[1,0,1,1,0]","mutagen_history":"[1,0,1,1,0]","location_rts":"[1278,785,1317,591,891]","trial_type":"fractal-mutation","trial_index":81,"time_elapsed":1323575,"internal_node_id":"0.0-5.0-27.0"},{"group":"square cycles (cube, non-group)","fractal_assignment":["../images/blu_wht.png","../images/org_blu.png","../images/cyn_red.png","../images/grn_red.png","../images/pnk_blu.png","../images/gry_blk.png","../images/ylw_pnk.png","../images/ylw_slt.png"],"mutagen_generator_assignment":[0,1],"goal":5,"start":1,"action_noise":0.1,"location_history":"[1,2,6,7,6,7,3,2,3,0,4,5]","action_history":"[1,1,1,0,1,1,1,0,0,1,1]","mutagen_history":"[1,1,1,0,1,1,1,0,0,1,1]","location_rts":"[1305,149,785,461,372,236,653,491,460,545,836]","trial_type":"fractal-mutation","trial_index":82,"time_elapsed":1345634,"internal_node_id":"0.0-5.0-28.0"},{"group":"square cycles (cube, non-group)","fractal_assignment":["../images/blu_wht.png","../images/org_blu.png","../images/cyn_red.png","../images/grn_red.png","../images/pnk_blu.png","../images/gry_blk.png","../images/ylw_pnk.png","../images/ylw_slt.png"],"mutagen_generator_assignment":[0,1],"goal":4,"start":5,"action_noise":0.1,"location_history":"[5,4]","action_history":"[0]","mutagen_history":"[0]","location_rts":"[2349]","trial_type":"fractal-mutation","trial_index":83,"time_elapsed":1352615,"internal_node_id":"0.0-5.0-29.0"},{"group":"square cycles (cube, non-group)","fractal_assignment":["../images/blu_wht.png","../images/org_blu.png","../images/cyn_red.png","../images/grn_red.png","../images/pnk_blu.png","../images/gry_blk.png","../images/ylw_pnk.png","../images/ylw_slt.png"],"mutagen_generator_assignment":[0,1],"goal":6,"start":4,"action_noise":0.1,"location_history":"[4,7,6]","action_history":"[0,0]","mutagen_history":"[0,0]","location_rts":"[2128,1193]","trial_type":"fractal-mutation","trial_index":84,"time_elapsed":1361694,"internal_node_id":"0.0-5.0-30.0"},{"group":"square cycles (cube, non-group)","fractal_assignment":["../images/blu_wht.png","../images/org_blu.png","../images/cyn_red.png","../images/grn_red.png","../images/pnk_blu.png","../images/gry_blk.png","../images/ylw_pnk.png","../images/ylw_slt.png"],"mutagen_generator_assignment":[0,1],"goal":4,"start":6,"action_noise":0.1,"location_history":"[6,7,3,2,3,2,3,0,4]","action_history":"[1,1,1,0,1,1,0,1]","mutagen_history":"[1,1,1,0,1,1,0,1]","location_rts":"[1549,355,1109,811,660,361,1173,611]","trial_type":"fractal-mutation","trial_index":85,"time_elapsed":1380734,"internal_node_id":"0.0-5.0-31.0"},{"group":"square cycles (cube, non-group)","fractal_assignment":["../images/blu_wht.png","../images/org_blu.png","../images/cyn_red.png","../images/grn_red.png","../images/pnk_blu.png","../images/gry_blk.png","../images/ylw_pnk.png","../images/ylw_slt.png"],"mutagen_generator_assignment":[0,1],"goal":2,"start":4,"action_noise":0.1,"location_history":"[4,7,3,0,1,2]","action_history":"[0,1,0,0,0]","mutagen_history":"[0,1,0,0,0]","location_rts":"[1783,1344,533,413,231]","trial_type":"fractal-mutation","trial_index":86,"time_elapsed":1394123,"internal_node_id":"0.0-5.0-32.0"},{"group":"square cycles (cube, non-group)","fractal_assignment":["../images/blu_wht.png","../images/org_blu.png","../images/cyn_red.png","../images/grn_red.png","../images/pnk_blu.png","../images/gry_blk.png","../images/ylw_pnk.png","../images/ylw_slt.png"],"mutagen_generator_assignment":[0,1],"goal":0,"start":2,"action_noise":0.1,"location_history":"[2,3,0]","action_history":"[0,0]","mutagen_history":"[0,0]","location_rts":"[2369,353]","trial_type":"fractal-mutation","trial_index":87,"time_elapsed":1402604,"internal_node_id":"0.0-5.0-33.0"},{"group":"square cycles (cube, non-group)","fractal_assignment":["../images/blu_wht.png","../images/org_blu.png","../images/cyn_red.png","../images/grn_red.png","../images/pnk_blu.png","../images/gry_blk.png","../images/ylw_pnk.png","../images/ylw_slt.png"],"mutagen_generator_assignment":[0,1],"goal":5,"start":0,"action_noise":0.1,"location_history":"[0,4,5]","action_history":"[1,1]","mutagen_history":"[1,1]","location_rts":"[2058,273]","trial_type":"fractal-mutation","trial_index":88,"time_elapsed":1410693,"internal_node_id":"0.0-5.0-34.0"},{"group":"square cycles (cube, non-group)","fractal_assignment":["../images/blu_wht.png","../images/org_blu.png","../images/cyn_red.png","../images/grn_red.png","../images/pnk_blu.png","../images/gry_blk.png","../images/ylw_pnk.png","../images/ylw_slt.png"],"mutagen_generator_assignment":[0,1],"goal":1,"start":5,"action_noise":0.1,"location_history":"[5,1]","action_history":"[1]","mutagen_history":"[1]","location_rts":"[2989]","trial_type":"fractal-mutation","trial_index":89,"time_elapsed":1418323,"internal_node_id":"0.0-5.0-35.0"},{"group":"square cycles (cube, non-group)","fractal_assignment":["../images/blu_wht.png","../images/org_blu.png","../images/cyn_red.png","../images/grn_red.png","../images/pnk_blu.png","../images/gry_blk.png","../images/ylw_pnk.png","../images/ylw_slt.png"],"mutagen_generator_assignment":[0,1],"goal":7,"start":1,"action_noise":0.1,"location_history":"[1,2,3,0,4,7]","action_history":"[0,0,0,1,0]","mutagen_history":"[0,0,0,1,0]","location_rts":"[3642,291,283,531,259]","trial_type":"fractal-mutation","trial_index":90,"time_elapsed":1432423,"internal_node_id":"0.0-5.0-36.0"},{"group":"square cycles (cube, non-group)","fractal_assignment":["../images/blu_wht.png","../images/org_blu.png","../images/cyn_red.png","../images/grn_red.png","../images/pnk_blu.png","../images/gry_blk.png","../images/ylw_pnk.png","../images/ylw_slt.png"],"mutagen_generator_assignment":[0,1],"goal":3,"start":7,"action_noise":0.1,"location_history":"[7,3]","action_history":"[1]","mutagen_history":"[1]","location_rts":"[1478]","trial_type":"fractal-mutation","trial_index":91,"time_elapsed":1438542,"internal_node_id":"0.0-5.0-37.0"},{"group":"square cycles (cube, non-group)","fractal_assignment":["../images/blu_wht.png","../images/org_blu.png","../images/cyn_red.png","../images/grn_red.png","../images/pnk_blu.png","../images/gry_blk.png","../images/ylw_pnk.png","../images/ylw_slt.png"],"mutagen_generator_assignment":[0,1],"goal":6,"start":3,"action_noise":0.1,"location_history":"[3,2,6]","action_history":"[1,1]","mutagen_history":"[1,1]","location_rts":"[1958,1259]","trial_type":"fractal-mutation","trial_index":92,"time_elapsed":1447502,"internal_node_id":"0.0-5.0-38.0"},{"group":"square cycles (cube, non-group)","fractal_assignment":["../images/blu_wht.png","../images/org_blu.png","../images/cyn_red.png","../images/grn_red.png","../images/pnk_blu.png","../images/gry_blk.png","../images/ylw_pnk.png","../images/ylw_slt.png"],"mutagen_generator_assignment":[0,1],"goal":2,"start":6,"action_noise":0.1,"location_history":"[6,7,3,0,1,2]","action_history":"[1,1,0,0,0]","mutagen_history":"[1,1,0,0,0]","location_rts":"[2766,1302,420,561,139]","trial_type":"fractal-mutation","trial_index":93,"time_elapsed":1461782,"internal_node_id":"0.0-5.0-39.0"},{"group":"square cycles (cube, non-group)","fractal_assignment":["../images/blu_wht.png","../images/org_blu.png","../images/cyn_red.png","../images/grn_red.png","../images/pnk_blu.png","../images/gry_blk.png","../images/ylw_pnk.png","../images/ylw_slt.png"],"mutagen_generator_assignment":[0,1],"goal":1,"start":2,"action_noise":0.1,"location_history":"[2,6,5,1]","action_history":"[1,0,1]","mutagen_history":"[1,0,1]","location_rts":"[1614,717,1431]","trial_type":"fractal-mutation","trial_index":94,"time_elapsed":1472412,"internal_node_id":"0.0-5.0-40.0"},{"group":"square cycles (cube, non-group)","fractal_assignment":["../images/blu_wht.png","../images/org_blu.png","../images/cyn_red.png","../images/grn_red.png","../images/pnk_blu.png","../images/gry_blk.png","../images/ylw_pnk.png","../images/ylw_slt.png"],"mutagen_generator_assignment":[0,1],"goal":0,"start":1,"action_noise":0.1,"location_history":"[1,2,3,2,3,0]","action_history":"[0,0,0,0,0]","mutagen_history":"[0,0,0,0,0]","location_rts":"[2259,280,521,550,961]","trial_type":"fractal-mutation","trial_index":95,"time_elapsed":1486052,"internal_node_id":"0.0-5.0-41.0"},{"group":"square cycles (cube, non-group)","fractal_assignment":["../images/blu_wht.png","../images/org_blu.png","../images/cyn_red.png","../images/grn_red.png","../images/pnk_blu.png","../images/gry_blk.png","../images/ylw_pnk.png","../images/ylw_slt.png"],"mutagen_generator_assignment":[0,1],"goal":4,"start":0,"action_noise":0.1,"location_history":"[0,4]","action_history":"[1]","mutagen_history":"[1]","location_rts":"[976]","trial_type":"fractal-mutation","trial_index":96,"time_elapsed":1491671,"internal_node_id":"0.0-5.0-42.0"},{"group":"square cycles (cube, non-group)","fractal_assignment":["../images/blu_wht.png","../images/org_blu.png","../images/cyn_red.png","../images/grn_red.png","../images/pnk_blu.png","../images/gry_blk.png","../images/ylw_pnk.png","../images/ylw_slt.png"],"mutagen_generator_assignment":[0,1],"goal":6,"start":4,"action_noise":0.1,"location_history":"[4,5,1,2,3,2,3,0,4,5,4,5,1,2,3,0,4,5,4,5,4,7,3,0,1,0,1,2,3,2,3,2,6]","action_history":"[1,1,0,0,1,0,0,1,1,0,1,1,0,0,0,1,1,0,1,0,0,1,0,0,1,0,0,1,1,0,1,1]","mutagen_history":"[1,1,0,0,1,0,0,1,1,0,1,1,0,0,0,1,1,0,1,0,0,1,0,0,1,0,0,1,1,0,1,1]","location_rts":"[1453,818,1542,610,890,578,249,464,700,323,475,284,469,497,481,555,277,847,1231,378,274,1131,844,238,503,708,312,290,1370,850,618,392]","trial_type":"fractal-mutation","trial_index":97,"time_elapsed":1551483,"internal_node_id":"0.0-5.0-43.0"},{"group":"square cycles (cube, non-group)","fractal_assignment":["../images/blu_wht.png","../images/org_blu.png","../images/cyn_red.png","../images/grn_red.png","../images/pnk_blu.png","../images/gry_blk.png","../images/ylw_pnk.png","../images/ylw_slt.png"],"mutagen_generator_assignment":[0,1],"goal":3,"start":6,"action_noise":0.1,"location_history":"[6,5,4,5,4,5,4,7,6,5,4,7,6,7,3]","action_history":"[0,0,1,0,0,0,0,0,0,0,0,0,1,1]","mutagen_history":"[0,0,1,0,0,0,0,0,0,0,0,0,1,1]","location_rts":"[1798,682,514,403,453,1023,883,1161,1090,1394,292,268,423,828]","trial_type":"fractal-mutation","trial_index":98,"time_elapsed":1581812,"internal_node_id":"0.0-5.0-44.0"},{"group":"square cycles (cube, non-group)","fractal_assignment":["../images/blu_wht.png","../images/org_blu.png","../images/cyn_red.png","../images/grn_red.png","../images/pnk_blu.png","../images/gry_blk.png","../images/ylw_pnk.png","../images/ylw_slt.png"],"mutagen_generator_assignment":[0,1],"goal":7,"start":3,"action_noise":0.1,"location_history":"[3,0,4,7]","action_history":"[0,1,0]","mutagen_history":"[0,1,0]","location_rts":"[3301,636,238]","trial_type":"fractal-mutation","trial_index":99,"time_elapsed":1592852,"internal_node_id":"0.0-5.0-45.0"},{"group":"square cycles (cube, non-group)","fractal_assignment":["../images/blu_wht.png","../images/org_blu.png","../images/cyn_red.png","../images/grn_red.png","../images/pnk_blu.png","../images/gry_blk.png","../images/ylw_pnk.png","../images/ylw_slt.png"],"mutagen_generator_assignment":[0,1],"goal":5,"start":7,"action_noise":0.1,"location_history":"[7,3,2,3,0,4,5]","action_history":"[1,1,0,0,1,1]","mutagen_history":"[1,1,0,0,1,1]","location_rts":"[1445,614,724,379,828,296]","trial_type":"fractal-mutation","trial_index":100,"time_elapsed":1607342,"internal_node_id":"0.0-5.0-46.0"},{"group":"square cycles (cube, non-group)","fractal_assignment":["../images/blu_wht.png","../images/org_blu.png","../images/cyn_red.png","../images/grn_red.png","../images/pnk_blu.png","../images/gry_blk.png","../images/ylw_pnk.png","../images/ylw_slt.png"],"mutagen_generator_assignment":[0,1],"goal":1,"start":5,"action_noise":0.1,"location_history":"[5,4,7,3,2,6,5,1]","action_history":"[1,0,1,1,1,0,1]","mutagen_history":"[1,0,1,1,1,0,1]","location_rts":"[2269,958,738,232,1498,512,770]","trial_type":"fractal-mutation","trial_index":101,"time_elapsed":1625642,"internal_node_id":"0.0-5.0-47.0"},{"group":"square cycles (cube, non-group)","fractal_assignment":["../images/blu_wht.png","../images/org_blu.png","../images/cyn_red.png","../images/grn_red.png","../images/pnk_blu.png","../images/gry_blk.png","../images/ylw_pnk.png","../images/ylw_slt.png"],"mutagen_generator_assignment":[0,1],"goal":6,"start":1,"action_noise":0.1,"location_history":"[1,0,4,5,4,5,1,0,4,5,4,7,6]","action_history":"[1,1,1,0,1,1,0,1,1,0,0,0]","mutagen_history":"[1,1,1,0,1,1,0,1,1,0,0,0]","location_rts":"[1451,717,696,1271,570,284,772,502,252,658,352,764]","trial_type":"fractal-mutation","trial_index":102,"time_elapsed":1650792,"internal_node_id":"0.0-5.0-48.0"},{"group":"square cycles (cube, non-group)","fractal_assignment":["../images/blu_wht.png","../images/org_blu.png","../images/cyn_red.png","../images/grn_red.png","../images/pnk_blu.png","../images/gry_blk.png","../images/ylw_pnk.png","../images/ylw_slt.png"],"mutagen_generator_assignment":[0,1],"goal":0,"start":6,"action_noise":0.1,"location_history":"[6,5,1,0]","action_history":"[0,1,1]","mutagen_history":"[0,1,1]","location_rts":"[2278,354,452]","trial_type":"fractal-mutation","trial_index":103,"time_elapsed":1660761,"internal_node_id":"0.0-5.0-49.0"},{"view_history":"[{\"page_index\":0,\"viewing_time\":10808}]","rt":10809,"trial_type":"instructions","trial_index":104,"time_elapsed":1672580,"internal_node_id":"0.0-6.0"},{"rt":5600,"responses":"{\"Q0\":\"no\"}","trial_type":"survey-text","trial_index":105,"time_elapsed":1679201,"internal_node_id":"0.0-7.0"}]