[{"view_history":"[{\"page_index\":0,\"viewing_time\":5651},{\"page_index\":1,\"viewing_time\":7304}]","rt":12957,"trial_type":"instructions","trial_index":0,"time_elapsed":12957,"internal_node_id":"0.0-0.0"},{"view_history":"[{\"page_index\":0,\"viewing_time\":2545},{\"page_index\":1,\"viewing_time\":2642}]","rt":5188,"trial_type":"instructions","trial_index":1,"time_elapsed":19148,"internal_node_id":"0.0-1.0"},{"group":"tri cycles (cube, non-group)","room_assignment":["purple","green","yellow","pink","blue","grey","brown","red"],"door_color_assignment":["black","white"],"door_generator_assignment":[1,0],"goal":6,"start":3,"action_noise":0.1,"location_history":"[3,7,6]","action_history":"[0,0]","door_history":"[1,1]","location_rts":"[23912,3956]","trial_type":"two-door-navigation","trial_index":2,"time_elapsed":52637,"internal_node_id":"0.0-2.0-0.0"},{"group":"tri cycles (cube, non-group)","room_assignment":["purple","green","yellow","pink","blue","grey","brown","red"],"door_color_assignment":["black","white"],"door_generator_assignment":[1,0],"goal":1,"start":6,"action_noise":0.1,"location_history":"[6,4,7,6,5,1]","action_history":"[1,0,0,0,0]","door_history":"[0,1,1,1,1]","location_rts":"[2244,775,1341,904,1000]","trial_type":"two-door-navigation","trial_index":3,"time_elapsed":67608,"internal_node_id":"0.0-2.0-1.0"},{"group":"tri cycles (cube, non-group)","room_assignment":["purple","green","yellow","pink","blue","grey","brown","red"],"door_color_assignment":["black","white"],"door_generator_assignment":[1,0],"goal":2,"start":1,"action_noise":0.1,"location_history":"[1,5,2]","action_history":"[1,1]","door_history":"[0,0]","location_rts":"[1448,1210]","trial_type":"two-door-navigation","trial_index":4,"time_elapsed":75851,"internal_node_id":"0.0-2.0-2.0"},{"group":"tri cycles (cube, non-group)","room_assignment":["purple","green","yellow","pink","blue","grey","brown","red"],"door_color_assignment":["black","white"],"door_generator_assignment":[1,0],"goal":0,"start":2,"action_noise":0.1,"location_history":"[2,1,5,2,1,0]","action_history":"[0,1,1,1,0]","door_history":"[1,0,0,0,1]","location_rts":"[3438,1072,818,895,1003]","trial_type":"two-door-navigation","trial_index":5,"time_elapsed":91774,"internal_node_id":"0.0-2.0-3.0"},{"group":"tri cycles (cube, non-group)","room_assignment":["purple","green","yellow","pink","blue","grey","brown","red"],"door_color_assignment":["black","white"],"door_generator_assignment":[1,0],"goal":7,"start":0,"action_noise":0.1,"location_history":"[0,3,4,7]","action_history":"[0,0,0]","door_history":"[1,1,1]","location_rts":"[1651,923,1037]","trial_type":"two-door-navigation","trial_index":6,"time_elapsed":102025,"internal_node_id":"0.0-2.0-4.0"},{"group":"tri cycles (cube, non-group)","room_assignment":["purple","green","yellow","pink","blue","grey","brown","red"],"door_color_assignment":["black","white"],"door_generator_assignment":[1,0],"goal":5,"start":7,"action_noise":0.1,"location_history":"[7,3,4,0,3,7,6,4,7,3,4,0,2,6,5]","action_history":"[1,1,1,1,0,0,0,0,1,0,1,1,0,1]","door_history":"[0,0,0,0,1,1,1,1,0,1,0,0,1,0]","location_rts":"[2423,1275,1102,1857,776,919,758,652,1596,595,589,1056,717,739]","trial_type":"two-door-navigation","trial_index":7,"time_elapsed":135066,"internal_node_id":"0.0-2.0-5.0"},{"group":"tri cycles (cube, non-group)","room_assignment":["purple","green","yellow","pink","blue","grey","brown","red"],"door_color_assignment":["black","white"],"door_generator_assignment":[1,0],"goal":4,"start":5,"action_noise":0.1,"location_history":"[5,2,1,5,2,6,4]","action_history":"[1,0,1,1,1,0]","door_history":"[0,1,0,0,0,1]","location_rts":"[2325,1874,1542,885,788,454]","trial_type":"two-door-navigation","trial_index":8,"time_elapsed":152636,"internal_node_id":"0.0-2.0-6.0"},{"group":"tri cycles (cube, non-group)","room_assignment":["purple","green","yellow","pink","blue","grey","brown","red"],"door_color_assignment":["black","white"],"door_generator_assignment":[1,0],"goal":2,"start":4,"action_noise":0.1,"location_history":"[4,0,3,7,3,7,6,4,7,3,4,0,2]","action_history":"[0,0,0,1,0,0,0,1,1,1,1,0]","door_history":"[1,1,1,0,1,1,1,0,0,0,0,1]","location_rts":"[2310,1258,898,740,462,1158,1011,652,479,535,577,992]","trial_type":"two-door-navigation","trial_index":9,"time_elapsed":179654,"internal_node_id":"0.0-2.0-7.0"},{"group":"tri cycles (cube, non-group)","room_assignment":["purple","green","yellow","pink","blue","grey","brown","red"],"door_color_assignment":["black","white"],"door_generator_assignment":[1,0],"goal":3,"start":2,"action_noise":0.1,"location_history":"[2,1,5,2,6,5,2,1,0,3]","action_history":"[0,0,1,1,1,1,0,0,1]","door_history":"[1,1,0,0,0,0,1,1,0]","location_rts":"[970,768,797,617,684,669,691,953,1104]","trial_type":"two-door-navigation","trial_index":10,"time_elapsed":199737,"internal_node_id":"0.0-2.0-8.0"},{"group":"tri cycles (cube, non-group)","room_assignment":["purple","green","yellow","pink","blue","grey","brown","red"],"door_color_assignment":["black","white"],"door_generator_assignment":[1,0],"goal":7,"start":3,"action_noise":0.1,"location_history":"[3,7]","action_history":"[0]","door_history":"[1]","location_rts":"[1287]","trial_type":"two-door-navigation","trial_index":11,"time_elapsed":205561,"internal_node_id":"0.0-2.0-9.0"},{"group":"tri cycles (cube, non-group)","room_assignment":["purple","green","yellow","pink","blue","grey","brown","red"],"door_color_assignment":["black","white"],"door_generator_assignment":[1,0],"goal":0,"start":7,"action_noise":0.1,"location_history":"[7,6,5,2,6,4,7,3,7,6,4,7,6,4,0]","action_history":"[0,1,1,1,0,0,1,0,0,0,0,0,1,1]","door_history":"[1,0,0,0,1,1,0,1,1,1,1,1,0,0]","location_rts":"[1390,811,1143,1291,751,841,983,496,495,540,606,656,574,460]","trial_type":"two-door-navigation","trial_index":12,"time_elapsed":234579,"internal_node_id":"0.0-2.0-10.0"},{"group":"tri cycles (cube, non-group)","room_assignment":["purple","green","yellow","pink","blue","grey","brown","red"],"door_color_assignment":["black","white"],"door_generator_assignment":[1,0],"goal":1,"start":0,"action_noise":0.1,"location_history":"[0,3,4,7,3,4,7,6,4,7,6,4,0,3,7,3,7,6,4,7,3,4,7,3,4,7,6,4,0,3,7,3,4,0,3,7,6,4,7,6,4,0,3,4,0,2,1]","action_history":"[0,1,0,1,1,0,0,0,0,0,0,1,1,0,1,0,0,0,0,1,1,0,1,0,1,0,0,1,0,0,1,1,1,1,1,0,0,0,0,0,1,1,1,1,1,1]","door_history":"[1,0,1,0,0,1,1,1,1,1,1,0,0,1,0,1,1,1,1,0,0,1,0,1,0,1,1,0,1,1,0,0,0,0,0,1,1,1,1,1,0,0,0,0,0,0]","location_rts":"[1484,497,516,851,833,1026,752,502,712,750,788,733,1039,718,854,816,563,936,787,843,587,296,652,514,534,625,638,915,526,822,640,478,503,993,679,342,761,670,547,934,797,689,702,525,900,2241]","trial_type":"two-door-navigation","trial_index":13,"time_elapsed":320168,"internal_node_id":"0.0-2.0-11.0"},{"group":"tri cycles (cube, non-group)","room_assignment":["purple","green","yellow","pink","blue","grey","brown","red"],"door_color_assignment":["black","white"],"door_generator_assignment":[1,0],"goal":6,"start":1,"action_noise":0.1,"location_history":"[1,5,2,6]","action_history":"[1,1,1]","door_history":"[0,0,0]","location_rts":"[23204,7586,4027]","trial_type":"two-door-navigation","trial_index":14,"time_elapsed":361606,"internal_node_id":"0.0-2.0-12.0"},{"group":"tri cycles (cube, non-group)","room_assignment":["purple","green","yellow","pink","blue","grey","brown","red"],"door_color_assignment":["black","white"],"door_generator_assignment":[1,0],"goal":4,"start":6,"action_noise":0.1,"location_history":"[6,4]","action_history":"[0]","door_history":"[1]","location_rts":"[3932]","trial_type":"two-door-navigation","trial_index":15,"time_elapsed":370093,"internal_node_id":"0.0-2.0-13.0"},{"group":"tri cycles (cube, non-group)","room_assignment":["purple","green","yellow","pink","blue","grey","brown","red"],"door_color_assignment":["black","white"],"door_generator_assignment":[1,0],"goal":5,"start":4,"action_noise":0.1,"location_history":"[4,7,6,4,0,2,1,5]","action_history":"[0,0,0,1,0,0,1]","door_history":"[1,1,1,0,1,1,0]","location_rts":"[2309,4398,13156,5070,5685,7728,5770]","trial_type":"two-door-navigation","trial_index":16,"time_elapsed":424972,"internal_node_id":"0.0-2.0-14.0"},{"group":"tri cycles (cube, non-group)","room_assignment":["purple","green","yellow","pink","blue","grey","brown","red"],"door_color_assignment":["black","white"],"door_generator_assignment":[1,0],"goal":4,"start":5,"action_noise":0.1,"location_history":"[5,1,0,3,7,6,5,1,5,1,5,1,0,3,7,6,4]","action_history":"[0,0,1,0,1,1,1,1,0,0,0,0,1,0,0,0]","door_history":"[1,1,0,1,0,0,0,0,1,1,1,1,0,1,1,1]","location_rts":"[3100,5869,10735,5075,6428,4386,3611,8821,2343,3556,3407,421,12083,2449,2344,3615]","trial_type":"two-door-navigation","trial_index":17,"time_elapsed":523289,"internal_node_id":"0.0-2.0-15.0"},{"group":"tri cycles (cube, non-group)","room_assignment":["purple","green","yellow","pink","blue","grey","brown","red"],"door_color_assignment":["black","white"],"door_generator_assignment":[1,0],"goal":0,"start":4,"action_noise":0.1,"location_history":"[4,7,3,7,6,5,2,1,0]","action_history":"[1,1,0,0,1,1,0,0]","door_history":"[0,0,1,1,0,0,1,1]","location_rts":"[8094,8733,93440,9917,2735,6984,6665,721]","trial_type":"two-door-navigation","trial_index":18,"time_elapsed":672368,"internal_node_id":"0.0-2.0-16.0"},{"group":"tri cycles (cube, non-group)","room_assignment":["purple","green","yellow","pink","blue","grey","brown","red"],"door_color_assignment":["black","white"],"door_generator_assignment":[1,0],"goal":7,"start":0,"action_noise":0.1,"location_history":"[0,3,7]","action_history":"[1,0]","door_history":"[0,1]","location_rts":"[14122,1071]","trial_type":"two-door-navigation","trial_index":19,"time_elapsed":693137,"internal_node_id":"0.0-2.0-17.0"},{"group":"tri cycles (cube, non-group)","room_assignment":["purple","green","yellow","pink","blue","grey","brown","red"],"door_color_assignment":["black","white"],"door_generator_assignment":[1,0],"goal":2,"start":7,"action_noise":0.1,"location_history":"[7,6,4,0,2]","action_history":"[0,0,1,0]","door_history":"[1,1,0,1]","location_rts":"[15945,8271,4666,625]","trial_type":"two-door-navigation","trial_index":20,"time_elapsed":730295,"internal_node_id":"0.0-2.0-18.0"},{"group":"tri cycles (cube, non-group)","room_assignment":["purple","green","yellow","pink","blue","grey","brown","red"],"door_color_assignment":["black","white"],"door_generator_assignment":[1,0],"goal":1,"start":2,"action_noise":0.1,"location_history":"[2,1]","action_history":"[0]","door_history":"[1]","location_rts":"[14983]","trial_type":"two-door-navigation","trial_index":21,"time_elapsed":749828,"internal_node_id":"0.0-2.0-19.0"},{"group":"tri cycles (cube, non-group)","room_assignment":["purple","green","yellow","pink","blue","grey","brown","red"],"door_color_assignment":["black","white"],"door_generator_assignment":[1,0],"goal":3,"start":1,"action_noise":0.1,"location_history":"[1,0,3]","action_history":"[1,1]","door_history":"[0,0]","location_rts":"[6451,7569]","trial_type":"two-door-navigation","trial_index":22,"time_elapsed":769426,"internal_node_id":"0.0-2.0-20.0"},{"group":"tri cycles (cube, non-group)","room_assignment":["purple","green","yellow","pink","blue","grey","brown","red"],"door_color_assignment":["black","white"],"door_generator_assignment":[1,0],"goal":6,"start":3,"action_noise":0.1,"location_history":"[3,4,7,6]","action_history":"[1,0,0]","door_history":"[0,1,1]","location_rts":"[6864,12539,2429]","trial_type":"two-door-navigation","trial_index":23,"time_elapsed":797876,"internal_node_id":"0.0-2.0-21.0"},{"group":"tri cycles (cube, non-group)","room_assignment":["purple","green","yellow","pink","blue","grey","brown","red"],"door_color_assignment":["black","white"],"door_generator_assignment":[1,0],"goal":5,"start":6,"action_noise":0.1,"location_history":"[6,4,7,6,5]","action_history":"[1,0,0,1]","door_history":"[0,1,1,0]","location_rts":"[4011,11980,4201,1118]","trial_type":"two-door-navigation","trial_index":24,"time_elapsed":826836,"internal_node_id":"0.0-2.0-22.0"},{"group":"tri cycles (cube, non-group)","room_assignment":["purple","green","yellow","pink","blue","grey","brown","red"],"door_color_assignment":["black","white"],"door_generator_assignment":[1,0],"goal":3,"start":5,"action_noise":0.1,"location_history":"[5,1,0,3]","action_history":"[0,0,1]","door_history":"[1,1,0]","location_rts":"[8651,2800,508]","trial_type":"two-door-navigation","trial_index":25,"time_elapsed":845422,"internal_node_id":"0.0-2.0-23.0"},{"group":"tri cycles (cube, non-group)","room_assignment":["purple","green","yellow","pink","blue","grey","brown","red"],"door_color_assignment":["black","white"],"door_generator_assignment":[1,0],"goal":0,"start":3,"action_noise":0.1,"location_history":"[3,4,0]","action_history":"[1,1]","door_history":"[0,0]","location_rts":"[3267,1381]","trial_type":"two-door-navigation","trial_index":26,"time_elapsed":855658,"internal_node_id":"0.0-2.0-24.0"},{"group":"tri cycles (cube, non-group)","room_assignment":["purple","green","yellow","pink","blue","grey","brown","red"],"door_color_assignment":["black","white"],"door_generator_assignment":[1,0],"goal":7,"start":0,"action_noise":0.1,"location_history":"[0,2,1,0,2,6,5,1,0,2,6,4,0,3,4,7]","action_history":"[0,1,0,0,1,0,0,0,0,1,0,0,1,0,0]","door_history":"[1,0,1,1,0,1,1,1,1,0,1,1,0,1,1]","location_rts":"[4006,4120,1673,909,3983,881,1700,3125,5477,6978,1944,895,11466,1788,3807]","trial_type":"two-door-navigation","trial_index":27,"time_elapsed":927480,"internal_node_id":"0.0-2.0-25.0"},{"group":"tri cycles (cube, non-group)","room_assignment":["purple","green","yellow","pink","blue","grey","brown","red"],"door_color_assignment":["black","white"],"door_generator_assignment":[1,0],"goal":2,"start":7,"action_noise":0.1,"location_history":"[7,6,5,2]","action_history":"[1,1,1]","door_history":"[0,0,0]","location_rts":"[6229,1418,1466]","trial_type":"two-door-navigation","trial_index":28,"time_elapsed":943215,"internal_node_id":"0.0-2.0-26.0"},{"group":"tri cycles (cube, non-group)","room_assignment":["purple","green","yellow","pink","blue","grey","brown","red"],"door_color_assignment":["black","white"],"door_generator_assignment":[1,0],"goal":1,"start":2,"action_noise":0.1,"location_history":"[2,1]","action_history":"[0]","door_history":"[1]","location_rts":"[2949]","trial_type":"two-door-navigation","trial_index":29,"time_elapsed":950720,"internal_node_id":"0.0-2.0-27.0"},{"group":"tri cycles (cube, non-group)","room_assignment":["purple","green","yellow","pink","blue","grey","brown","red"],"door_color_assignment":["black","white"],"door_generator_assignment":[1,0],"goal":5,"start":1,"action_noise":0.1,"location_history":"[1,5]","action_history":"[1]","door_history":"[0]","location_rts":"[2927]","trial_type":"two-door-navigation","trial_index":30,"time_elapsed":958193,"internal_node_id":"0.0-2.0-28.0"},{"group":"tri cycles (cube, non-group)","room_assignment":["purple","green","yellow","pink","blue","grey","brown","red"],"door_color_assignment":["black","white"],"door_generator_assignment":[1,0],"goal":4,"start":5,"action_noise":0.1,"location_history":"[5,1,5,1,5,1,0,3,7,3,4]","action_history":"[0,0,1,1,0,0,1,0,1,1]","door_history":"[1,1,0,0,1,1,0,1,0,0]","location_rts":"[9873,545,4154,1500,2019,968,897,2322,4266,655]","trial_type":"two-door-navigation","trial_index":31,"time_elapsed":999268,"internal_node_id":"0.0-2.0-29.0"},{"group":"tri cycles (cube, non-group)","room_assignment":["purple","green","yellow","pink","blue","grey","brown","red"],"door_color_assignment":["black","white"],"door_generator_assignment":[1,0],"goal":6,"start":4,"action_noise":0.1,"location_history":"[4,0,2,6]","action_history":"[0,0,1]","door_history":"[1,1,0]","location_rts":"[12500,4926,1484]","trial_type":"two-door-navigation","trial_index":32,"time_elapsed":1024802,"internal_node_id":"0.0-2.0-30.0"},{"group":"tri cycles (cube, non-group)","room_assignment":["purple","green","yellow","pink","blue","grey","brown","red"],"door_color_assignment":["black","white"],"door_generator_assignment":[1,0],"goal":4,"start":6,"action_noise":0.1,"location_history":"[6,4]","action_history":"[0]","door_history":"[1]","location_rts":"[3396]","trial_type":"two-door-navigation","trial_index":33,"time_elapsed":1032739,"internal_node_id":"0.0-2.0-31.0"},{"group":"tri cycles (cube, non-group)","room_assignment":["purple","green","yellow","pink","blue","grey","brown","red"],"door_color_assignment":["black","white"],"door_generator_assignment":[1,0],"goal":2,"start":4,"action_noise":0.1,"location_history":"[4,0,2]","action_history":"[1,0]","door_history":"[0,1]","location_rts":"[6457,1702]","trial_type":"two-door-navigation","trial_index":34,"time_elapsed":1046490,"internal_node_id":"0.0-2.0-32.0"},{"group":"tri cycles (cube, non-group)","room_assignment":["purple","green","yellow","pink","blue","grey","brown","red"],"door_color_assignment":["black","white"],"door_generator_assignment":[1,0],"goal":0,"start":2,"action_noise":0.1,"location_history":"[2,1,0]","action_history":"[0,0]","door_history":"[1,1]","location_rts":"[1118,1469]","trial_type":"two-door-navigation","trial_index":35,"time_elapsed":1054676,"internal_node_id":"0.0-2.0-33.0"},{"group":"tri cycles (cube, non-group)","room_assignment":["purple","green","yellow","pink","blue","grey","brown","red"],"door_color_assignment":["black","white"],"door_generator_assignment":[1,0],"goal":5,"start":0,"action_noise":0.1,"location_history":"[0,3,4,7,6,5]","action_history":"[1,1,0,0,1]","door_history":"[0,0,1,1,0]","location_rts":"[5705,1415,1061,5471,1096]","trial_type":"two-door-navigation","trial_index":36,"time_elapsed":1078126,"internal_node_id":"0.0-2.0-34.0"},{"group":"tri cycles (cube, non-group)","room_assignment":["purple","green","yellow","pink","blue","grey","brown","red"],"door_color_assignment":["black","white"],"door_generator_assignment":[1,0],"goal":1,"start":5,"action_noise":0.1,"location_history":"[5,1]","action_history":"[0]","door_history":"[1]","location_rts":"[7223]","trial_type":"two-door-navigation","trial_index":37,"time_elapsed":1089900,"internal_node_id":"0.0-2.0-35.0"},{"group":"tri cycles (cube, non-group)","room_assignment":["purple","green","yellow","pink","blue","grey","brown","red"],"door_color_assignment":["black","white"],"door_generator_assignment":[1,0],"goal":7,"start":1,"action_noise":0.1,"location_history":"[1,0,2,1,5,1,0,3,7]","action_history":"[0,1,0,1,0,0,1,0]","door_history":"[1,0,1,0,1,1,0,1]","location_rts":"[11108,1807,3725,849,875,1185,1187,1988]","trial_type":"two-door-navigation","trial_index":38,"time_elapsed":1124403,"internal_node_id":"0.0-2.0-36.0"},{"group":"tri cycles (cube, non-group)","room_assignment":["purple","green","yellow","pink","blue","grey","brown","red"],"door_color_assignment":["black","white"],"door_generator_assignment":[1,0],"goal":3,"start":7,"action_noise":0.1,"location_history":"[7,3]","action_history":"[1]","door_history":"[0]","location_rts":"[3443]","trial_type":"two-door-navigation","trial_index":39,"time_elapsed":1132387,"internal_node_id":"0.0-2.0-37.0"},{"group":"tri cycles (cube, non-group)","room_assignment":["purple","green","yellow","pink","blue","grey","brown","red"],"door_color_assignment":["black","white"],"door_generator_assignment":[1,0],"goal":6,"start":3,"action_noise":0.1,"location_history":"[3,7,3,7,6]","action_history":"[0,0,0,0]","door_history":"[1,1,1,1]","location_rts":"[1509,1999,1200,361]","trial_type":"two-door-navigation","trial_index":40,"time_elapsed":1145109,"internal_node_id":"0.0-2.0-38.0"},{"group":"tri cycles (cube, non-group)","room_assignment":["purple","green","yellow","pink","blue","grey","brown","red"],"door_color_assignment":["black","white"],"door_generator_assignment":[1,0],"goal":2,"start":6,"action_noise":0.1,"location_history":"[6,4,7,3,4,7,6,4,0,2]","action_history":"[0,0,1,1,1,0,0,1,0]","door_history":"[1,1,0,0,0,1,1,0,1]","location_rts":"[4538,2225,2882,1995,1094,1009,1242,2543,658]","trial_type":"two-door-navigation","trial_index":41,"time_elapsed":1176130,"internal_node_id":"0.0-2.0-39.0"},{"group":"tri cycles (cube, non-group)","room_assignment":["purple","green","yellow","pink","blue","grey","brown","red"],"door_color_assignment":["black","white"],"door_generator_assignment":[1,0],"goal":1,"start":2,"action_noise":0.1,"location_history":"[2,1]","action_history":"[0]","door_history":"[1]","location_rts":"[4633]","trial_type":"two-door-navigation","trial_index":42,"time_elapsed":1185312,"internal_node_id":"0.0-2.0-40.0"},{"group":"tri cycles (cube, non-group)","room_assignment":["purple","green","yellow","pink","blue","grey","brown","red"],"door_color_assignment":["black","white"],"door_generator_assignment":[1,0],"goal":0,"start":1,"action_noise":0.1,"location_history":"[1,0]","action_history":"[0]","door_history":"[1]","location_rts":"[2653]","trial_type":"two-door-navigation","trial_index":43,"time_elapsed":1192523,"internal_node_id":"0.0-2.0-41.0"},{"group":"tri cycles (cube, non-group)","room_assignment":["purple","green","yellow","pink","blue","grey","brown","red"],"door_color_assignment":["black","white"],"door_generator_assignment":[1,0],"goal":4,"start":0,"action_noise":0.1,"location_history":"[0,3,4]","action_history":"[1,1]","door_history":"[0,0]","location_rts":"[15813,423]","trial_type":"two-door-navigation","trial_index":44,"time_elapsed":1214339,"internal_node_id":"0.0-2.0-42.0"},{"group":"tri cycles (cube, non-group)","room_assignment":["purple","green","yellow","pink","blue","grey","brown","red"],"door_color_assignment":["black","white"],"door_generator_assignment":[1,0],"goal":6,"start":4,"action_noise":0.1,"location_history":"[4,0,2,6]","action_history":"[1,0,1]","door_history":"[0,1,0]","location_rts":"[5029,686,1096]","trial_type":"two-door-navigation","trial_index":45,"time_elapsed":1227782,"internal_node_id":"0.0-2.0-43.0"},{"group":"tri cycles (cube, non-group)","room_assignment":["purple","green","yellow","pink","blue","grey","brown","red"],"door_color_assignment":["black","white"],"door_generator_assignment":[1,0],"goal":3,"start":6,"action_noise":0.1,"location_history":"[6,4,0,3]","action_history":"[0,1,1]","door_history":"[1,0,0]","location_rts":"[3046,1012,374]","trial_type":"two-door-navigation","trial_index":46,"time_elapsed":1238834,"internal_node_id":"0.0-2.0-44.0"},{"group":"tri cycles (cube, non-group)","room_assignment":["purple","green","yellow","pink","blue","grey","brown","red"],"door_color_assignment":["black","white"],"door_generator_assignment":[1,0],"goal":7,"start":3,"action_noise":0.1,"location_history":"[3,4,7]","action_history":"[0,0]","door_history":"[1,1]","location_rts":"[5073,4015]","trial_type":"two-door-navigation","trial_index":47,"time_elapsed":1253503,"internal_node_id":"0.0-2.0-45.0"},{"group":"tri cycles (cube, non-group)","room_assignment":["purple","green","yellow","pink","blue","grey","brown","red"],"door_color_assignment":["black","white"],"door_generator_assignment":[1,0],"goal":5,"start":7,"action_noise":0.1,"location_history":"[7,3,7,6,5]","action_history":"[1,1,0,1]","door_history":"[0,0,1,0]","location_rts":"[8659,1181,4878,970]","trial_type":"two-door-navigation","trial_index":48,"time_elapsed":1276844,"internal_node_id":"0.0-2.0-46.0"},{"group":"tri cycles (cube, non-group)","room_assignment":["purple","green","yellow","pink","blue","grey","brown","red"],"door_color_assignment":["black","white"],"door_generator_assignment":[1,0],"goal":1,"start":5,"action_noise":0.1,"location_history":"[5,1]","action_history":"[0]","door_history":"[1]","location_rts":"[21960]","trial_type":"two-door-navigation","trial_index":49,"time_elapsed":1303350,"internal_node_id":"0.0-2.0-47.0"},{"group":"tri cycles (cube, non-group)","room_assignment":["purple","green","yellow","pink","blue","grey","brown","red"],"door_color_assignment":["black","white"],"door_generator_assignment":[1,0],"goal":6,"start":1,"action_noise":0.1,"location_history":"[1,5,1,0,2,6]","action_history":"[0,0,0,0,1]","door_history":"[1,1,1,1,0]","location_rts":"[3441,1747,1029,5258,573]","trial_type":"two-door-navigation","trial_index":50,"time_elapsed":1324061,"internal_node_id":"0.0-2.0-48.0"},{"group":"tri cycles (cube, non-group)","room_assignment":["purple","green","yellow","pink","blue","grey","brown","red"],"door_color_assignment":["black","white"],"door_generator_assignment":[1,0],"goal":0,"start":6,"action_noise":0.1,"location_history":"[6,4,0]","action_history":"[0,1]","door_history":"[1,0]","location_rts":"[16751,1158]","trial_type":"two-door-navigation","trial_index":51,"time_elapsed":1347553,"internal_node_id":"0.0-2.0-49.0"},{"view_history":"[{\"page_index\":0,\"viewing_time\":10219}]","rt":10220,"trial_type":"instructions","trial_index":52,"time_elapsed":1358777,"internal_node_id":"0.0-3.0"},{"view_history":"[{\"page_index\":0,\"viewing_time\":5055},{\"page_index\":1,\"viewing_time\":3427}]","rt":8483,"trial_type":"instructions","trial_index":53,"time_elapsed":1368261,"internal_node_id":"0.0-4.0"},{"group":"square cycles (cube, non-group)","fractal_assignment":["../images/pnk_blu.png","../images/grn_red.png","../images/gry_blk.png","../images/ylw_slt.png","../images/ylw_pnk.png","../images/blu_wht.png","../images/org_blu.png","../images/cyn_red.png"],"mutagen_generator_assignment":[1,0],"goal":6,"start":3,"action_noise":0.1,"location_history":"[3,2,6]","action_history":"[1,1]","mutagen_history":"[0,0]","location_rts":"[9343,16939]","trial_type":"fractal-mutation","trial_index":54,"time_elapsed":1400251,"internal_node_id":"0.0-5.0-0.0"},{"group":"square cycles (cube, non-group)","fractal_assignment":["../images/pnk_blu.png","../images/grn_red.png","../images/gry_blk.png","../images/ylw_slt.png","../images/ylw_pnk.png","../images/blu_wht.png","../images/org_blu.png","../images/cyn_red.png"],"mutagen_generator_assignment":[1,0],"goal":1,"start":6,"action_noise":0.1,"location_history":"[6,7,3,0,1]","action_history":"[0,1,0,1]","mutagen_history":"[1,0,1,0]","location_rts":"[6722,12493,24616,21041]","trial_type":"fractal-mutation","trial_index":55,"time_elapsed":1473083,"internal_node_id":"0.0-5.0-1.0"},{"group":"square cycles (cube, non-group)","fractal_assignment":["../images/pnk_blu.png","../images/grn_red.png","../images/gry_blk.png","../images/ylw_slt.png","../images/ylw_pnk.png","../images/blu_wht.png","../images/org_blu.png","../images/cyn_red.png"],"mutagen_generator_assignment":[1,0],"goal":2,"start":1,"action_noise":0.1,"location_history":"[1,0,4,7,3,2]","action_history":"[1,1,1,1,0]","mutagen_history":"[0,0,0,0,1]","location_rts":"[13927,5580,4879,12373,4757]","trial_type":"fractal-mutation","trial_index":56,"time_elapsed":1523690,"internal_node_id":"0.0-5.0-2.0"},{"group":"square cycles (cube, non-group)","fractal_assignment":["../images/pnk_blu.png","../images/grn_red.png","../images/gry_blk.png","../images/ylw_slt.png","../images/ylw_pnk.png","../images/blu_wht.png","../images/org_blu.png","../images/cyn_red.png"],"mutagen_generator_assignment":[1,0],"goal":0,"start":2,"action_noise":0.1,"location_history":"[2,3,2,6,7,6,5,4,7,3,2,6,7,6,7,3,0]","action_history":"[0,1,1,1,0,0,0,0,1,1,1,1,0,1,1,0]","mutagen_history":"[1,0,0,0,1,1,1,1,0,0,0,0,1,0,0,1]","location_rts":"[3146,12440,3588,2436,10796,5120,9990,10024,11241,2305,3530,602,867,1317,2993,668]","trial_type":"fractal-mutation","trial_index":57,"time_elapsed":1626000,"internal_node_id":"0.0-5.0-3.0"},{"group":"square cycles (cube, non-group)","fractal_assignment":["../images/pnk_blu.png","../images/grn_red.png","../images/gry_blk.png","../images/ylw_slt.png","../images/ylw_pnk.png","../images/blu_wht.png","../images/org_blu.png","../images/cyn_red.png"],"mutagen_generator_assignment":[1,0],"goal":7,"start":0,"action_noise":0.1,"location_history":"[0,1,2,3,2,6,7]","action_history":"[0,0,0,1,1,1]","mutagen_history":"[1,1,1,0,0,0]","location_rts":"[6219,12215,11697,3140,2483,1130]","trial_type":"fractal-mutation","trial_index":58,"time_elapsed":1673083,"internal_node_id":"0.0-5.0-4.0"},{"group":"square cycles (cube, non-group)","fractal_assignment":["../images/pnk_blu.png","../images/grn_red.png","../images/gry_blk.png","../images/ylw_slt.png","../images/ylw_pnk.png","../images/blu_wht.png","../images/org_blu.png","../images/cyn_red.png"],"mutagen_generator_assignment":[1,0],"goal":5,"start":7,"action_noise":0.1,"location_history":"[7,6,5]","action_history":"[0,0]","mutagen_history":"[1,1]","location_rts":"[16784,8302]","trial_type":"fractal-mutation","trial_index":59,"time_elapsed":1703953,"internal_node_id":"0.0-5.0-5.0"},{"group":"square cycles (cube, non-group)","fractal_assignment":["../images/pnk_blu.png","../images/grn_red.png","../images/gry_blk.png","../images/ylw_slt.png","../images/ylw_pnk.png","../images/blu_wht.png","../images/org_blu.png","../images/cyn_red.png"],"mutagen_generator_assignment":[1,0],"goal":4,"start":5,"action_noise":0.1,"location_history":"[5,4]","action_history":"[0]","mutagen_history":"[1]","location_rts":"[5526]","trial_type":"fractal-mutation","trial_index":60,"time_elapsed":1714117,"internal_node_id":"0.0-5.0-6.0"},{"group":"square cycles (cube, non-group)","fractal_assignment":["../images/pnk_blu.png","../images/grn_red.png","../images/gry_blk.png","../images/ylw_slt.png","../images/ylw_pnk.png","../images/blu_wht.png","../images/org_blu.png","../images/cyn_red.png"],"mutagen_generator_assignment":[1,0],"goal":2,"start":4,"action_noise":0.1,"location_history":"[4,5,1,2]","action_history":"[1,1,0]","mutagen_history":"[0,0,1]","location_rts":"[3053,8773,10235]","trial_type":"fractal-mutation","trial_index":61,"time_elapsed":1742997,"internal_node_id":"0.0-5.0-7.0"},{"group":"square cycles (cube, non-group)","fractal_assignment":["../images/pnk_blu.png","../images/grn_red.png","../images/gry_blk.png","../images/ylw_slt.png","../images/ylw_pnk.png","../images/blu_wht.png","../images/org_blu.png","../images/cyn_red.png"],"mutagen_generator_assignment":[1,0],"goal":3,"start":2,"action_noise":0.1,"location_history":"[2,6,7,6,5,4,7,6,7,3]","action_history":"[0,1,0,0,1,0,0,1,1]","mutagen_history":"[1,0,1,1,0,1,1,0,0]","location_rts":"[3903,3945,2630,1619,5560,1054,3776,5772,514]","trial_type":"fractal-mutation","trial_index":62,"time_elapsed":1785345,"internal_node_id":"0.0-5.0-8.0"},{"group":"square cycles (cube, non-group)","fractal_assignment":["../images/pnk_blu.png","../images/grn_red.png","../images/gry_blk.png","../images/ylw_slt.png","../images/ylw_pnk.png","../images/blu_wht.png","../images/org_blu.png","../images/cyn_red.png"],"mutagen_generator_assignment":[1,0],"goal":7,"start":3,"action_noise":0.1,"location_history":"[3,0,1,2,6,7]","action_history":"[0,0,0,1,1]","mutagen_history":"[1,1,1,0,0]","location_rts":"[3016,2379,6755,1686,660]","trial_type":"fractal-mutation","trial_index":63,"time_elapsed":1808917,"internal_node_id":"0.0-5.0-9.0"},{"group":"square cycles (cube, non-group)","fractal_assignment":["../images/pnk_blu.png","../images/grn_red.png","../images/gry_blk.png","../images/ylw_slt.png","../images/ylw_pnk.png","../images/blu_wht.png","../images/org_blu.png","../images/cyn_red.png"],"mutagen_generator_assignment":[1,0],"goal":0,"start":7,"action_noise":0.1,"location_history":"[7,3,0]","action_history":"[1,0]","mutagen_history":"[0,1]","location_rts":"[7668,1806]","trial_type":"fractal-mutation","trial_index":64,"time_elapsed":1824137,"internal_node_id":"0.0-5.0-10.0"},{"group":"square cycles (cube, non-group)","fractal_assignment":["../images/pnk_blu.png","../images/grn_red.png","../images/gry_blk.png","../images/ylw_slt.png","../images/ylw_pnk.png","../images/blu_wht.png","../images/org_blu.png","../images/cyn_red.png"],"mutagen_generator_assignment":[1,0],"goal":1,"start":0,"action_noise":0.1,"location_history":"[0,1]","action_history":"[0]","mutagen_history":"[1]","location_rts":"[4333]","trial_type":"fractal-mutation","trial_index":65,"time_elapsed":1833111,"internal_node_id":"0.0-5.0-11.0"},{"group":"square cycles (cube, non-group)","fractal_assignment":["../images/pnk_blu.png","../images/grn_red.png","../images/gry_blk.png","../images/ylw_slt.png","../images/ylw_pnk.png","../images/blu_wht.png","../images/org_blu.png","../images/cyn_red.png"],"mutagen_generator_assignment":[1,0],"goal":6,"start":1,"action_noise":0.1,"location_history":"[1,2,6]","action_history":"[0,1]","mutagen_history":"[1,0]","location_rts":"[3041,704]","trial_type":"fractal-mutation","trial_index":66,"time_elapsed":1842578,"internal_node_id":"0.0-5.0-12.0"},{"group":"square cycles (cube, non-group)","fractal_assignment":["../images/pnk_blu.png","../images/grn_red.png","../images/gry_blk.png","../images/ylw_slt.png","../images/ylw_pnk.png","../images/blu_wht.png","../images/org_blu.png","../images/cyn_red.png"],"mutagen_generator_assignment":[1,0],"goal":4,"start":6,"action_noise":0.1,"location_history":"[6,5,4]","action_history":"[0,0]","mutagen_history":"[1,1]","location_rts":"[3693,1289]","trial_type":"fractal-mutation","trial_index":67,"time_elapsed":1853329,"internal_node_id":"0.0-5.0-13.0"},{"group":"square cycles (cube, non-group)","fractal_assignment":["../images/pnk_blu.png","../images/grn_red.png","../images/gry_blk.png","../images/ylw_slt.png","../images/ylw_pnk.png","../images/blu_wht.png","../images/org_blu.png","../images/cyn_red.png"],"mutagen_generator_assignment":[1,0],"goal":5,"start":4,"action_noise":0.1,"location_history":"[4,5]","action_history":"[1]","mutagen_history":"[0]","location_rts":"[3586]","trial_type":"fractal-mutation","trial_index":68,"time_elapsed":1861519,"internal_node_id":"0.0-5.0-14.0"},{"group":"square cycles (cube, non-group)","fractal_assignment":["../images/pnk_blu.png","../images/grn_red.png","../images/gry_blk.png","../images/ylw_slt.png","../images/ylw_pnk.png","../images/blu_wht.png","../images/org_blu.png","../images/cyn_red.png"],"mutagen_generator_assignment":[1,0],"goal":4,"start":5,"action_noise":0.1,"location_history":"[5,4]","action_history":"[0]","mutagen_history":"[1]","location_rts":"[5586]","trial_type":"fractal-mutation","trial_index":69,"time_elapsed":1871743,"internal_node_id":"0.0-5.0-15.0"},{"group":"square cycles (cube, non-group)","fractal_assignment":["../images/pnk_blu.png","../images/grn_red.png","../images/gry_blk.png","../images/ylw_slt.png","../images/ylw_pnk.png","../images/blu_wht.png","../images/org_blu.png","../images/cyn_red.png"],"mutagen_generator_assignment":[1,0],"goal":0,"start":4,"action_noise":0.1,"location_history":"[4,7,3,0]","action_history":"[0,1,0]","mutagen_history":"[1,0,1]","location_rts":"[9905,3805,1058]","trial_type":"fractal-mutation","trial_index":70,"time_elapsed":1893359,"internal_node_id":"0.0-5.0-16.0"},{"group":"square cycles (cube, non-group)","fractal_assignment":["../images/pnk_blu.png","../images/grn_red.png","../images/gry_blk.png","../images/ylw_slt.png","../images/ylw_pnk.png","../images/blu_wht.png","../images/org_blu.png","../images/cyn_red.png"],"mutagen_generator_assignment":[1,0],"goal":7,"start":0,"action_noise":0.1,"location_history":"[0,4,7]","action_history":"[1,0]","mutagen_history":"[0,1]","location_rts":"[3088,2032]","trial_type":"fractal-mutation","trial_index":71,"time_elapsed":1904215,"internal_node_id":"0.0-5.0-17.0"},{"group":"square cycles (cube, non-group)","fractal_assignment":["../images/pnk_blu.png","../images/grn_red.png","../images/gry_blk.png","../images/ylw_slt.png","../images/ylw_pnk.png","../images/blu_wht.png","../images/org_blu.png","../images/cyn_red.png"],"mutagen_generator_assignment":[1,0],"goal":2,"start":7,"action_noise":0.1,"location_history":"[7,6,5,1,2]","action_history":"[0,0,1,0]","mutagen_history":"[1,1,0,1]","location_rts":"[7348,1068,945,2155]","trial_type":"fractal-mutation","trial_index":72,"time_elapsed":1923835,"internal_node_id":"0.0-5.0-18.0"},{"group":"square cycles (cube, non-group)","fractal_assignment":["../images/pnk_blu.png","../images/grn_red.png","../images/gry_blk.png","../images/ylw_slt.png","../images/ylw_pnk.png","../images/blu_wht.png","../images/org_blu.png","../images/cyn_red.png"],"mutagen_generator_assignment":[1,0],"goal":1,"start":2,"action_noise":0.1,"location_history":"[2,3,0,4,5,1]","action_history":"[0,0,1,1,1]","mutagen_history":"[1,1,0,0,0]","location_rts":"[3162,6702,3759,2983,1434]","trial_type":"fractal-mutation","trial_index":73,"time_elapsed":1950959,"internal_node_id":"0.0-5.0-19.0"},{"group":"square cycles (cube, non-group)","fractal_assignment":["../images/pnk_blu.png","../images/grn_red.png","../images/gry_blk.png","../images/ylw_slt.png","../images/ylw_pnk.png","../images/blu_wht.png","../images/org_blu.png","../images/cyn_red.png"],"mutagen_generator_assignment":[1,0],"goal":3,"start":1,"action_noise":0.1,"location_history":"[1,0,1,2,3]","action_history":"[1,1,0,0]","mutagen_history":"[0,0,1,1]","location_rts":"[6728,3739,4477,3745]","trial_type":"fractal-mutation","trial_index":74,"time_elapsed":1977592,"internal_node_id":"0.0-5.0-20.0"},{"group":"square cycles (cube, non-group)","fractal_assignment":["../images/pnk_blu.png","../images/grn_red.png","../images/gry_blk.png","../images/ylw_slt.png","../images/ylw_pnk.png","../images/blu_wht.png","../images/org_blu.png","../images/cyn_red.png"],"mutagen_generator_assignment":[1,0],"goal":6,"start":3,"action_noise":0.1,"location_history":"[3,2,6]","action_history":"[1,1]","mutagen_history":"[0,0]","location_rts":"[4090,4080]","trial_type":"fractal-mutation","trial_index":75,"time_elapsed":1991450,"internal_node_id":"0.0-5.0-21.0"},{"group":"square cycles (cube, non-group)","fractal_assignment":["../images/pnk_blu.png","../images/grn_red.png","../images/gry_blk.png","../images/ylw_slt.png","../images/ylw_pnk.png","../images/blu_wht.png","../images/org_blu.png","../images/cyn_red.png"],"mutagen_generator_assignment":[1,0],"goal":5,"start":6,"action_noise":0.1,"location_history":"[6,5]","action_history":"[0]","mutagen_history":"[1]","location_rts":"[3802]","trial_type":"fractal-mutation","trial_index":76,"time_elapsed":1999890,"internal_node_id":"0.0-5.0-22.0"},{"group":"square cycles (cube, non-group)","fractal_assignment":["../images/pnk_blu.png","../images/grn_red.png","../images/gry_blk.png","../images/ylw_slt.png","../images/ylw_pnk.png","../images/blu_wht.png","../images/org_blu.png","../images/cyn_red.png"],"mutagen_generator_assignment":[1,0],"goal":3,"start":5,"action_noise":0.1,"location_history":"[5,1,2,3]","action_history":"[1,0,0]","mutagen_history":"[0,1,1]","location_rts":"[3754,900,459]","trial_type":"fractal-mutation","trial_index":77,"time_elapsed":2011834,"internal_node_id":"0.0-5.0-23.0"},{"group":"square cycles (cube, non-group)","fractal_assignment":["../images/pnk_blu.png","../images/grn_red.png","../images/gry_blk.png","../images/ylw_slt.png","../images/ylw_pnk.png","../images/blu_wht.png","../images/org_blu.png","../images/cyn_red.png"],"mutagen_generator_assignment":[1,0],"goal":0,"start":3,"action_noise":0.1,"location_history":"[3,0]","action_history":"[0]","mutagen_history":"[1]","location_rts":"[3888]","trial_type":"fractal-mutation","trial_index":78,"time_elapsed":2020346,"internal_node_id":"0.0-5.0-24.0"},{"group":"square cycles (cube, non-group)","fractal_assignment":["../images/pnk_blu.png","../images/grn_red.png","../images/gry_blk.png","../images/ylw_slt.png","../images/ylw_pnk.png","../images/blu_wht.png","../images/org_blu.png","../images/cyn_red.png"],"mutagen_generator_assignment":[1,0],"goal":7,"start":0,"action_noise":0.1,"location_history":"[0,4,7]","action_history":"[1,0]","mutagen_history":"[0,1]","location_rts":"[9852,8762]","trial_type":"fractal-mutation","trial_index":79,"time_elapsed":2044692,"internal_node_id":"0.0-5.0-25.0"},{"group":"square cycles (cube, non-group)","fractal_assignment":["../images/pnk_blu.png","../images/grn_red.png","../images/gry_blk.png","../images/ylw_slt.png","../images/ylw_pnk.png","../images/blu_wht.png","../images/org_blu.png","../images/cyn_red.png"],"mutagen_generator_assignment":[1,0],"goal":2,"start":7,"action_noise":0.1,"location_history":"[7,6,7,3,0,1,2]","action_history":"[0,0,1,0,0,0]","mutagen_history":"[1,1,0,1,1,1]","location_rts":"[9087,1400,1123,1012,3969,4713]","trial_type":"fractal-mutation","trial_index":80,"time_elapsed":2076276,"internal_node_id":"0.0-5.0-26.0"},{"group":"square cycles (cube, non-group)","fractal_assignment":["../images/pnk_blu.png","../images/grn_red.png","../images/gry_blk.png","../images/ylw_slt.png","../images/ylw_pnk.png","../images/blu_wht.png","../images/org_blu.png","../images/cyn_red.png"],"mutagen_generator_assignment":[1,0],"goal":1,"start":2,"action_noise":0.1,"location_history":"[2,3,0,1]","action_history":"[0,0,0]","mutagen_history":"[1,1,1]","location_rts":"[3607,1052,176]","trial_type":"fractal-mutation","trial_index":81,"time_elapsed":2088176,"internal_node_id":"0.0-5.0-27.0"},{"group":"square cycles (cube, non-group)","fractal_assignment":["../images/pnk_blu.png","../images/grn_red.png","../images/gry_blk.png","../images/ylw_slt.png","../images/ylw_pnk.png","../images/blu_wht.png","../images/org_blu.png","../images/cyn_red.png"],"mutagen_generator_assignment":[1,0],"goal":5,"start":1,"action_noise":0.1,"location_history":"[1,2,6,7,3,0,1,2,3,0,4,5]","action_history":"[0,1,1,1,0,1,0,0,0,1,1]","mutagen_history":"[1,0,0,0,1,0,1,1,1,0,0]","location_rts":"[4385,711,688,6265,7466,6134,2379,2346,2938,5626,950]","trial_type":"fractal-mutation","trial_index":82,"time_elapsed":2143798,"internal_node_id":"0.0-5.0-28.0"},{"group":"square cycles (cube, non-group)","fractal_assignment":["../images/pnk_blu.png","../images/grn_red.png","../images/gry_blk.png","../images/ylw_slt.png","../images/ylw_pnk.png","../images/blu_wht.png","../images/org_blu.png","../images/cyn_red.png"],"mutagen_generator_assignment":[1,0],"goal":4,"start":5,"action_noise":0.1,"location_history":"[5,4]","action_history":"[0]","mutagen_history":"[1]","location_rts":"[4018]","trial_type":"fractal-mutation","trial_index":83,"time_elapsed":2152447,"internal_node_id":"0.0-5.0-29.0"},{"group":"square cycles (cube, non-group)","fractal_assignment":["../images/pnk_blu.png","../images/grn_red.png","../images/gry_blk.png","../images/ylw_slt.png","../images/ylw_pnk.png","../images/blu_wht.png","../images/org_blu.png","../images/cyn_red.png"],"mutagen_generator_assignment":[1,0],"goal":6,"start":4,"action_noise":0.1,"location_history":"[4,7,6]","action_history":"[0,0]","mutagen_history":"[1,1]","location_rts":"[4948,682]","trial_type":"fractal-mutation","trial_index":84,"time_elapsed":2163841,"internal_node_id":"0.0-5.0-30.0"},{"group":"square cycles (cube, non-group)","fractal_assignment":["../images/pnk_blu.png","../images/grn_red.png","../images/gry_blk.png","../images/ylw_slt.png","../images/ylw_pnk.png","../images/blu_wht.png","../images/org_blu.png","../images/cyn_red.png"],"mutagen_generator_assignment":[1,0],"goal":4,"start":6,"action_noise":0.1,"location_history":"[6,7,3,0,1,2,6,5,4]","action_history":"[0,0,0,0,0,0,0,0]","mutagen_history":"[1,1,1,1,1,1,1,1]","location_rts":"[2704,413,2646,3053,4489,2279,1502,2707]","trial_type":"fractal-mutation","trial_index":85,"time_elapsed":2196198,"internal_node_id":"0.0-5.0-31.0"},{"group":"square cycles (cube, non-group)","fractal_assignment":["../images/pnk_blu.png","../images/grn_red.png","../images/gry_blk.png","../images/ylw_slt.png","../images/ylw_pnk.png","../images/blu_wht.png","../images/org_blu.png","../images/cyn_red.png"],"mutagen_generator_assignment":[1,0],"goal":2,"start":4,"action_noise":0.1,"location_history":"[4,7,3,2]","action_history":"[0,1,1]","mutagen_history":"[1,0,0]","location_rts":"[7552,5970,2467]","trial_type":"fractal-mutation","trial_index":86,"time_elapsed":2219023,"internal_node_id":"0.0-5.0-32.0"},{"group":"square cycles (cube, non-group)","fractal_assignment":["../images/pnk_blu.png","../images/grn_red.png","../images/gry_blk.png","../images/ylw_slt.png","../images/ylw_pnk.png","../images/blu_wht.png","../images/org_blu.png","../images/cyn_red.png"],"mutagen_generator_assignment":[1,0],"goal":0,"start":2,"action_noise":0.1,"location_history":"[2,3,0]","action_history":"[0,0]","mutagen_history":"[1,1]","location_rts":"[4861,863]","trial_type":"fractal-mutation","trial_index":87,"time_elapsed":2230656,"internal_node_id":"0.0-5.0-33.0"},{"group":"square cycles (cube, non-group)","fractal_assignment":["../images/pnk_blu.png","../images/grn_red.png","../images/gry_blk.png","../images/ylw_slt.png","../images/ylw_pnk.png","../images/blu_wht.png","../images/org_blu.png","../images/cyn_red.png"],"mutagen_generator_assignment":[1,0],"goal":5,"start":0,"action_noise":0.1,"location_history":"[0,4,5]","action_history":"[1,1]","mutagen_history":"[0,0]","location_rts":"[5150,1018]","trial_type":"fractal-mutation","trial_index":88,"time_elapsed":2242497,"internal_node_id":"0.0-5.0-34.0"},{"group":"square cycles (cube, non-group)","fractal_assignment":["../images/pnk_blu.png","../images/grn_red.png","../images/gry_blk.png","../images/ylw_slt.png","../images/ylw_pnk.png","../images/blu_wht.png","../images/org_blu.png","../images/cyn_red.png"],"mutagen_generator_assignment":[1,0],"goal":1,"start":5,"action_noise":0.1,"location_history":"[5,1]","action_history":"[1]","mutagen_history":"[0]","location_rts":"[5428]","trial_type":"fractal-mutation","trial_index":89,"time_elapsed":2252569,"internal_node_id":"0.0-5.0-35.0"},{"group":"square cycles (cube, non-group)","fractal_assignment":["../images/pnk_blu.png","../images/grn_red.png","../images/gry_blk.png","../images/ylw_slt.png","../images/ylw_pnk.png","../images/blu_wht.png","../images/org_blu.png","../images/cyn_red.png"],"mutagen_generator_assignment":[1,0],"goal":7,"start":1,"action_noise":0.1,"location_history":"[1,0,1,2,6,7]","action_history":"[1,0,0,1,1]","mutagen_history":"[0,1,1,0,0]","location_rts":"[4645,3597,1868,11467,959]","trial_type":"fractal-mutation","trial_index":90,"time_elapsed":2284158,"internal_node_id":"0.0-5.0-36.0"},{"group":"square cycles (cube, non-group)","fractal_assignment":["../images/pnk_blu.png","../images/grn_red.png","../images/gry_blk.png","../images/ylw_slt.png","../images/ylw_pnk.png","../images/blu_wht.png","../images/org_blu.png","../images/cyn_red.png"],"mutagen_generator_assignment":[1,0],"goal":3,"start":7,"action_noise":0.1,"location_history":"[7,3]","action_history":"[1]","mutagen_history":"[0]","location_rts":"[3008]","trial_type":"fractal-mutation","trial_index":91,"time_elapsed":2291757,"internal_node_id":"0.0-5.0-37.0"},{"group":"square cycles (cube, non-group)","fractal_assignment":["../images/pnk_blu.png","../images/grn_red.png","../images/gry_blk.png","../images/ylw_slt.png","../images/ylw_pnk.png","../images/blu_wht.png","../images/org_blu.png","../images/cyn_red.png"],"mutagen_generator_assignment":[1,0],"goal":6,"start":3,"action_noise":0.1,"location_history":"[3,0,4,7,6]","action_history":"[0,1,0,0]","mutagen_history":"[1,0,1,1]","location_rts":"[1649,1029,2414,922]","trial_type":"fractal-mutation","trial_index":92,"time_elapsed":2305805,"internal_node_id":"0.0-5.0-38.0"},{"group":"square cycles (cube, non-group)","fractal_assignment":["../images/pnk_blu.png","../images/grn_red.png","../images/gry_blk.png","../images/ylw_slt.png","../images/ylw_pnk.png","../images/blu_wht.png","../images/org_blu.png","../images/cyn_red.png"],"mutagen_generator_assignment":[1,0],"goal":2,"start":6,"action_noise":0.1,"location_history":"[6,7,3,0,1,2]","action_history":"[1,1,1,0,0]","mutagen_history":"[0,0,0,1,1]","location_rts":"[3853,1952,1507,4570,1458]","trial_type":"fractal-mutation","trial_index":93,"time_elapsed":2328160,"internal_node_id":"0.0-5.0-39.0"},{"group":"square cycles (cube, non-group)","fractal_assignment":["../images/pnk_blu.png","../images/grn_red.png","../images/gry_blk.png","../images/ylw_slt.png","../images/ylw_pnk.png","../images/blu_wht.png","../images/org_blu.png","../images/cyn_red.png"],"mutagen_generator_assignment":[1,0],"goal":1,"start":2,"action_noise":0.1,"location_history":"[2,3,0,1]","action_history":"[0,0,0]","mutagen_history":"[1,1,1]","location_rts":"[5101,2573,3443]","trial_type":"fractal-mutation","trial_index":94,"time_elapsed":2346157,"internal_node_id":"0.0-5.0-40.0"},{"group":"square cycles (cube, non-group)","fractal_assignment":["../images/pnk_blu.png","../images/grn_red.png","../images/gry_blk.png","../images/ylw_slt.png","../images/ylw_pnk.png","../images/blu_wht.png","../images/org_blu.png","../images/cyn_red.png"],"mutagen_generator_assignment":[1,0],"goal":0,"start":1,"action_noise":0.1,"location_history":"[1,0]","action_history":"[1]","mutagen_history":"[0]","location_rts":"[4294]","trial_type":"fractal-mutation","trial_index":95,"time_elapsed":2355048,"internal_node_id":"0.0-5.0-41.0"},{"group":"square cycles (cube, non-group)","fractal_assignment":["../images/pnk_blu.png","../images/grn_red.png","../images/gry_blk.png","../images/ylw_slt.png","../images/ylw_pnk.png","../images/blu_wht.png","../images/org_blu.png","../images/cyn_red.png"],"mutagen_generator_assignment":[1,0],"goal":4,"start":0,"action_noise":0.1,"location_history":"[0,4]","action_history":"[1]","mutagen_history":"[0]","location_rts":"[3771]","trial_type":"fractal-mutation","trial_index":96,"time_elapsed":2363424,"internal_node_id":"0.0-5.0-42.0"},{"group":"square cycles (cube, non-group)","fractal_assignment":["../images/pnk_blu.png","../images/grn_red.png","../images/gry_blk.png","../images/ylw_slt.png","../images/ylw_pnk.png","../images/blu_wht.png","../images/org_blu.png","../images/cyn_red.png"],"mutagen_generator_assignment":[1,0],"goal":6,"start":4,"action_noise":0.1,"location_history":"[4,5,1,0,4,5,4,7,6]","action_history":"[1,1,1,1,0,0,0,0]","mutagen_history":"[0,0,0,0,1,1,1,1]","location_rts":"[2970,1230,1777,2915,2077,2742,455,2045]","trial_type":"fractal-mutation","trial_index":97,"time_elapsed":2391972,"internal_node_id":"0.0-5.0-43.0"},{"group":"square cycles (cube, non-group)","fractal_assignment":["../images/pnk_blu.png","../images/grn_red.png","../images/gry_blk.png","../images/ylw_slt.png","../images/ylw_pnk.png","../images/blu_wht.png","../images/org_blu.png","../images/cyn_red.png"],"mutagen_generator_assignment":[1,0],"goal":3,"start":6,"action_noise":0.1,"location_history":"[6,7,3]","action_history":"[1,1]","mutagen_history":"[0,0]","location_rts":"[5891,2494]","trial_type":"fractal-mutation","trial_index":98,"time_elapsed":2406047,"internal_node_id":"0.0-5.0-44.0"},{"group":"square cycles (cube, non-group)","fractal_assignment":["../images/pnk_blu.png","../images/grn_red.png","../images/gry_blk.png","../images/ylw_slt.png","../images/ylw_pnk.png","../images/blu_wht.png","../images/org_blu.png","../images/cyn_red.png"],"mutagen_generator_assignment":[1,0],"goal":7,"start":3,"action_noise":0.1,"location_history":"[3,2,6,7]","action_history":"[1,1,1]","mutagen_history":"[0,0,0]","location_rts":"[3792,1754,1688]","trial_type":"fractal-mutation","trial_index":99,"time_elapsed":2420195,"internal_node_id":"0.0-5.0-45.0"},{"group":"square cycles (cube, non-group)","fractal_assignment":["../images/pnk_blu.png","../images/grn_red.png","../images/gry_blk.png","../images/ylw_slt.png","../images/ylw_pnk.png","../images/blu_wht.png","../images/org_blu.png","../images/cyn_red.png"],"mutagen_generator_assignment":[1,0],"goal":5,"start":7,"action_noise":0.1,"location_history":"[7,6,5]","action_history":"[0,0]","mutagen_history":"[1,1]","location_rts":"[3551,571]","trial_type":"fractal-mutation","trial_index":100,"time_elapsed":2430064,"internal_node_id":"0.0-5.0-46.0"},{"group":"square cycles (cube, non-group)","fractal_assignment":["../images/pnk_blu.png","../images/grn_red.png","../images/gry_blk.png","../images/ylw_slt.png","../images/ylw_pnk.png","../images/blu_wht.png","../images/org_blu.png","../images/cyn_red.png"],"mutagen_generator_assignment":[1,0],"goal":1,"start":5,"action_noise":0.1,"location_history":"[5,1]","action_history":"[1]","mutagen_history":"[0]","location_rts":"[2929]","trial_type":"fractal-mutation","trial_index":101,"time_elapsed":2437586,"internal_node_id":"0.0-5.0-47.0"},{"group":"square cycles (cube, non-group)","fractal_assignment":["../images/pnk_blu.png","../images/grn_red.png","../images/gry_blk.png","../images/ylw_slt.png","../images/ylw_pnk.png","../images/blu_wht.png","../images/org_blu.png","../images/cyn_red.png"],"mutagen_generator_assignment":[1,0],"goal":6,"start":1,"action_noise":0.1,"location_history":"[1,2,6]","action_history":"[0,1]","mutagen_history":"[1,0]","location_rts":"[149,2738]","trial_type":"fractal-mutation","trial_index":102,"time_elapsed":2446218,"internal_node_id":"0.0-5.0-48.0"},{"group":"square cycles (cube, non-group)","fractal_assignment":["../images/pnk_blu.png","../images/grn_red.png","../images/gry_blk.png","../images/ylw_slt.png","../images/ylw_pnk.png","../images/blu_wht.png","../images/org_blu.png","../images/cyn_red.png"],"mutagen_generator_assignment":[1,0],"goal":0,"start":6,"action_noise":0.1,"location_history":"[6,5,1,0]","action_history":"[0,1,1]","mutagen_history":"[1,0,0]","location_rts":"[4142,4086,2526]","trial_type":"fractal-mutation","trial_index":103,"time_elapsed":2463807,"internal_node_id":"0.0-5.0-49.0"},{"view_history":"[{\"page_index\":0,\"viewing_time\":4111}]","rt":4112,"trial_type":"instructions","trial_index":104,"time_elapsed":2468923,"internal_node_id":"0.0-6.0"},{"rt":3853,"responses":"{\"Q0\":\"\"}","trial_type":"survey-text","trial_index":105,"time_elapsed":2473783,"internal_node_id":"0.0-7.0"}]