[{"view_history":"[{\"page_index\":0,\"viewing_time\":1878},{\"page_index\":1,\"viewing_time\":2484}]","rt":4363,"trial_type":"instructions","trial_index":0,"time_elapsed":4366,"internal_node_id":"0.0-0.0"},{"view_history":"[{\"page_index\":0,\"viewing_time\":4940},{\"page_index\":1,\"viewing_time\":6735}]","rt":11676,"trial_type":"instructions","trial_index":1,"time_elapsed":17964,"internal_node_id":"0.0-1.0"},{"group":"square cycles (cube, non-group)","room_assignment":["blue","green","yellow","purple","grey","pink","brown","red"],"door_color_assignment":["white","black"],"door_generator_assignment":[0,1],"goal":6,"start":3,"action_noise":0.1,"location_history":"[3,0,1,2,6]","action_history":"[0,0,0,1]","door_history":"[0,0,0,1]","location_rts":"[2344,487,499,287]","trial_type":"two-door-navigation","trial_index":2,"time_elapsed":29290,"internal_node_id":"0.0-2.0-0.0"},{"group":"square cycles (cube, non-group)","room_assignment":["blue","green","yellow","purple","grey","pink","brown","red"],"door_color_assignment":["white","black"],"door_generator_assignment":[0,1],"goal":1,"start":6,"action_noise":0.1,"location_history":"[6,5,4,5,4,5,1]","action_history":"[0,0,1,0,1,1]","door_history":"[0,0,1,0,1,1]","location_rts":"[1462,381,412,314,482,492]","trial_type":"two-door-navigation","trial_index":3,"time_elapsed":43291,"internal_node_id":"0.0-2.0-1.0"},{"group":"square cycles (cube, non-group)","room_assignment":["blue","green","yellow","purple","grey","pink","brown","red"],"door_color_assignment":["white","black"],"door_generator_assignment":[0,1],"goal":2,"start":1,"action_noise":0.1,"location_history":"[1,2]","action_history":"[0]","door_history":"[0]","location_rts":"[2649]","trial_type":"two-door-navigation","trial_index":4,"time_elapsed":51287,"internal_node_id":"0.0-2.0-2.0"},{"group":"square cycles (cube, non-group)","room_assignment":["blue","green","yellow","purple","grey","pink","brown","red"],"door_color_assignment":["white","black"],"door_generator_assignment":[0,1],"goal":0,"start":2,"action_noise":0.1,"location_history":"[2,6,5,1,2,3,0]","action_history":"[0,0,1,0,0,0]","door_history":"[0,0,1,0,0,0]","location_rts":"[1172,547,826,413,736,431]","trial_type":"two-door-navigation","trial_index":5,"time_elapsed":66288,"internal_node_id":"0.0-2.0-3.0"},{"group":"square cycles (cube, non-group)","room_assignment":["blue","green","yellow","purple","grey","pink","brown","red"],"door_color_assignment":["white","black"],"door_generator_assignment":[0,1],"goal":7,"start":0,"action_noise":0.1,"location_history":"[0,1,2,3,0,1,0,1,2,3,0,1,2,6,5,4,7]","action_history":"[0,0,0,0,0,1,0,0,0,0,0,0,1,0,0,0]","door_history":"[0,0,0,0,0,1,0,0,0,0,0,0,1,0,0,0]","location_rts":"[8682,379,567,426,539,646,291,556,1178,417,485,945,819,754,373,466]","trial_type":"two-door-navigation","trial_index":6,"time_elapsed":104407,"internal_node_id":"0.0-2.0-4.0"},{"group":"square cycles (cube, non-group)","room_assignment":["blue","green","yellow","purple","grey","pink","brown","red"],"door_color_assignment":["white","black"],"door_generator_assignment":[0,1],"goal":5,"start":7,"action_noise":0.1,"location_history":"[7,3,0,1,0,4,7,6,5]","action_history":"[1,0,0,1,1,0,0,0]","door_history":"[1,0,0,1,1,0,0,0]","location_rts":"[1421,468,371,390,741,512,375,451]","trial_type":"two-door-navigation","trial_index":7,"time_elapsed":121288,"internal_node_id":"0.0-2.0-5.0"},{"group":"square cycles (cube, non-group)","room_assignment":["blue","green","yellow","purple","grey","pink","brown","red"],"door_color_assignment":["white","black"],"door_generator_assignment":[0,1],"goal":4,"start":5,"action_noise":0.1,"location_history":"[5,4]","action_history":"[0]","door_history":"[0]","location_rts":"[1634]","trial_type":"two-door-navigation","trial_index":8,"time_elapsed":127431,"internal_node_id":"0.0-2.0-6.0"},{"group":"square cycles (cube, non-group)","room_assignment":["blue","green","yellow","purple","grey","pink","brown","red"],"door_color_assignment":["white","black"],"door_generator_assignment":[0,1],"goal":2,"start":4,"action_noise":0.1,"location_history":"[4,5,4,5,4,5,1,2]","action_history":"[1,0,1,1,1,1,0]","door_history":"[1,0,1,1,1,1,0]","location_rts":"[1452,429,396,411,637,635,546]","trial_type":"two-door-navigation","trial_index":9,"time_elapsed":142481,"internal_node_id":"0.0-2.0-7.0"},{"group":"square cycles (cube, non-group)","room_assignment":["blue","green","yellow","purple","grey","pink","brown","red"],"door_color_assignment":["white","black"],"door_generator_assignment":[0,1],"goal":3,"start":2,"action_noise":0.1,"location_history":"[2,3]","action_history":"[0]","door_history":"[0]","location_rts":"[35616]","trial_type":"two-door-navigation","trial_index":10,"time_elapsed":184286,"internal_node_id":"0.0-2.0-8.0"},{"group":"square cycles (cube, non-group)","room_assignment":["blue","green","yellow","purple","grey","pink","brown","red"],"door_color_assignment":["white","black"],"door_generator_assignment":[0,1],"goal":7,"start":3,"action_noise":0.1,"location_history":"[3,0,1,2,6,7]","action_history":"[0,0,0,1,0]","door_history":"[0,0,0,1,0]","location_rts":"[6587,878,393,291,425]","trial_type":"two-door-navigation","trial_index":11,"time_elapsed":201405,"internal_node_id":"0.0-2.0-9.0"},{"group":"square cycles (cube, non-group)","room_assignment":["blue","green","yellow","purple","grey","pink","brown","red"],"door_color_assignment":["white","black"],"door_generator_assignment":[0,1],"goal":0,"start":7,"action_noise":0.1,"location_history":"[7,3,0]","action_history":"[1,0]","door_history":"[1,0]","location_rts":"[1098,452]","trial_type":"two-door-navigation","trial_index":12,"time_elapsed":208479,"internal_node_id":"0.0-2.0-10.0"},{"group":"square cycles (cube, non-group)","room_assignment":["blue","green","yellow","purple","grey","pink","brown","red"],"door_color_assignment":["white","black"],"door_generator_assignment":[0,1],"goal":1,"start":0,"action_noise":0.1,"location_history":"[0,1]","action_history":"[0]","door_history":"[0]","location_rts":"[1870]","trial_type":"two-door-navigation","trial_index":13,"time_elapsed":214856,"internal_node_id":"0.0-2.0-11.0"},{"group":"square cycles (cube, non-group)","room_assignment":["blue","green","yellow","purple","grey","pink","brown","red"],"door_color_assignment":["white","black"],"door_generator_assignment":[0,1],"goal":6,"start":1,"action_noise":0.1,"location_history":"[1,0,4,5,4,5,1,0,1,0,1,2,3,2,3,0,1,0,4,7,3,0,4,5,4,7,6]","action_history":"[1,1,0,0,0,0,1,0,1,1,0,0,1,0,0,0,1,1,0,1,0,1,0,0,0,0]","door_history":"[1,1,0,0,0,0,1,0,1,1,0,0,1,0,0,0,1,1,0,1,0,1,0,0,0,0]","location_rts":"[8387,646,599,353,450,434,924,396,442,643,474,514,408,387,754,446,491,973,532,704,708,847,656,744,524,1051]","trial_type":"two-door-navigation","trial_index":14,"time_elapsed":268454,"internal_node_id":"0.0-2.0-12.0"},{"group":"square cycles (cube, non-group)","room_assignment":["blue","green","yellow","purple","grey","pink","brown","red"],"door_color_assignment":["white","black"],"door_generator_assignment":[0,1],"goal":4,"start":6,"action_noise":0.1,"location_history":"[6,5,4]","action_history":"[0,0]","door_history":"[0,0]","location_rts":"[6388,625]","trial_type":"two-door-navigation","trial_index":15,"time_elapsed":280984,"internal_node_id":"0.0-2.0-13.0"},{"group":"square cycles (cube, non-group)","room_assignment":["blue","green","yellow","purple","grey","pink","brown","red"],"door_color_assignment":["white","black"],"door_generator_assignment":[0,1],"goal":5,"start":4,"action_noise":0.1,"location_history":"[4,7,3,0,1,0,4,5]","action_history":"[1,1,0,0,1,1,0]","door_history":"[1,1,0,0,1,1,0]","location_rts":"[1034,628,659,447,479,709,554]","trial_type":"two-door-navigation","trial_index":16,"time_elapsed":296035,"internal_node_id":"0.0-2.0-14.0"},{"group":"square cycles (cube, non-group)","room_assignment":["blue","green","yellow","purple","grey","pink","brown","red"],"door_color_assignment":["white","black"],"door_generator_assignment":[0,1],"goal":4,"start":5,"action_noise":0.1,"location_history":"[5,4]","action_history":"[0]","door_history":"[0]","location_rts":"[1951]","trial_type":"two-door-navigation","trial_index":17,"time_elapsed":302497,"internal_node_id":"0.0-2.0-15.0"},{"group":"square cycles (cube, non-group)","room_assignment":["blue","green","yellow","purple","grey","pink","brown","red"],"door_color_assignment":["white","black"],"door_generator_assignment":[0,1],"goal":0,"start":4,"action_noise":0.1,"location_history":"[4,5,4,5,1,2,3,0]","action_history":"[1,0,1,1,0,0,0]","door_history":"[1,0,1,1,0,0,0]","location_rts":"[1319,439,472,461,684,417,492]","trial_type":"two-door-navigation","trial_index":18,"time_elapsed":317323,"internal_node_id":"0.0-2.0-16.0"},{"group":"square cycles (cube, non-group)","room_assignment":["blue","green","yellow","purple","grey","pink","brown","red"],"door_color_assignment":["white","black"],"door_generator_assignment":[0,1],"goal":7,"start":0,"action_noise":0.1,"location_history":"[0,4,7]","action_history":"[1,0]","door_history":"[1,0]","location_rts":"[1546,986]","trial_type":"two-door-navigation","trial_index":19,"time_elapsed":325372,"internal_node_id":"0.0-2.0-17.0"},{"group":"square cycles (cube, non-group)","room_assignment":["blue","green","yellow","purple","grey","pink","brown","red"],"door_color_assignment":["white","black"],"door_generator_assignment":[0,1],"goal":2,"start":7,"action_noise":0.1,"location_history":"[7,3,0,1,2]","action_history":"[1,0,0,0]","door_history":"[1,0,0,0]","location_rts":"[1082,186,1094,474]","trial_type":"two-door-navigation","trial_index":20,"time_elapsed":335748,"internal_node_id":"0.0-2.0-18.0"},{"group":"square cycles (cube, non-group)","room_assignment":["blue","green","yellow","purple","grey","pink","brown","red"],"door_color_assignment":["white","black"],"door_generator_assignment":[0,1],"goal":1,"start":2,"action_noise":0.1,"location_history":"[2,6,7,6,5,1]","action_history":"[1,1,0,0,1]","door_history":"[1,1,0,0,1]","location_rts":"[1160,560,433,364,364]","trial_type":"two-door-navigation","trial_index":21,"time_elapsed":347165,"internal_node_id":"0.0-2.0-19.0"},{"group":"square cycles (cube, non-group)","room_assignment":["blue","green","yellow","purple","grey","pink","brown","red"],"door_color_assignment":["white","black"],"door_generator_assignment":[0,1],"goal":3,"start":1,"action_noise":0.1,"location_history":"[1,0,4,7,6,5,4,7,6,5,4,5,1,2,3]","action_history":"[1,1,0,0,0,0,0,0,0,0,0,1,0,0]","door_history":"[1,1,0,0,0,0,0,0,0,0,0,1,0,0]","location_rts":"[1377,2338,458,1371,423,479,680,677,514,519,458,566,305,337]","trial_type":"two-door-navigation","trial_index":22,"time_elapsed":375272,"internal_node_id":"0.0-2.0-20.0"},{"group":"square cycles (cube, non-group)","room_assignment":["blue","green","yellow","purple","grey","pink","brown","red"],"door_color_assignment":["white","black"],"door_generator_assignment":[0,1],"goal":6,"start":3,"action_noise":0.1,"location_history":"[3,0,4,7,6]","action_history":"[0,1,0,0]","door_history":"[0,1,0,0]","location_rts":"[4233,528,621,338]","trial_type":"two-door-navigation","trial_index":23,"time_elapsed":388532,"internal_node_id":"0.0-2.0-21.0"},{"group":"square cycles (cube, non-group)","room_assignment":["blue","green","yellow","purple","grey","pink","brown","red"],"door_color_assignment":["white","black"],"door_generator_assignment":[0,1],"goal":5,"start":6,"action_noise":0.1,"location_history":"[6,5]","action_history":"[0]","door_history":"[0]","location_rts":"[9243]","trial_type":"two-door-navigation","trial_index":24,"time_elapsed":402290,"internal_node_id":"0.0-2.0-22.0"},{"group":"square cycles (cube, non-group)","room_assignment":["blue","green","yellow","purple","grey","pink","brown","red"],"door_color_assignment":["white","black"],"door_generator_assignment":[0,1],"goal":3,"start":5,"action_noise":0.1,"location_history":"[5,4,7,6,5,1,2,3]","action_history":"[0,0,1,0,1,0,0]","door_history":"[0,0,1,0,1,0,0]","location_rts":"[9229,561,1256,2745,621,862,497]","trial_type":"two-door-navigation","trial_index":25,"time_elapsed":428614,"internal_node_id":"0.0-2.0-23.0"},{"group":"square cycles (cube, non-group)","room_assignment":["blue","green","yellow","purple","grey","pink","brown","red"],"door_color_assignment":["white","black"],"door_generator_assignment":[0,1],"goal":0,"start":3,"action_noise":0.1,"location_history":"[3,0]","action_history":"[0]","door_history":"[0]","location_rts":"[4592]","trial_type":"two-door-navigation","trial_index":26,"time_elapsed":437717,"internal_node_id":"0.0-2.0-24.0"},{"group":"square cycles (cube, non-group)","room_assignment":["blue","green","yellow","purple","grey","pink","brown","red"],"door_color_assignment":["white","black"],"door_generator_assignment":[0,1],"goal":7,"start":0,"action_noise":0.1,"location_history":"[0,1,0,1,2,3,0,4,7]","action_history":"[1,1,0,0,0,0,1,0]","door_history":"[1,1,0,0,0,0,1,0]","location_rts":"[56739,442,606,379,417,404,509,532]","trial_type":"two-door-navigation","trial_index":27,"time_elapsed":509302,"internal_node_id":"0.0-2.0-25.0"},{"group":"square cycles (cube, non-group)","room_assignment":["blue","green","yellow","purple","grey","pink","brown","red"],"door_color_assignment":["white","black"],"door_generator_assignment":[0,1],"goal":2,"start":7,"action_noise":0.1,"location_history":"[7,3,0,1,2]","action_history":"[1,0,0,0]","door_history":"[1,0,0,0]","location_rts":"[22350,387,361,352]","trial_type":"two-door-navigation","trial_index":28,"time_elapsed":540299,"internal_node_id":"0.0-2.0-26.0"},{"group":"square cycles (cube, non-group)","room_assignment":["blue","green","yellow","purple","grey","pink","brown","red"],"door_color_assignment":["white","black"],"door_generator_assignment":[0,1],"goal":1,"start":2,"action_noise":0.1,"location_history":"[2,3,0,1]","action_history":"[0,0,0]","door_history":"[0,0,0]","location_rts":"[2050,434,397]","trial_type":"two-door-navigation","trial_index":29,"time_elapsed":549704,"internal_node_id":"0.0-2.0-27.0"},{"group":"square cycles (cube, non-group)","room_assignment":["blue","green","yellow","purple","grey","pink","brown","red"],"door_color_assignment":["white","black"],"door_generator_assignment":[0,1],"goal":5,"start":1,"action_noise":0.1,"location_history":"[1,0,4,7,6,5]","action_history":"[1,1,0,0,0]","door_history":"[1,1,0,0,0]","location_rts":"[1734,1356,400,2205,362]","trial_type":"two-door-navigation","trial_index":30,"time_elapsed":564298,"internal_node_id":"0.0-2.0-28.0"},{"group":"square cycles (cube, non-group)","room_assignment":["blue","green","yellow","purple","grey","pink","brown","red"],"door_color_assignment":["white","black"],"door_generator_assignment":[0,1],"goal":4,"start":5,"action_noise":0.1,"location_history":"[5,4]","action_history":"[0]","door_history":"[0]","location_rts":"[16557]","trial_type":"two-door-navigation","trial_index":31,"time_elapsed":585369,"internal_node_id":"0.0-2.0-29.0"},{"group":"square cycles (cube, non-group)","room_assignment":["blue","green","yellow","purple","grey","pink","brown","red"],"door_color_assignment":["white","black"],"door_generator_assignment":[0,1],"goal":6,"start":4,"action_noise":0.1,"location_history":"[4,5,1,2,6]","action_history":"[1,0,0,1]","door_history":"[1,0,0,1]","location_rts":"[9621,1112,385,234]","trial_type":"two-door-navigation","trial_index":32,"time_elapsed":604242,"internal_node_id":"0.0-2.0-30.0"},{"group":"square cycles (cube, non-group)","room_assignment":["blue","green","yellow","purple","grey","pink","brown","red"],"door_color_assignment":["white","black"],"door_generator_assignment":[0,1],"goal":4,"start":6,"action_noise":0.1,"location_history":"[6,5,4]","action_history":"[0,0]","door_history":"[0,0]","location_rts":"[34566,417]","trial_type":"two-door-navigation","trial_index":33,"time_elapsed":644742,"internal_node_id":"0.0-2.0-31.0"},{"group":"square cycles (cube, non-group)","room_assignment":["blue","green","yellow","purple","grey","pink","brown","red"],"door_color_assignment":["white","black"],"door_generator_assignment":[0,1],"goal":2,"start":4,"action_noise":0.1,"location_history":"[4,5,1,0,1,2]","action_history":"[1,1,0,0,0]","door_history":"[1,1,0,0,0]","location_rts":"[1014,765,677,397,424]","trial_type":"two-door-navigation","trial_index":34,"time_elapsed":656554,"internal_node_id":"0.0-2.0-32.0"},{"group":"square cycles (cube, non-group)","room_assignment":["blue","green","yellow","purple","grey","pink","brown","red"],"door_color_assignment":["white","black"],"door_generator_assignment":[0,1],"goal":0,"start":2,"action_noise":0.1,"location_history":"[2,3,0]","action_history":"[0,0]","door_history":"[0,0]","location_rts":"[47950,394]","trial_type":"two-door-navigation","trial_index":35,"time_elapsed":710419,"internal_node_id":"0.0-2.0-33.0"},{"group":"square cycles (cube, non-group)","room_assignment":["blue","green","yellow","purple","grey","pink","brown","red"],"door_color_assignment":["white","black"],"door_generator_assignment":[0,1],"goal":5,"start":0,"action_noise":0.1,"location_history":"[0,4,7,6,5]","action_history":"[1,0,0,0]","door_history":"[1,0,0,0]","location_rts":"[1163,486,393,900]","trial_type":"two-door-navigation","trial_index":36,"time_elapsed":720892,"internal_node_id":"0.0-2.0-34.0"},{"group":"square cycles (cube, non-group)","room_assignment":["blue","green","yellow","purple","grey","pink","brown","red"],"door_color_assignment":["white","black"],"door_generator_assignment":[0,1],"goal":1,"start":5,"action_noise":0.1,"location_history":"[5,4,7,3,0,1]","action_history":"[1,0,1,0,0]","door_history":"[1,0,1,0,0]","location_rts":"[4730,434,878,594,384]","trial_type":"two-door-navigation","trial_index":37,"time_elapsed":736444,"internal_node_id":"0.0-2.0-35.0"},{"group":"square cycles (cube, non-group)","room_assignment":["blue","green","yellow","purple","grey","pink","brown","red"],"door_color_assignment":["white","black"],"door_generator_assignment":[0,1],"goal":7,"start":1,"action_noise":0.1,"location_history":"[1,2,6,5,1,2,3,0,4,7]","action_history":"[0,1,0,0,0,0,0,1,0]","door_history":"[0,1,0,0,0,0,0,1,0]","location_rts":"[34576,271,408,486,470,534,475,1176,469]","trial_type":"two-door-navigation","trial_index":38,"time_elapsed":787900,"internal_node_id":"0.0-2.0-36.0"},{"group":"square cycles (cube, non-group)","room_assignment":["blue","green","yellow","purple","grey","pink","brown","red"],"door_color_assignment":["white","black"],"door_generator_assignment":[0,1],"goal":3,"start":7,"action_noise":0.1,"location_history":"[7,3]","action_history":"[1]","door_history":"[1]","location_rts":"[109181]","trial_type":"two-door-navigation","trial_index":39,"time_elapsed":901595,"internal_node_id":"0.0-2.0-37.0"},{"group":"square cycles (cube, non-group)","room_assignment":["blue","green","yellow","purple","grey","pink","brown","red"],"door_color_assignment":["white","black"],"door_generator_assignment":[0,1],"goal":6,"start":3,"action_noise":0.1,"location_history":"[3,0,4,7,6]","action_history":"[0,1,0,0]","door_history":"[0,1,0,0]","location_rts":"[1787,432,532,832]","trial_type":"two-door-navigation","trial_index":40,"time_elapsed":912732,"internal_node_id":"0.0-2.0-38.0"},{"group":"square cycles (cube, non-group)","room_assignment":["blue","green","yellow","purple","grey","pink","brown","red"],"door_color_assignment":["white","black"],"door_generator_assignment":[0,1],"goal":2,"start":6,"action_noise":0.1,"location_history":"[6,7,6,7,6,7,3,0,4,7,3,0,1,2]","action_history":"[1,0,1,0,1,1,0,0,0,1,0,0,0]","door_history":"[1,0,1,0,1,1,0,0,0,1,0,0,0]","location_rts":"[40144,409,2449,358,1210,499,492,383,421,346,336,528,712]","trial_type":"two-door-navigation","trial_index":41,"time_elapsed":979288,"internal_node_id":"0.0-2.0-39.0"},{"group":"square cycles (cube, non-group)","room_assignment":["blue","green","yellow","purple","grey","pink","brown","red"],"door_color_assignment":["white","black"],"door_generator_assignment":[0,1],"goal":1,"start":2,"action_noise":0.1,"location_history":"[2,3,0,1]","action_history":"[0,0,0]","door_history":"[0,0,0]","location_rts":"[111022,404,379]","trial_type":"two-door-navigation","trial_index":42,"time_elapsed":1098625,"internal_node_id":"0.0-2.0-40.0"},{"group":"square cycles (cube, non-group)","room_assignment":["blue","green","yellow","purple","grey","pink","brown","red"],"door_color_assignment":["white","black"],"door_generator_assignment":[0,1],"goal":0,"start":1,"action_noise":0.1,"location_history":"[1,2,6,5,1,2,3,0]","action_history":"[0,0,0,1,0,0,0]","door_history":"[0,0,0,1,0,0,0]","location_rts":"[4565,489,348,329,909,486,468]","trial_type":"two-door-navigation","trial_index":43,"time_elapsed":1116777,"internal_node_id":"0.0-2.0-41.0"},{"group":"square cycles (cube, non-group)","room_assignment":["blue","green","yellow","purple","grey","pink","brown","red"],"door_color_assignment":["white","black"],"door_generator_assignment":[0,1],"goal":4,"start":0,"action_noise":0.1,"location_history":"[0,4]","action_history":"[1]","door_history":"[1]","location_rts":"[818]","trial_type":"two-door-navigation","trial_index":44,"time_elapsed":1122104,"internal_node_id":"0.0-2.0-42.0"},{"group":"square cycles (cube, non-group)","room_assignment":["blue","green","yellow","purple","grey","pink","brown","red"],"door_color_assignment":["white","black"],"door_generator_assignment":[0,1],"goal":6,"start":4,"action_noise":0.1,"location_history":"[4,7,6]","action_history":"[0,0]","door_history":"[0,0]","location_rts":"[8208,1043]","trial_type":"two-door-navigation","trial_index":45,"time_elapsed":1136888,"internal_node_id":"0.0-2.0-43.0"},{"group":"square cycles (cube, non-group)","room_assignment":["blue","green","yellow","purple","grey","pink","brown","red"],"door_color_assignment":["white","black"],"door_generator_assignment":[0,1],"goal":3,"start":6,"action_noise":0.1,"location_history":"[6,7,6,7,6,7,3]","action_history":"[0,0,0,0,1,1]","door_history":"[0,0,0,0,1,1]","location_rts":"[66606,340,663,405,528,790]","trial_type":"two-door-navigation","trial_index":46,"time_elapsed":1215772,"internal_node_id":"0.0-2.0-44.0"},{"group":"square cycles (cube, non-group)","room_assignment":["blue","green","yellow","purple","grey","pink","brown","red"],"door_color_assignment":["white","black"],"door_generator_assignment":[0,1],"goal":7,"start":3,"action_noise":0.1,"location_history":"[3,0,1,2,3,0,4,5,4,5,4,7]","action_history":"[1,0,0,1,0,1,0,0,0,0,0]","door_history":"[1,0,0,1,0,1,0,0,0,0,0]","location_rts":"[914,382,381,896,415,223,679,561,378,391,389]","trial_type":"two-door-navigation","trial_index":47,"time_elapsed":1235970,"internal_node_id":"0.0-2.0-45.0"},{"group":"square cycles (cube, non-group)","room_assignment":["blue","green","yellow","purple","grey","pink","brown","red"],"door_color_assignment":["white","black"],"door_generator_assignment":[0,1],"goal":5,"start":7,"action_noise":0.1,"location_history":"[7,6,5]","action_history":"[0,0]","door_history":"[0,0]","location_rts":"[43231,397]","trial_type":"two-door-navigation","trial_index":48,"time_elapsed":1285432,"internal_node_id":"0.0-2.0-46.0"},{"group":"square cycles (cube, non-group)","room_assignment":["blue","green","yellow","purple","grey","pink","brown","red"],"door_color_assignment":["white","black"],"door_generator_assignment":[0,1],"goal":1,"start":5,"action_noise":0.1,"location_history":"[5,1]","action_history":"[1]","door_history":"[1]","location_rts":"[977]","trial_type":"two-door-navigation","trial_index":49,"time_elapsed":1290921,"internal_node_id":"0.0-2.0-47.0"},{"group":"square cycles (cube, non-group)","room_assignment":["blue","green","yellow","purple","grey","pink","brown","red"],"door_color_assignment":["white","black"],"door_generator_assignment":[0,1],"goal":6,"start":1,"action_noise":0.1,"location_history":"[1,0,4,5,4,7,6]","action_history":"[1,1,0,0,0,0]","door_history":"[1,1,0,0,0,0]","location_rts":"[822,1048,1155,458,476,548]","trial_type":"two-door-navigation","trial_index":50,"time_elapsed":1304971,"internal_node_id":"0.0-2.0-48.0"},{"group":"square cycles (cube, non-group)","room_assignment":["blue","green","yellow","purple","grey","pink","brown","red"],"door_color_assignment":["white","black"],"door_generator_assignment":[0,1],"goal":0,"start":6,"action_noise":0.1,"location_history":"[6,7,6,7,3,0]","action_history":"[1,0,1,1,0]","door_history":"[1,0,1,1,0]","location_rts":"[1989,387,130,362,548]","trial_type":"two-door-navigation","trial_index":51,"time_elapsed":1316923,"internal_node_id":"0.0-2.0-49.0"},{"view_history":"[{\"page_index\":0,\"viewing_time\":1959}]","rt":1960,"trial_type":"instructions","trial_index":52,"time_elapsed":1319884,"internal_node_id":"0.0-3.0"},{"view_history":"[{\"page_index\":0,\"viewing_time\":1303},{\"page_index\":1,\"viewing_time\":3125}]","rt":4429,"trial_type":"instructions","trial_index":53,"time_elapsed":1325314,"internal_node_id":"0.0-4.0"},{"group":"square cycles (cube, non-group)","fractal_assignment":["../images/ylw_pnk.png","../images/grn_red.png","../images/blu_wht.png","../images/pnk_blu.png","../images/gry_blk.png","../images/org_blu.png","../images/cyn_red.png","../images/ylw_slt.png"],"mutagen_generator_assignment":[1,0],"goal":6,"start":3,"action_noise":0.1,"location_history":"[3,0,4,5,1,0,1,2,6]","action_history":"[0,1,1,1,1,0,0,1]","mutagen_history":"[1,0,0,0,0,1,1,0]","location_rts":"[5969,628,434,430,626,383,772,547]","trial_type":"fractal-mutation","trial_index":54,"time_elapsed":1347748,"internal_node_id":"0.0-5.0-0.0"},{"group":"square cycles (cube, non-group)","fractal_assignment":["../images/ylw_pnk.png","../images/grn_red.png","../images/blu_wht.png","../images/pnk_blu.png","../images/gry_blk.png","../images/org_blu.png","../images/cyn_red.png","../images/ylw_slt.png"],"mutagen_generator_assignment":[1,0],"goal":1,"start":6,"action_noise":0.1,"location_history":"[6,5,1]","action_history":"[0,1]","mutagen_history":"[1,0]","location_rts":"[1548,1049]","trial_type":"fractal-mutation","trial_index":55,"time_elapsed":1356139,"internal_node_id":"0.0-5.0-1.0"},{"group":"square cycles (cube, non-group)","fractal_assignment":["../images/ylw_pnk.png","../images/grn_red.png","../images/blu_wht.png","../images/pnk_blu.png","../images/gry_blk.png","../images/org_blu.png","../images/cyn_red.png","../images/ylw_slt.png"],"mutagen_generator_assignment":[1,0],"goal":2,"start":1,"action_noise":0.1,"location_history":"[1,2]","action_history":"[0]","mutagen_history":"[1]","location_rts":"[1920]","trial_type":"fractal-mutation","trial_index":56,"time_elapsed":1362783,"internal_node_id":"0.0-5.0-2.0"},{"group":"square cycles (cube, non-group)","fractal_assignment":["../images/ylw_pnk.png","../images/grn_red.png","../images/blu_wht.png","../images/pnk_blu.png","../images/gry_blk.png","../images/org_blu.png","../images/cyn_red.png","../images/ylw_slt.png"],"mutagen_generator_assignment":[1,0],"goal":0,"start":2,"action_noise":0.1,"location_history":"[2,6,5,1,0]","action_history":"[0,0,1,1]","mutagen_history":"[1,1,0,0]","location_rts":"[1439,1393,651,456]","trial_type":"fractal-mutation","trial_index":57,"time_elapsed":1374835,"internal_node_id":"0.0-5.0-3.0"},{"group":"square cycles (cube, non-group)","fractal_assignment":["../images/ylw_pnk.png","../images/grn_red.png","../images/blu_wht.png","../images/pnk_blu.png","../images/gry_blk.png","../images/org_blu.png","../images/cyn_red.png","../images/ylw_slt.png"],"mutagen_generator_assignment":[1,0],"goal":7,"start":0,"action_noise":0.1,"location_history":"[0,4,5,4,5,1,2,6,7]","action_history":"[0,1,1,1,1,0,1,1]","mutagen_history":"[1,0,0,0,0,1,0,0]","location_rts":"[1154,1537,508,500,622,497,718,720]","trial_type":"fractal-mutation","trial_index":58,"time_elapsed":1393618,"internal_node_id":"0.0-5.0-4.0"},{"group":"square cycles (cube, non-group)","fractal_assignment":["../images/ylw_pnk.png","../images/grn_red.png","../images/blu_wht.png","../images/pnk_blu.png","../images/gry_blk.png","../images/org_blu.png","../images/cyn_red.png","../images/ylw_slt.png"],"mutagen_generator_assignment":[1,0],"goal":5,"start":7,"action_noise":0.1,"location_history":"[7,3,2,6,7,3,2,3,2,6,5]","action_history":"[1,1,1,1,1,1,0,1,1,0]","mutagen_history":"[0,0,0,0,0,0,1,0,0,1]","location_rts":"[1341,458,511,447,552,552,457,433,391,278]","trial_type":"fractal-mutation","trial_index":59,"time_elapsed":1413883,"internal_node_id":"0.0-5.0-5.0"},{"group":"square cycles (cube, non-group)","fractal_assignment":["../images/ylw_pnk.png","../images/grn_red.png","../images/blu_wht.png","../images/pnk_blu.png","../images/gry_blk.png","../images/org_blu.png","../images/cyn_red.png","../images/ylw_slt.png"],"mutagen_generator_assignment":[1,0],"goal":4,"start":5,"action_noise":0.1,"location_history":"[5,1,0,4]","action_history":"[1,1,1]","mutagen_history":"[0,0,0]","location_rts":"[1287,409,368]","trial_type":"fractal-mutation","trial_index":60,"time_elapsed":1422836,"internal_node_id":"0.0-5.0-6.0"},{"group":"square cycles (cube, non-group)","fractal_assignment":["../images/ylw_pnk.png","../images/grn_red.png","../images/blu_wht.png","../images/pnk_blu.png","../images/gry_blk.png","../images/org_blu.png","../images/cyn_red.png","../images/ylw_slt.png"],"mutagen_generator_assignment":[1,0],"goal":2,"start":4,"action_noise":0.1,"location_history":"[4,5,1,2]","action_history":"[0,1,0]","mutagen_history":"[1,0,1]","location_rts":"[2988,603,1378]","trial_type":"fractal-mutation","trial_index":61,"time_elapsed":1434865,"internal_node_id":"0.0-5.0-7.0"},{"group":"square cycles (cube, non-group)","fractal_assignment":["../images/ylw_pnk.png","../images/grn_red.png","../images/blu_wht.png","../images/pnk_blu.png","../images/gry_blk.png","../images/org_blu.png","../images/cyn_red.png","../images/ylw_slt.png"],"mutagen_generator_assignment":[1,0],"goal":3,"start":2,"action_noise":0.1,"location_history":"[2,6,7,3]","action_history":"[1,1,1]","mutagen_history":"[0,0,0]","location_rts":"[1165,399,438]","trial_type":"fractal-mutation","trial_index":62,"time_elapsed":1443703,"internal_node_id":"0.0-5.0-8.0"},{"group":"square cycles (cube, non-group)","fractal_assignment":["../images/ylw_pnk.png","../images/grn_red.png","../images/blu_wht.png","../images/pnk_blu.png","../images/gry_blk.png","../images/org_blu.png","../images/cyn_red.png","../images/ylw_slt.png"],"mutagen_generator_assignment":[1,0],"goal":7,"start":3,"action_noise":0.1,"location_history":"[3,2,6,7]","action_history":"[1,1,1]","mutagen_history":"[0,0,0]","location_rts":"[1533,501,431]","trial_type":"fractal-mutation","trial_index":63,"time_elapsed":1452998,"internal_node_id":"0.0-5.0-9.0"},{"group":"square cycles (cube, non-group)","fractal_assignment":["../images/ylw_pnk.png","../images/grn_red.png","../images/blu_wht.png","../images/pnk_blu.png","../images/gry_blk.png","../images/org_blu.png","../images/cyn_red.png","../images/ylw_slt.png"],"mutagen_generator_assignment":[1,0],"goal":0,"start":7,"action_noise":0.1,"location_history":"[7,6,5,1,0]","action_history":"[0,0,1,1]","mutagen_history":"[1,1,0,0]","location_rts":"[1277,796,769,467]","trial_type":"fractal-mutation","trial_index":64,"time_elapsed":1464463,"internal_node_id":"0.0-5.0-10.0"},{"group":"square cycles (cube, non-group)","fractal_assignment":["../images/ylw_pnk.png","../images/grn_red.png","../images/blu_wht.png","../images/pnk_blu.png","../images/gry_blk.png","../images/org_blu.png","../images/cyn_red.png","../images/ylw_slt.png"],"mutagen_generator_assignment":[1,0],"goal":1,"start":0,"action_noise":0.1,"location_history":"[0,4,5,1]","action_history":"[1,1,1]","mutagen_history":"[0,0,0]","location_rts":"[1075,495,411]","trial_type":"fractal-mutation","trial_index":65,"time_elapsed":1473331,"internal_node_id":"0.0-5.0-11.0"},{"group":"square cycles (cube, non-group)","fractal_assignment":["../images/ylw_pnk.png","../images/grn_red.png","../images/blu_wht.png","../images/pnk_blu.png","../images/gry_blk.png","../images/org_blu.png","../images/cyn_red.png","../images/ylw_slt.png"],"mutagen_generator_assignment":[1,0],"goal":6,"start":1,"action_noise":0.1,"location_history":"[1,2,6]","action_history":"[0,1]","mutagen_history":"[1,0]","location_rts":"[1504,549]","trial_type":"fractal-mutation","trial_index":66,"time_elapsed":1481164,"internal_node_id":"0.0-5.0-12.0"},{"group":"square cycles (cube, non-group)","fractal_assignment":["../images/ylw_pnk.png","../images/grn_red.png","../images/blu_wht.png","../images/pnk_blu.png","../images/gry_blk.png","../images/org_blu.png","../images/cyn_red.png","../images/ylw_slt.png"],"mutagen_generator_assignment":[1,0],"goal":4,"start":6,"action_noise":0.1,"location_history":"[6,7,3,2,3,0,4]","action_history":"[0,1,1,1,1,1]","mutagen_history":"[1,0,0,0,0,0]","location_rts":"[1367,562,371,437,375,426]","trial_type":"fractal-mutation","trial_index":67,"time_elapsed":1494986,"internal_node_id":"0.0-5.0-13.0"},{"group":"square cycles (cube, non-group)","fractal_assignment":["../images/ylw_pnk.png","../images/grn_red.png","../images/blu_wht.png","../images/pnk_blu.png","../images/gry_blk.png","../images/org_blu.png","../images/cyn_red.png","../images/ylw_slt.png"],"mutagen_generator_assignment":[1,0],"goal":5,"start":4,"action_noise":0.1,"location_history":"[4,5]","action_history":"[1]","mutagen_history":"[0]","location_rts":"[1479]","trial_type":"fractal-mutation","trial_index":68,"time_elapsed":1501059,"internal_node_id":"0.0-5.0-14.0"},{"group":"square cycles (cube, non-group)","fractal_assignment":["../images/ylw_pnk.png","../images/grn_red.png","../images/blu_wht.png","../images/pnk_blu.png","../images/gry_blk.png","../images/org_blu.png","../images/cyn_red.png","../images/ylw_slt.png"],"mutagen_generator_assignment":[1,0],"goal":4,"start":5,"action_noise":0.1,"location_history":"[5,1,0,4]","action_history":"[1,1,1]","mutagen_history":"[0,0,0]","location_rts":"[1581,601,539]","trial_type":"fractal-mutation","trial_index":69,"time_elapsed":1510617,"internal_node_id":"0.0-5.0-15.0"},{"group":"square cycles (cube, non-group)","fractal_assignment":["../images/ylw_pnk.png","../images/grn_red.png","../images/blu_wht.png","../images/pnk_blu.png","../images/gry_blk.png","../images/org_blu.png","../images/cyn_red.png","../images/ylw_slt.png"],"mutagen_generator_assignment":[1,0],"goal":0,"start":4,"action_noise":0.1,"location_history":"[4,5,1,0]","action_history":"[1,1,1]","mutagen_history":"[0,0,0]","location_rts":"[977,436,683]","trial_type":"fractal-mutation","trial_index":70,"time_elapsed":1519568,"internal_node_id":"0.0-5.0-16.0"},{"group":"square cycles (cube, non-group)","fractal_assignment":["../images/ylw_pnk.png","../images/grn_red.png","../images/blu_wht.png","../images/pnk_blu.png","../images/gry_blk.png","../images/org_blu.png","../images/cyn_red.png","../images/ylw_slt.png"],"mutagen_generator_assignment":[1,0],"goal":7,"start":0,"action_noise":0.1,"location_history":"[0,1,2,3,2,6,7]","action_history":"[0,0,1,1,1,1]","mutagen_history":"[1,1,0,0,0,0]","location_rts":"[984,537,611,417,461,726]","trial_type":"fractal-mutation","trial_index":71,"time_elapsed":1533661,"internal_node_id":"0.0-5.0-17.0"},{"group":"square cycles (cube, non-group)","fractal_assignment":["../images/ylw_pnk.png","../images/grn_red.png","../images/blu_wht.png","../images/pnk_blu.png","../images/gry_blk.png","../images/org_blu.png","../images/cyn_red.png","../images/ylw_slt.png"],"mutagen_generator_assignment":[1,0],"goal":2,"start":7,"action_noise":0.1,"location_history":"[7,6,7,3,0,4,5,1,2]","action_history":"[1,1,1,1,1,0,1,0]","mutagen_history":"[0,0,0,0,0,1,0,1]","location_rts":"[1016,445,433,476,497,237,535,207]","trial_type":"fractal-mutation","trial_index":72,"time_elapsed":1549997,"internal_node_id":"0.0-5.0-18.0"},{"group":"square cycles (cube, non-group)","fractal_assignment":["../images/ylw_pnk.png","../images/grn_red.png","../images/blu_wht.png","../images/pnk_blu.png","../images/gry_blk.png","../images/org_blu.png","../images/cyn_red.png","../images/ylw_slt.png"],"mutagen_generator_assignment":[1,0],"goal":1,"start":2,"action_noise":0.1,"location_history":"[2,3,2,6,7,6,5,1]","action_history":"[1,1,1,1,1,0,1]","mutagen_history":"[0,0,0,0,0,1,0]","location_rts":"[709,687,563,576,665,36,675]","trial_type":"fractal-mutation","trial_index":73,"time_elapsed":1565305,"internal_node_id":"0.0-5.0-19.0"},{"group":"square cycles (cube, non-group)","fractal_assignment":["../images/ylw_pnk.png","../images/grn_red.png","../images/blu_wht.png","../images/pnk_blu.png","../images/gry_blk.png","../images/org_blu.png","../images/cyn_red.png","../images/ylw_slt.png"],"mutagen_generator_assignment":[1,0],"goal":3,"start":1,"action_noise":0.1,"location_history":"[1,0,1,2,6,7,3]","action_history":"[1,0,0,1,1,1]","mutagen_history":"[0,1,1,0,0,0]","location_rts":"[843,305,705,439,423,420]","trial_type":"fractal-mutation","trial_index":74,"time_elapsed":1578817,"internal_node_id":"0.0-5.0-20.0"},{"group":"square cycles (cube, non-group)","fractal_assignment":["../images/ylw_pnk.png","../images/grn_red.png","../images/blu_wht.png","../images/pnk_blu.png","../images/gry_blk.png","../images/org_blu.png","../images/cyn_red.png","../images/ylw_slt.png"],"mutagen_generator_assignment":[1,0],"goal":6,"start":3,"action_noise":0.1,"location_history":"[3,2,6]","action_history":"[1,1]","mutagen_history":"[0,0]","location_rts":"[1238,407]","trial_type":"fractal-mutation","trial_index":75,"time_elapsed":1586232,"internal_node_id":"0.0-5.0-21.0"},{"group":"square cycles (cube, non-group)","fractal_assignment":["../images/ylw_pnk.png","../images/grn_red.png","../images/blu_wht.png","../images/pnk_blu.png","../images/gry_blk.png","../images/org_blu.png","../images/cyn_red.png","../images/ylw_slt.png"],"mutagen_generator_assignment":[1,0],"goal":5,"start":6,"action_noise":0.1,"location_history":"[6,7,3,2,3,0,4,5]","action_history":"[1,1,1,1,0,1,1]","mutagen_history":"[0,0,0,0,1,0,0]","location_rts":"[1597,346,370,358,94,470,266]","trial_type":"fractal-mutation","trial_index":76,"time_elapsed":1601187,"internal_node_id":"0.0-5.0-22.0"},{"group":"square cycles (cube, non-group)","fractal_assignment":["../images/ylw_pnk.png","../images/grn_red.png","../images/blu_wht.png","../images/pnk_blu.png","../images/gry_blk.png","../images/org_blu.png","../images/cyn_red.png","../images/ylw_slt.png"],"mutagen_generator_assignment":[1,0],"goal":3,"start":5,"action_noise":0.1,"location_history":"[5,1,2,6,7,3]","action_history":"[1,0,1,1,1]","mutagen_history":"[0,1,0,0,0]","location_rts":"[1230,1000,401,294,437]","trial_type":"fractal-mutation","trial_index":77,"time_elapsed":1613731,"internal_node_id":"0.0-5.0-23.0"},{"group":"square cycles (cube, non-group)","fractal_assignment":["../images/ylw_pnk.png","../images/grn_red.png","../images/blu_wht.png","../images/pnk_blu.png","../images/gry_blk.png","../images/org_blu.png","../images/cyn_red.png","../images/ylw_slt.png"],"mutagen_generator_assignment":[1,0],"goal":0,"start":3,"action_noise":0.1,"location_history":"[3,2,6,7,6,5,4,7,3,0]","action_history":"[1,1,1,1,0,0,0,1,0]","mutagen_history":"[0,0,0,0,1,1,1,0,1]","location_rts":"[1001,393,393,508,660,808,698,387,490]","trial_type":"fractal-mutation","trial_index":78,"time_elapsed":1632808,"internal_node_id":"0.0-5.0-24.0"},{"group":"square cycles (cube, non-group)","fractal_assignment":["../images/ylw_pnk.png","../images/grn_red.png","../images/blu_wht.png","../images/pnk_blu.png","../images/gry_blk.png","../images/org_blu.png","../images/cyn_red.png","../images/ylw_slt.png"],"mutagen_generator_assignment":[1,0],"goal":7,"start":0,"action_noise":0.1,"location_history":"[0,1,2,6,7]","action_history":"[0,0,1,1]","mutagen_history":"[1,1,0,0]","location_rts":"[1694,738,519,369]","trial_type":"fractal-mutation","trial_index":79,"time_elapsed":1644233,"internal_node_id":"0.0-5.0-25.0"},{"group":"square cycles (cube, non-group)","fractal_assignment":["../images/ylw_pnk.png","../images/grn_red.png","../images/blu_wht.png","../images/pnk_blu.png","../images/gry_blk.png","../images/org_blu.png","../images/cyn_red.png","../images/ylw_slt.png"],"mutagen_generator_assignment":[1,0],"goal":2,"start":7,"action_noise":0.1,"location_history":"[7,3,0,1,2]","action_history":"[1,1,1,0]","mutagen_history":"[0,0,0,1]","location_rts":"[1816,467,478,280]","trial_type":"fractal-mutation","trial_index":80,"time_elapsed":1655326,"internal_node_id":"0.0-5.0-26.0"},{"group":"square cycles (cube, non-group)","fractal_assignment":["../images/ylw_pnk.png","../images/grn_red.png","../images/blu_wht.png","../images/pnk_blu.png","../images/gry_blk.png","../images/org_blu.png","../images/cyn_red.png","../images/ylw_slt.png"],"mutagen_generator_assignment":[1,0],"goal":1,"start":2,"action_noise":0.1,"location_history":"[2,3,2,3,0,4,5,1]","action_history":"[0,1,0,0,1,1,1]","mutagen_history":"[1,0,1,1,0,0,0]","location_rts":"[1683,379,121,548,693,429,456]","trial_type":"fractal-mutation","trial_index":81,"time_elapsed":1671106,"internal_node_id":"0.0-5.0-27.0"},{"group":"square cycles (cube, non-group)","fractal_assignment":["../images/ylw_pnk.png","../images/grn_red.png","../images/blu_wht.png","../images/pnk_blu.png","../images/gry_blk.png","../images/org_blu.png","../images/cyn_red.png","../images/ylw_slt.png"],"mutagen_generator_assignment":[1,0],"goal":5,"start":1,"action_noise":0.1,"location_history":"[1,0,4,5]","action_history":"[1,1,1]","mutagen_history":"[0,0,0]","location_rts":"[1220,457,469]","trial_type":"fractal-mutation","trial_index":82,"time_elapsed":1680129,"internal_node_id":"0.0-5.0-28.0"},{"group":"square cycles (cube, non-group)","fractal_assignment":["../images/ylw_pnk.png","../images/grn_red.png","../images/blu_wht.png","../images/pnk_blu.png","../images/gry_blk.png","../images/org_blu.png","../images/cyn_red.png","../images/ylw_slt.png"],"mutagen_generator_assignment":[1,0],"goal":4,"start":5,"action_noise":0.1,"location_history":"[5,1,0,4]","action_history":"[1,1,1]","mutagen_history":"[0,0,0]","location_rts":"[857,649,883]","trial_type":"fractal-mutation","trial_index":83,"time_elapsed":1689315,"internal_node_id":"0.0-5.0-29.0"},{"group":"square cycles (cube, non-group)","fractal_assignment":["../images/ylw_pnk.png","../images/grn_red.png","../images/blu_wht.png","../images/pnk_blu.png","../images/gry_blk.png","../images/org_blu.png","../images/cyn_red.png","../images/ylw_slt.png"],"mutagen_generator_assignment":[1,0],"goal":6,"start":4,"action_noise":0.1,"location_history":"[4,5,4,5,4,5,1,2,6]","action_history":"[1,1,1,0,1,1,0,1]","mutagen_history":"[0,0,0,1,0,0,1,0]","location_rts":"[1015,438,450,915,1083,401,533,492]","trial_type":"fractal-mutation","trial_index":84,"time_elapsed":1707183,"internal_node_id":"0.0-5.0-30.0"},{"group":"square cycles (cube, non-group)","fractal_assignment":["../images/ylw_pnk.png","../images/grn_red.png","../images/blu_wht.png","../images/pnk_blu.png","../images/gry_blk.png","../images/org_blu.png","../images/cyn_red.png","../images/ylw_slt.png"],"mutagen_generator_assignment":[1,0],"goal":4,"start":6,"action_noise":0.1,"location_history":"[6,7,6,5,4]","action_history":"[1,0,1,0]","mutagen_history":"[0,1,0,1]","location_rts":"[1380,508,274,163]","trial_type":"fractal-mutation","trial_index":85,"time_elapsed":1717588,"internal_node_id":"0.0-5.0-31.0"},{"group":"square cycles (cube, non-group)","fractal_assignment":["../images/ylw_pnk.png","../images/grn_red.png","../images/blu_wht.png","../images/pnk_blu.png","../images/gry_blk.png","../images/org_blu.png","../images/cyn_red.png","../images/ylw_slt.png"],"mutagen_generator_assignment":[1,0],"goal":2,"start":4,"action_noise":0.1,"location_history":"[4,7,3,2]","action_history":"[0,1,1]","mutagen_history":"[1,0,0]","location_rts":"[1037,443,410]","trial_type":"fractal-mutation","trial_index":86,"time_elapsed":1726431,"internal_node_id":"0.0-5.0-32.0"},{"group":"square cycles (cube, non-group)","fractal_assignment":["../images/ylw_pnk.png","../images/grn_red.png","../images/blu_wht.png","../images/pnk_blu.png","../images/gry_blk.png","../images/org_blu.png","../images/cyn_red.png","../images/ylw_slt.png"],"mutagen_generator_assignment":[1,0],"goal":0,"start":2,"action_noise":0.1,"location_history":"[2,3,2,6,7,3,0]","action_history":"[1,1,1,1,1,0]","mutagen_history":"[0,0,0,0,0,1]","location_rts":"[1486,757,908,502,651,498]","trial_type":"fractal-mutation","trial_index":87,"time_elapsed":1741443,"internal_node_id":"0.0-5.0-33.0"},{"group":"square cycles (cube, non-group)","fractal_assignment":["../images/ylw_pnk.png","../images/grn_red.png","../images/blu_wht.png","../images/pnk_blu.png","../images/gry_blk.png","../images/org_blu.png","../images/cyn_red.png","../images/ylw_slt.png"],"mutagen_generator_assignment":[1,0],"goal":5,"start":0,"action_noise":0.1,"location_history":"[0,1,2,6,7,3,0,4,7,3,2,6,7,6,5]","action_history":"[0,0,1,1,1,1,1,0,1,1,0,1,0,0]","mutagen_history":"[1,1,0,0,0,0,0,1,0,0,1,0,1,1]","location_rts":"[2808,510,715,411,392,402,573,350,466,405,747,301,367,709]","trial_type":"fractal-mutation","trial_index":88,"time_elapsed":1770080,"internal_node_id":"0.0-5.0-34.0"},{"group":"square cycles (cube, non-group)","fractal_assignment":["../images/ylw_pnk.png","../images/grn_red.png","../images/blu_wht.png","../images/pnk_blu.png","../images/gry_blk.png","../images/org_blu.png","../images/cyn_red.png","../images/ylw_slt.png"],"mutagen_generator_assignment":[1,0],"goal":1,"start":5,"action_noise":0.1,"location_history":"[5,1]","action_history":"[1]","mutagen_history":"[0]","location_rts":"[5935]","trial_type":"fractal-mutation","trial_index":89,"time_elapsed":1780630,"internal_node_id":"0.0-5.0-35.0"},{"group":"square cycles (cube, non-group)","fractal_assignment":["../images/ylw_pnk.png","../images/grn_red.png","../images/blu_wht.png","../images/pnk_blu.png","../images/gry_blk.png","../images/org_blu.png","../images/cyn_red.png","../images/ylw_slt.png"],"mutagen_generator_assignment":[1,0],"goal":7,"start":1,"action_noise":0.1,"location_history":"[1,2,6,7]","action_history":"[0,1,1]","mutagen_history":"[1,0,0]","location_rts":"[1088,509,417]","trial_type":"fractal-mutation","trial_index":90,"time_elapsed":1789609,"internal_node_id":"0.0-5.0-36.0"},{"group":"square cycles (cube, non-group)","fractal_assignment":["../images/ylw_pnk.png","../images/grn_red.png","../images/blu_wht.png","../images/pnk_blu.png","../images/gry_blk.png","../images/org_blu.png","../images/cyn_red.png","../images/ylw_slt.png"],"mutagen_generator_assignment":[1,0],"goal":3,"start":7,"action_noise":0.1,"location_history":"[7,3]","action_history":"[1]","mutagen_history":"[0]","location_rts":"[1258]","trial_type":"fractal-mutation","trial_index":91,"time_elapsed":1795489,"internal_node_id":"0.0-5.0-37.0"},{"group":"square cycles (cube, non-group)","fractal_assignment":["../images/ylw_pnk.png","../images/grn_red.png","../images/blu_wht.png","../images/pnk_blu.png","../images/gry_blk.png","../images/org_blu.png","../images/cyn_red.png","../images/ylw_slt.png"],"mutagen_generator_assignment":[1,0],"goal":6,"start":3,"action_noise":0.1,"location_history":"[3,2,3,2,6]","action_history":"[0,0,1,1]","mutagen_history":"[1,1,0,0]","location_rts":"[832,534,670,361]","trial_type":"fractal-mutation","trial_index":92,"time_elapsed":1805942,"internal_node_id":"0.0-5.0-38.0"},{"group":"square cycles (cube, non-group)","fractal_assignment":["../images/ylw_pnk.png","../images/grn_red.png","../images/blu_wht.png","../images/pnk_blu.png","../images/gry_blk.png","../images/org_blu.png","../images/cyn_red.png","../images/ylw_slt.png"],"mutagen_generator_assignment":[1,0],"goal":2,"start":6,"action_noise":0.1,"location_history":"[6,7,3,2]","action_history":"[1,1,1]","mutagen_history":"[0,0,0]","location_rts":"[894,471,439]","trial_type":"fractal-mutation","trial_index":93,"time_elapsed":1814621,"internal_node_id":"0.0-5.0-39.0"},{"group":"square cycles (cube, non-group)","fractal_assignment":["../images/ylw_pnk.png","../images/grn_red.png","../images/blu_wht.png","../images/pnk_blu.png","../images/gry_blk.png","../images/org_blu.png","../images/cyn_red.png","../images/ylw_slt.png"],"mutagen_generator_assignment":[1,0],"goal":1,"start":2,"action_noise":0.1,"location_history":"[2,3,0,4,5,1]","action_history":"[0,0,1,1,1]","mutagen_history":"[1,1,0,0,0]","location_rts":"[1429,580,348,467,798]","trial_type":"fractal-mutation","trial_index":94,"time_elapsed":1827411,"internal_node_id":"0.0-5.0-40.0"},{"group":"square cycles (cube, non-group)","fractal_assignment":["../images/ylw_pnk.png","../images/grn_red.png","../images/blu_wht.png","../images/pnk_blu.png","../images/gry_blk.png","../images/org_blu.png","../images/cyn_red.png","../images/ylw_slt.png"],"mutagen_generator_assignment":[1,0],"goal":0,"start":1,"action_noise":0.1,"location_history":"[1,2,3,2,3,2,6,5,1,0]","action_history":"[0,0,1,0,0,1,0,1,1]","mutagen_history":"[1,1,0,1,1,0,1,0,0]","location_rts":"[999,627,456,465,741,494,11,759,451]","trial_type":"fractal-mutation","trial_index":95,"time_elapsed":1846329,"internal_node_id":"0.0-5.0-41.0"},{"group":"square cycles (cube, non-group)","fractal_assignment":["../images/ylw_pnk.png","../images/grn_red.png","../images/blu_wht.png","../images/pnk_blu.png","../images/gry_blk.png","../images/org_blu.png","../images/cyn_red.png","../images/ylw_slt.png"],"mutagen_generator_assignment":[1,0],"goal":4,"start":0,"action_noise":0.1,"location_history":"[0,4]","action_history":"[1]","mutagen_history":"[0]","location_rts":"[1186]","trial_type":"fractal-mutation","trial_index":96,"time_elapsed":1852159,"internal_node_id":"0.0-5.0-42.0"},{"group":"square cycles (cube, non-group)","fractal_assignment":["../images/ylw_pnk.png","../images/grn_red.png","../images/blu_wht.png","../images/pnk_blu.png","../images/gry_blk.png","../images/org_blu.png","../images/cyn_red.png","../images/ylw_slt.png"],"mutagen_generator_assignment":[1,0],"goal":6,"start":4,"action_noise":0.1,"location_history":"[4,7,3,2,6]","action_history":"[0,1,1,1]","mutagen_history":"[1,0,0,0]","location_rts":"[1067,511,215,908]","trial_type":"fractal-mutation","trial_index":97,"time_elapsed":1862854,"internal_node_id":"0.0-5.0-43.0"},{"group":"square cycles (cube, non-group)","fractal_assignment":["../images/ylw_pnk.png","../images/grn_red.png","../images/blu_wht.png","../images/pnk_blu.png","../images/gry_blk.png","../images/org_blu.png","../images/cyn_red.png","../images/ylw_slt.png"],"mutagen_generator_assignment":[1,0],"goal":3,"start":6,"action_noise":0.1,"location_history":"[6,7,6,5,4,7,6,7,3]","action_history":"[0,0,0,0,0,0,1,1]","mutagen_history":"[1,1,1,1,1,1,0,0]","location_rts":"[1089,1071,779,482,698,711,953,538]","trial_type":"fractal-mutation","trial_index":98,"time_elapsed":1882003,"internal_node_id":"0.0-5.0-44.0"},{"group":"square cycles (cube, non-group)","fractal_assignment":["../images/ylw_pnk.png","../images/grn_red.png","../images/blu_wht.png","../images/pnk_blu.png","../images/gry_blk.png","../images/org_blu.png","../images/cyn_red.png","../images/ylw_slt.png"],"mutagen_generator_assignment":[1,0],"goal":7,"start":3,"action_noise":0.1,"location_history":"[3,0,4,7]","action_history":"[1,1,0]","mutagen_history":"[0,0,1]","location_rts":"[1820,413,136]","trial_type":"fractal-mutation","trial_index":99,"time_elapsed":1891284,"internal_node_id":"0.0-5.0-45.0"},{"group":"square cycles (cube, non-group)","fractal_assignment":["../images/ylw_pnk.png","../images/grn_red.png","../images/blu_wht.png","../images/pnk_blu.png","../images/gry_blk.png","../images/org_blu.png","../images/cyn_red.png","../images/ylw_slt.png"],"mutagen_generator_assignment":[1,0],"goal":5,"start":7,"action_noise":0.1,"location_history":"[7,3,2,6,5]","action_history":"[1,0,1,0]","mutagen_history":"[0,1,0,1]","location_rts":"[1078,19,469,313]","trial_type":"fractal-mutation","trial_index":100,"time_elapsed":1901307,"internal_node_id":"0.0-5.0-46.0"},{"group":"square cycles (cube, non-group)","fractal_assignment":["../images/ylw_pnk.png","../images/grn_red.png","../images/blu_wht.png","../images/pnk_blu.png","../images/gry_blk.png","../images/org_blu.png","../images/cyn_red.png","../images/ylw_slt.png"],"mutagen_generator_assignment":[1,0],"goal":1,"start":5,"action_noise":0.1,"location_history":"[5,1]","action_history":"[1]","mutagen_history":"[0]","location_rts":"[1518]","trial_type":"fractal-mutation","trial_index":101,"time_elapsed":1907464,"internal_node_id":"0.0-5.0-47.0"},{"group":"square cycles (cube, non-group)","fractal_assignment":["../images/ylw_pnk.png","../images/grn_red.png","../images/blu_wht.png","../images/pnk_blu.png","../images/gry_blk.png","../images/org_blu.png","../images/cyn_red.png","../images/ylw_slt.png"],"mutagen_generator_assignment":[1,0],"goal":6,"start":1,"action_noise":0.1,"location_history":"[1,2,6]","action_history":"[0,1]","mutagen_history":"[1,0]","location_rts":"[1864,866]","trial_type":"fractal-mutation","trial_index":102,"time_elapsed":1915995,"internal_node_id":"0.0-5.0-48.0"},{"group":"square cycles (cube, non-group)","fractal_assignment":["../images/ylw_pnk.png","../images/grn_red.png","../images/blu_wht.png","../images/pnk_blu.png","../images/gry_blk.png","../images/org_blu.png","../images/cyn_red.png","../images/ylw_slt.png"],"mutagen_generator_assignment":[1,0],"goal":0,"start":6,"action_noise":0.1,"location_history":"[6,5,1,0]","action_history":"[0,1,1]","mutagen_history":"[1,0,0]","location_rts":"[2152,927,496]","trial_type":"fractal-mutation","trial_index":103,"time_elapsed":1926448,"internal_node_id":"0.0-5.0-49.0"},{"view_history":"[{\"page_index\":0,\"viewing_time\":7528}]","rt":7529,"trial_type":"instructions","trial_index":104,"time_elapsed":1934977,"internal_node_id":"0.0-6.0"},{"rt":35827,"responses":"{\"Q0\":\"I think I figured out the connections between all the colored rooms and all the different alien types!\"}","trial_type":"survey-text","trial_index":105,"time_elapsed":1971814,"internal_node_id":"0.0-7.0"}]