[{"view_history":"[{\"page_index\":0,\"viewing_time\":177945},{\"page_index\":1,\"viewing_time\":11056}]","rt":189002,"trial_type":"instructions","trial_index":0,"time_elapsed":189002,"internal_node_id":"0.0-0.0"},{"view_history":"[{\"page_index\":0,\"viewing_time\":26917},{\"page_index\":1,\"viewing_time\":9360}]","rt":36277,"trial_type":"instructions","trial_index":1,"time_elapsed":226280,"internal_node_id":"0.0-1.0"},{"group":"tri cycles (cube, non-group)","room_assignment":["brown","pink","grey","green","blue","purple","red","yellow"],"door_color_assignment":["black","white"],"door_generator_assignment":[1,0],"goal":6,"start":3,"action_noise":0.1,"location_history":"[3,7,6]","action_history":"[0,0]","door_history":"[1,1]","location_rts":"[1757,337]","trial_type":"two-door-navigation","trial_index":2,"time_elapsed":233921,"internal_node_id":"0.0-2.0-0.0"},{"group":"tri cycles (cube, non-group)","room_assignment":["brown","pink","grey","green","blue","purple","red","yellow"],"door_color_assignment":["black","white"],"door_generator_assignment":[1,0],"goal":1,"start":6,"action_noise":0.1,"location_history":"[6,5,2,6,5,1]","action_history":"[1,1,1,1,0]","door_history":"[0,0,0,0,1]","location_rts":"[1631,331,452,324,556]","trial_type":"two-door-navigation","trial_index":3,"time_elapsed":245823,"internal_node_id":"0.0-2.0-1.0"},{"group":"tri cycles (cube, non-group)","room_assignment":["brown","pink","grey","green","blue","purple","red","yellow"],"door_color_assignment":["black","white"],"door_generator_assignment":[1,0],"goal":2,"start":1,"action_noise":0.1,"location_history":"[1,5,2]","action_history":"[1,1]","door_history":"[0,0]","location_rts":"[2072,320]","trial_type":"two-door-navigation","trial_index":4,"time_elapsed":253751,"internal_node_id":"0.0-2.0-2.0"},{"group":"tri cycles (cube, non-group)","room_assignment":["brown","pink","grey","green","blue","purple","red","yellow"],"door_color_assignment":["black","white"],"door_generator_assignment":[1,0],"goal":0,"start":2,"action_noise":0.1,"location_history":"[2,6,5,1,0]","action_history":"[1,0,0,0]","door_history":"[0,1,1,1]","location_rts":"[943,150,90,228]","trial_type":"two-door-navigation","trial_index":5,"time_elapsed":262744,"internal_node_id":"0.0-2.0-3.0"},{"group":"tri cycles (cube, non-group)","room_assignment":["brown","pink","grey","green","blue","purple","red","yellow"],"door_color_assignment":["black","white"],"door_generator_assignment":[1,0],"goal":7,"start":0,"action_noise":0.1,"location_history":"[0,3,7]","action_history":"[1,0]","door_history":"[0,1]","location_rts":"[966,316]","trial_type":"two-door-navigation","trial_index":6,"time_elapsed":269565,"internal_node_id":"0.0-2.0-4.0"},{"group":"tri cycles (cube, non-group)","room_assignment":["brown","pink","grey","green","blue","purple","red","yellow"],"door_color_assignment":["black","white"],"door_generator_assignment":[1,0],"goal":5,"start":7,"action_noise":0.1,"location_history":"[7,3,4,0,3,4,0,3,4,0,3,7,6,5]","action_history":"[1,1,1,1,1,1,1,1,1,1,0,0,0]","door_history":"[0,0,0,0,0,0,0,0,0,0,1,1,1]","location_rts":"[1347,223,303,316,357,364,394,1079,476,339,98,235,331]","trial_type":"two-door-navigation","trial_index":7,"time_elapsed":292214,"internal_node_id":"0.0-2.0-5.0"},{"group":"tri cycles (cube, non-group)","room_assignment":["brown","pink","grey","green","blue","purple","red","yellow"],"door_color_assignment":["black","white"],"door_generator_assignment":[1,0],"goal":4,"start":5,"action_noise":0.1,"location_history":"[5,1,0,3,4]","action_history":"[0,1,1,1]","door_history":"[1,0,0,0]","location_rts":"[2035,202,111,207]","trial_type":"two-door-navigation","trial_index":8,"time_elapsed":302344,"internal_node_id":"0.0-2.0-6.0"},{"group":"tri cycles (cube, non-group)","room_assignment":["brown","pink","grey","green","blue","purple","red","yellow"],"door_color_assignment":["black","white"],"door_generator_assignment":[1,0],"goal":2,"start":4,"action_noise":0.1,"location_history":"[4,0,2]","action_history":"[1,0]","door_history":"[0,1]","location_rts":"[621,30]","trial_type":"two-door-navigation","trial_index":9,"time_elapsed":308532,"internal_node_id":"0.0-2.0-7.0"},{"group":"tri cycles (cube, non-group)","room_assignment":["brown","pink","grey","green","blue","purple","red","yellow"],"door_color_assignment":["black","white"],"door_generator_assignment":[1,0],"goal":3,"start":2,"action_noise":0.1,"location_history":"[2,6,5,1,5,2,1,5,1,5,1,5,2,6,5,2,6,5,1,0,3]","action_history":"[1,0,1,1,1,0,1,1,1,1,0,1,1,1,1,1,1,0,0,1]","door_history":"[0,1,0,0,0,1,0,0,0,0,1,0,0,0,0,0,0,1,1,0]","location_rts":"[282,104,60,212,174,277,462,97,219,248,434,270,379,288,311,377,316,317,461,314]","trial_type":"two-door-navigation","trial_index":10,"time_elapsed":338013,"internal_node_id":"0.0-2.0-8.0"},{"group":"tri cycles (cube, non-group)","room_assignment":["brown","pink","grey","green","blue","purple","red","yellow"],"door_color_assignment":["black","white"],"door_generator_assignment":[1,0],"goal":7,"start":3,"action_noise":0.1,"location_history":"[3,4,7]","action_history":"[1,0]","door_history":"[0,1]","location_rts":"[5503,237]","trial_type":"two-door-navigation","trial_index":11,"time_elapsed":349299,"internal_node_id":"0.0-2.0-9.0"},{"group":"tri cycles (cube, non-group)","room_assignment":["brown","pink","grey","green","blue","purple","red","yellow"],"door_color_assignment":["black","white"],"door_generator_assignment":[1,0],"goal":0,"start":7,"action_noise":0.1,"location_history":"[7,3,4,0]","action_history":"[1,1,1]","door_history":"[0,0,0]","location_rts":"[1409,250,351]","trial_type":"two-door-navigation","trial_index":12,"time_elapsed":357860,"internal_node_id":"0.0-2.0-10.0"},{"group":"tri cycles (cube, non-group)","room_assignment":["brown","pink","grey","green","blue","purple","red","yellow"],"door_color_assignment":["black","white"],"door_generator_assignment":[1,0],"goal":1,"start":0,"action_noise":0.1,"location_history":"[0,2,1]","action_history":"[0,0]","door_history":"[1,1]","location_rts":"[1113,377]","trial_type":"two-door-navigation","trial_index":13,"time_elapsed":364887,"internal_node_id":"0.0-2.0-11.0"},{"group":"tri cycles (cube, non-group)","room_assignment":["brown","pink","grey","green","blue","purple","red","yellow"],"door_color_assignment":["black","white"],"door_generator_assignment":[1,0],"goal":6,"start":1,"action_noise":0.1,"location_history":"[1,0,2,6]","action_history":"[0,1,1]","door_history":"[1,0,0]","location_rts":"[865,295,156]","trial_type":"two-door-navigation","trial_index":14,"time_elapsed":372759,"internal_node_id":"0.0-2.0-12.0"},{"group":"tri cycles (cube, non-group)","room_assignment":["brown","pink","grey","green","blue","purple","red","yellow"],"door_color_assignment":["black","white"],"door_generator_assignment":[1,0],"goal":4,"start":6,"action_noise":0.1,"location_history":"[6,5,1,5,2,6,4]","action_history":"[1,0,1,1,1,0]","door_history":"[0,1,0,0,0,1]","location_rts":"[614,423,292,235,321,323]","trial_type":"two-door-navigation","trial_index":15,"time_elapsed":384584,"internal_node_id":"0.0-2.0-13.0"},{"group":"tri cycles (cube, non-group)","room_assignment":["brown","pink","grey","green","blue","purple","red","yellow"],"door_color_assignment":["black","white"],"door_generator_assignment":[1,0],"goal":5,"start":4,"action_noise":0.1,"location_history":"[4,0,3,7,3,4,0,2,6,5]","action_history":"[1,1,0,1,1,1,0,1,0]","door_history":"[0,0,1,0,0,0,1,0,1]","location_rts":"[1357,201,72,217,199,420,215,243,296]","trial_type":"two-door-navigation","trial_index":16,"time_elapsed":400466,"internal_node_id":"0.0-2.0-14.0"},{"group":"tri cycles (cube, non-group)","room_assignment":["brown","pink","grey","green","blue","purple","red","yellow"],"door_color_assignment":["black","white"],"door_generator_assignment":[1,0],"goal":4,"start":5,"action_noise":0.1,"location_history":"[5,1,5,2,6,5,2,1,5,2,1,5,2,1,5,1,0,2,1,0,3,4]","action_history":"[0,1,1,1,1,1,0,1,1,0,1,1,0,1,0,0,0,0,0,1,1]","door_history":"[1,0,0,0,0,0,1,0,0,1,0,0,1,0,1,1,1,1,1,0,0]","location_rts":"[482,50,103,183,296,471,1009,1280,255,334,381,238,262,336,245,94,237,430,359,863,312]","trial_type":"two-door-navigation","trial_index":17,"time_elapsed":433632,"internal_node_id":"0.0-2.0-15.0"},{"group":"tri cycles (cube, non-group)","room_assignment":["brown","pink","grey","green","blue","purple","red","yellow"],"door_color_assignment":["black","white"],"door_generator_assignment":[1,0],"goal":0,"start":4,"action_noise":0.1,"location_history":"[4,0]","action_history":"[1]","door_history":"[0]","location_rts":"[1702]","trial_type":"two-door-navigation","trial_index":18,"time_elapsed":439859,"internal_node_id":"0.0-2.0-16.0"},{"group":"tri cycles (cube, non-group)","room_assignment":["brown","pink","grey","green","blue","purple","red","yellow"],"door_color_assignment":["black","white"],"door_generator_assignment":[1,0],"goal":7,"start":0,"action_noise":0.1,"location_history":"[0,2,1,0,3,7]","action_history":"[0,1,0,1,0]","door_history":"[1,0,1,0,1]","location_rts":"[1715,144,165,234,246]","trial_type":"two-door-navigation","trial_index":19,"time_elapsed":450975,"internal_node_id":"0.0-2.0-17.0"},{"group":"tri cycles (cube, non-group)","room_assignment":["brown","pink","grey","green","blue","purple","red","yellow"],"door_color_assignment":["black","white"],"door_generator_assignment":[1,0],"goal":2,"start":7,"action_noise":0.1,"location_history":"[7,6,5,2]","action_history":"[0,1,1]","door_history":"[1,0,0]","location_rts":"[1982,325,276]","trial_type":"two-door-navigation","trial_index":20,"time_elapsed":460118,"internal_node_id":"0.0-2.0-18.0"},{"group":"tri cycles (cube, non-group)","room_assignment":["brown","pink","grey","green","blue","purple","red","yellow"],"door_color_assignment":["black","white"],"door_generator_assignment":[1,0],"goal":1,"start":2,"action_noise":0.1,"location_history":"[2,1]","action_history":"[0]","door_history":"[1]","location_rts":"[1378]","trial_type":"two-door-navigation","trial_index":21,"time_elapsed":466017,"internal_node_id":"0.0-2.0-19.0"},{"group":"tri cycles (cube, non-group)","room_assignment":["brown","pink","grey","green","blue","purple","red","yellow"],"door_color_assignment":["black","white"],"door_generator_assignment":[1,0],"goal":3,"start":1,"action_noise":0.1,"location_history":"[1,0,3]","action_history":"[0,1]","door_history":"[1,0]","location_rts":"[2306,104]","trial_type":"two-door-navigation","trial_index":22,"time_elapsed":473966,"internal_node_id":"0.0-2.0-20.0"},{"group":"tri cycles (cube, non-group)","room_assignment":["brown","pink","grey","green","blue","purple","red","yellow"],"door_color_assignment":["black","white"],"door_generator_assignment":[1,0],"goal":6,"start":3,"action_noise":0.1,"location_history":"[3,7,6]","action_history":"[0,0]","door_history":"[1,1]","location_rts":"[833,305]","trial_type":"two-door-navigation","trial_index":23,"time_elapsed":480666,"internal_node_id":"0.0-2.0-21.0"},{"group":"tri cycles (cube, non-group)","room_assignment":["brown","pink","grey","green","blue","purple","red","yellow"],"door_color_assignment":["black","white"],"door_generator_assignment":[1,0],"goal":5,"start":6,"action_noise":0.1,"location_history":"[6,5]","action_history":"[1]","door_history":"[0]","location_rts":"[2099]","trial_type":"two-door-navigation","trial_index":24,"time_elapsed":487284,"internal_node_id":"0.0-2.0-22.0"},{"group":"tri cycles (cube, non-group)","room_assignment":["brown","pink","grey","green","blue","purple","red","yellow"],"door_color_assignment":["black","white"],"door_generator_assignment":[1,0],"goal":3,"start":5,"action_noise":0.1,"location_history":"[5,2,6,5,2,1,5,2,1,0,3]","action_history":"[1,1,1,1,0,1,1,0,0,1]","door_history":"[0,0,0,0,1,0,0,1,1,0]","location_rts":"[1361,258,246,355,399,284,250,344,845,494]","trial_type":"two-door-navigation","trial_index":25,"time_elapsed":505820,"internal_node_id":"0.0-2.0-23.0"},{"group":"tri cycles (cube, non-group)","room_assignment":["brown","pink","grey","green","blue","purple","red","yellow"],"door_color_assignment":["black","white"],"door_generator_assignment":[1,0],"goal":0,"start":3,"action_noise":0.1,"location_history":"[3,4,0]","action_history":"[1,1]","door_history":"[0,0]","location_rts":"[3784,354]","trial_type":"two-door-navigation","trial_index":26,"time_elapsed":515511,"internal_node_id":"0.0-2.0-24.0"},{"group":"tri cycles (cube, non-group)","room_assignment":["brown","pink","grey","green","blue","purple","red","yellow"],"door_color_assignment":["black","white"],"door_generator_assignment":[1,0],"goal":7,"start":0,"action_noise":0.1,"location_history":"[0,2,1,0,3,4,0,2,1,0,3,4,0,2,6,4,7]","action_history":"[0,0,0,1,1,1,0,0,0,1,1,1,0,1,0,0]","door_history":"[1,1,1,0,0,0,1,1,1,0,0,0,1,0,1,1]","location_rts":"[2912,421,424,133,247,319,318,327,354,482,189,278,164,389,487,341]","trial_type":"two-door-navigation","trial_index":27,"time_elapsed":543121,"internal_node_id":"0.0-2.0-25.0"},{"group":"tri cycles (cube, non-group)","room_assignment":["brown","pink","grey","green","blue","purple","red","yellow"],"door_color_assignment":["black","white"],"door_generator_assignment":[1,0],"goal":2,"start":7,"action_noise":0.1,"location_history":"[7,6,4,0,3,4,0,2]","action_history":"[0,1,1,1,1,1,0]","door_history":"[1,0,0,0,0,0,1]","location_rts":"[1787,80,213,437,343,383,65]","trial_type":"two-door-navigation","trial_index":28,"time_elapsed":557061,"internal_node_id":"0.0-2.0-26.0"},{"group":"tri cycles (cube, non-group)","room_assignment":["brown","pink","grey","green","blue","purple","red","yellow"],"door_color_assignment":["black","white"],"door_generator_assignment":[1,0],"goal":1,"start":2,"action_noise":0.1,"location_history":"[2,1]","action_history":"[0]","door_history":"[1]","location_rts":"[858]","trial_type":"two-door-navigation","trial_index":29,"time_elapsed":562441,"internal_node_id":"0.0-2.0-27.0"},{"group":"tri cycles (cube, non-group)","room_assignment":["brown","pink","grey","green","blue","purple","red","yellow"],"door_color_assignment":["black","white"],"door_generator_assignment":[1,0],"goal":5,"start":1,"action_noise":0.1,"location_history":"[1,5]","action_history":"[1]","door_history":"[0]","location_rts":"[1266]","trial_type":"two-door-navigation","trial_index":30,"time_elapsed":568230,"internal_node_id":"0.0-2.0-28.0"},{"group":"tri cycles (cube, non-group)","room_assignment":["brown","pink","grey","green","blue","purple","red","yellow"],"door_color_assignment":["black","white"],"door_generator_assignment":[1,0],"goal":4,"start":5,"action_noise":0.1,"location_history":"[5,1,5,2,6,5,1,5,1,0,3,7,3,4]","action_history":"[0,1,1,1,1,0,1,0,0,1,1,1,1]","door_history":"[1,0,0,0,0,1,0,1,1,0,0,0,0]","location_rts":"[6662,46,350,294,291,380,319,272,650,292,238,287,350]","trial_type":"two-door-navigation","trial_index":31,"time_elapsed":595409,"internal_node_id":"0.0-2.0-29.0"},{"group":"tri cycles (cube, non-group)","room_assignment":["brown","pink","grey","green","blue","purple","red","yellow"],"door_color_assignment":["black","white"],"door_generator_assignment":[1,0],"goal":6,"start":4,"action_noise":0.1,"location_history":"[4,0,3,4,7,3,4,0,2,6]","action_history":"[1,1,1,0,1,1,1,0,1]","door_history":"[0,0,0,1,0,0,0,1,0]","location_rts":"[1932,322,331,741,104,281,272,1024,224]","trial_type":"two-door-navigation","trial_index":32,"time_elapsed":613326,"internal_node_id":"0.0-2.0-30.0"},{"group":"tri cycles (cube, non-group)","room_assignment":["brown","pink","grey","green","blue","purple","red","yellow"],"door_color_assignment":["black","white"],"door_generator_assignment":[1,0],"goal":4,"start":6,"action_noise":0.1,"location_history":"[6,4]","action_history":"[0]","door_history":"[1]","location_rts":"[1964]","trial_type":"two-door-navigation","trial_index":33,"time_elapsed":619814,"internal_node_id":"0.0-2.0-31.0"},{"group":"tri cycles (cube, non-group)","room_assignment":["brown","pink","grey","green","blue","purple","red","yellow"],"door_color_assignment":["black","white"],"door_generator_assignment":[1,0],"goal":2,"start":4,"action_noise":0.1,"location_history":"[4,7,3,4,0,2]","action_history":"[0,1,1,1,0]","door_history":"[1,0,0,0,1]","location_rts":"[1416,130,252,304,327]","trial_type":"two-door-navigation","trial_index":34,"time_elapsed":630839,"internal_node_id":"0.0-2.0-32.0"},{"group":"tri cycles (cube, non-group)","room_assignment":["brown","pink","grey","green","blue","purple","red","yellow"],"door_color_assignment":["black","white"],"door_generator_assignment":[1,0],"goal":0,"start":2,"action_noise":0.1,"location_history":"[2,1,0]","action_history":"[0,1]","door_history":"[1,0]","location_rts":"[709,560]","trial_type":"two-door-navigation","trial_index":35,"time_elapsed":637643,"internal_node_id":"0.0-2.0-33.0"},{"group":"tri cycles (cube, non-group)","room_assignment":["brown","pink","grey","green","blue","purple","red","yellow"],"door_color_assignment":["black","white"],"door_generator_assignment":[1,0],"goal":5,"start":0,"action_noise":0.1,"location_history":"[0,3,4,0,3,4,7,6,5]","action_history":"[0,1,1,1,1,1,0,1]","door_history":"[1,0,0,0,0,0,1,0]","location_rts":"[1370,542,351,300,310,347,162,286]","trial_type":"two-door-navigation","trial_index":36,"time_elapsed":652951,"internal_node_id":"0.0-2.0-34.0"},{"group":"tri cycles (cube, non-group)","room_assignment":["brown","pink","grey","green","blue","purple","red","yellow"],"door_color_assignment":["black","white"],"door_generator_assignment":[1,0],"goal":1,"start":5,"action_noise":0.1,"location_history":"[5,1]","action_history":"[0]","door_history":"[1]","location_rts":"[1301]","trial_type":"two-door-navigation","trial_index":37,"time_elapsed":658772,"internal_node_id":"0.0-2.0-35.0"},{"group":"tri cycles (cube, non-group)","room_assignment":["brown","pink","grey","green","blue","purple","red","yellow"],"door_color_assignment":["black","white"],"door_generator_assignment":[1,0],"goal":7,"start":1,"action_noise":0.1,"location_history":"[1,0,2,6,4,7]","action_history":"[0,0,1,0,0]","door_history":"[1,1,0,1,1]","location_rts":"[1287,4348,508,576,272]","trial_type":"two-door-navigation","trial_index":38,"time_elapsed":674357,"internal_node_id":"0.0-2.0-36.0"},{"group":"tri cycles (cube, non-group)","room_assignment":["brown","pink","grey","green","blue","purple","red","yellow"],"door_color_assignment":["black","white"],"door_generator_assignment":[1,0],"goal":3,"start":7,"action_noise":0.1,"location_history":"[7,3]","action_history":"[1]","door_history":"[0]","location_rts":"[3230]","trial_type":"two-door-navigation","trial_index":39,"time_elapsed":682111,"internal_node_id":"0.0-2.0-37.0"},{"group":"tri cycles (cube, non-group)","room_assignment":["brown","pink","grey","green","blue","purple","red","yellow"],"door_color_assignment":["black","white"],"door_generator_assignment":[1,0],"goal":6,"start":3,"action_noise":0.1,"location_history":"[3,4,0,3,4,0,2,6]","action_history":"[1,1,1,1,1,0,1]","door_history":"[0,0,0,0,0,1,0]","location_rts":"[949,258,337,317,396,317,112]","trial_type":"two-door-navigation","trial_index":40,"time_elapsed":695428,"internal_node_id":"0.0-2.0-38.0"},{"group":"tri cycles (cube, non-group)","room_assignment":["brown","pink","grey","green","blue","purple","red","yellow"],"door_color_assignment":["black","white"],"door_generator_assignment":[1,0],"goal":2,"start":6,"action_noise":0.1,"location_history":"[6,4,0,2]","action_history":"[0,0,0]","door_history":"[1,1,1]","location_rts":"[1366,289,274]","trial_type":"two-door-navigation","trial_index":41,"time_elapsed":703918,"internal_node_id":"0.0-2.0-39.0"},{"group":"tri cycles (cube, non-group)","room_assignment":["brown","pink","grey","green","blue","purple","red","yellow"],"door_color_assignment":["black","white"],"door_generator_assignment":[1,0],"goal":1,"start":2,"action_noise":0.1,"location_history":"[2,1]","action_history":"[0]","door_history":"[1]","location_rts":"[1140]","trial_type":"two-door-navigation","trial_index":42,"time_elapsed":709581,"internal_node_id":"0.0-2.0-40.0"},{"group":"tri cycles (cube, non-group)","room_assignment":["brown","pink","grey","green","blue","purple","red","yellow"],"door_color_assignment":["black","white"],"door_generator_assignment":[1,0],"goal":0,"start":1,"action_noise":0.1,"location_history":"[1,0]","action_history":"[0]","door_history":"[1]","location_rts":"[836]","trial_type":"two-door-navigation","trial_index":43,"time_elapsed":714937,"internal_node_id":"0.0-2.0-41.0"},{"group":"tri cycles (cube, non-group)","room_assignment":["brown","pink","grey","green","blue","purple","red","yellow"],"door_color_assignment":["black","white"],"door_generator_assignment":[1,0],"goal":4,"start":0,"action_noise":0.1,"location_history":"[0,3,4]","action_history":"[1,1]","door_history":"[0,0]","location_rts":"[2657,277]","trial_type":"two-door-navigation","trial_index":44,"time_elapsed":723415,"internal_node_id":"0.0-2.0-42.0"},{"group":"tri cycles (cube, non-group)","room_assignment":["brown","pink","grey","green","blue","purple","red","yellow"],"door_color_assignment":["black","white"],"door_generator_assignment":[1,0],"goal":6,"start":4,"action_noise":0.1,"location_history":"[4,7,6]","action_history":"[0,0]","door_history":"[1,1]","location_rts":"[1804,448]","trial_type":"two-door-navigation","trial_index":45,"time_elapsed":731205,"internal_node_id":"0.0-2.0-43.0"},{"group":"tri cycles (cube, non-group)","room_assignment":["brown","pink","grey","green","blue","purple","red","yellow"],"door_color_assignment":["black","white"],"door_generator_assignment":[1,0],"goal":3,"start":6,"action_noise":0.1,"location_history":"[6,4,0,3]","action_history":"[0,1,1]","door_history":"[1,0,0]","location_rts":"[1668,69,239]","trial_type":"two-door-navigation","trial_index":46,"time_elapsed":739749,"internal_node_id":"0.0-2.0-44.0"},{"group":"tri cycles (cube, non-group)","room_assignment":["brown","pink","grey","green","blue","purple","red","yellow"],"door_color_assignment":["black","white"],"door_generator_assignment":[1,0],"goal":7,"start":3,"action_noise":0.1,"location_history":"[3,7]","action_history":"[0]","door_history":"[1]","location_rts":"[1988]","trial_type":"two-door-navigation","trial_index":47,"time_elapsed":746258,"internal_node_id":"0.0-2.0-45.0"},{"group":"tri cycles (cube, non-group)","room_assignment":["brown","pink","grey","green","blue","purple","red","yellow"],"door_color_assignment":["black","white"],"door_generator_assignment":[1,0],"goal":5,"start":7,"action_noise":0.1,"location_history":"[7,6,5]","action_history":"[0,1]","door_history":"[1,0]","location_rts":"[1865,289]","trial_type":"two-door-navigation","trial_index":48,"time_elapsed":753955,"internal_node_id":"0.0-2.0-46.0"},{"group":"tri cycles (cube, non-group)","room_assignment":["brown","pink","grey","green","blue","purple","red","yellow"],"door_color_assignment":["black","white"],"door_generator_assignment":[1,0],"goal":1,"start":5,"action_noise":0.1,"location_history":"[5,1]","action_history":"[0]","door_history":"[1]","location_rts":"[789]","trial_type":"two-door-navigation","trial_index":49,"time_elapsed":759266,"internal_node_id":"0.0-2.0-47.0"},{"group":"tri cycles (cube, non-group)","room_assignment":["brown","pink","grey","green","blue","purple","red","yellow"],"door_color_assignment":["black","white"],"door_generator_assignment":[1,0],"goal":6,"start":1,"action_noise":0.1,"location_history":"[1,5,2,6]","action_history":"[1,1,1]","door_history":"[0,0,0]","location_rts":"[1889,339,278]","trial_type":"two-door-navigation","trial_index":50,"time_elapsed":768333,"internal_node_id":"0.0-2.0-48.0"},{"group":"tri cycles (cube, non-group)","room_assignment":["brown","pink","grey","green","blue","purple","red","yellow"],"door_color_assignment":["black","white"],"door_generator_assignment":[1,0],"goal":0,"start":6,"action_noise":0.1,"location_history":"[6,4,0]","action_history":"[0,1]","door_history":"[1,0]","location_rts":"[1470,352]","trial_type":"two-door-navigation","trial_index":51,"time_elapsed":775697,"internal_node_id":"0.0-2.0-49.0"},{"view_history":"[{\"page_index\":0,\"viewing_time\":2035}]","rt":2035,"trial_type":"instructions","trial_index":52,"time_elapsed":778732,"internal_node_id":"0.0-3.0"},{"view_history":"[{\"page_index\":0,\"viewing_time\":3911},{\"page_index\":1,\"viewing_time\":11776}]","rt":15687,"trial_type":"instructions","trial_index":53,"time_elapsed":795419,"internal_node_id":"0.0-4.0"},{"group":"square cycles (cube, non-group)","fractal_assignment":["../images/pnk_blu.png","../images/gry_blk.png","../images/org_blu.png","../images/ylw_slt.png","../images/cyn_red.png","../images/grn_red.png","../images/ylw_pnk.png","../images/blu_wht.png"],"mutagen_generator_assignment":[0,1],"goal":6,"start":3,"action_noise":0.1,"location_history":"[3,2,3,2,6]","action_history":"[1,1,1,1]","mutagen_history":"[1,1,1,1]","location_rts":"[11821,440,497,483]","trial_type":"fractal-mutation","trial_index":54,"time_elapsed":816391,"internal_node_id":"0.0-5.0-0.0"},{"group":"square cycles (cube, non-group)","fractal_assignment":["../images/pnk_blu.png","../images/gry_blk.png","../images/org_blu.png","../images/ylw_slt.png","../images/cyn_red.png","../images/grn_red.png","../images/ylw_pnk.png","../images/blu_wht.png"],"mutagen_generator_assignment":[0,1],"goal":1,"start":6,"action_noise":0.1,"location_history":"[6,5,4,5,1]","action_history":"[0,0,0,1]","mutagen_history":"[0,0,0,1]","location_rts":"[1346,402,482,551]","trial_type":"fractal-mutation","trial_index":55,"time_elapsed":826858,"internal_node_id":"0.0-5.0-1.0"},{"group":"square cycles (cube, non-group)","fractal_assignment":["../images/pnk_blu.png","../images/gry_blk.png","../images/org_blu.png","../images/ylw_slt.png","../images/cyn_red.png","../images/grn_red.png","../images/ylw_pnk.png","../images/blu_wht.png"],"mutagen_generator_assignment":[0,1],"goal":2,"start":1,"action_noise":0.1,"location_history":"[1,0,4,5,4,5,1,0,4,5,4,7,6,7,6,5,4,7,3,2]","action_history":"[1,1,1,0,1,1,1,1,1,0,0,0,1,0,0,0,0,1,1]","mutagen_history":"[1,1,1,0,1,1,1,1,1,0,0,0,1,0,0,0,0,1,1]","location_rts":"[703,340,364,448,255,132,387,465,356,365,387,412,630,467,936,477,413,458,254]","trial_type":"fractal-mutation","trial_index":56,"time_elapsed":858386,"internal_node_id":"0.0-5.0-2.0"},{"group":"square cycles (cube, non-group)","fractal_assignment":["../images/pnk_blu.png","../images/gry_blk.png","../images/org_blu.png","../images/ylw_slt.png","../images/cyn_red.png","../images/grn_red.png","../images/ylw_pnk.png","../images/blu_wht.png"],"mutagen_generator_assignment":[0,1],"goal":0,"start":2,"action_noise":0.1,"location_history":"[2,6,5,4,7,6,7,3,2,6,7,3,0]","action_history":"[1,0,0,1,1,1,1,1,1,1,0,0]","mutagen_history":"[1,0,0,1,1,1,1,1,1,1,0,0]","location_rts":"[844,334,321,455,322,357,343,456,287,380,665,419]","trial_type":"fractal-mutation","trial_index":57,"time_elapsed":879595,"internal_node_id":"0.0-5.0-3.0"},{"group":"square cycles (cube, non-group)","fractal_assignment":["../images/pnk_blu.png","../images/gry_blk.png","../images/org_blu.png","../images/ylw_slt.png","../images/cyn_red.png","../images/grn_red.png","../images/ylw_pnk.png","../images/blu_wht.png"],"mutagen_generator_assignment":[0,1],"goal":7,"start":0,"action_noise":0.1,"location_history":"[0,4,5,4,7]","action_history":"[1,1,0,0]","mutagen_history":"[1,1,0,0]","location_rts":"[3780,362,243,229]","trial_type":"fractal-mutation","trial_index":58,"time_elapsed":891889,"internal_node_id":"0.0-5.0-4.0"},{"group":"square cycles (cube, non-group)","fractal_assignment":["../images/pnk_blu.png","../images/gry_blk.png","../images/org_blu.png","../images/ylw_slt.png","../images/cyn_red.png","../images/grn_red.png","../images/ylw_pnk.png","../images/blu_wht.png"],"mutagen_generator_assignment":[0,1],"goal":5,"start":7,"action_noise":0.1,"location_history":"[7,6,5]","action_history":"[0,0]","mutagen_history":"[0,0]","location_rts":"[1004,445]","trial_type":"fractal-mutation","trial_index":59,"time_elapsed":898912,"internal_node_id":"0.0-5.0-5.0"},{"group":"square cycles (cube, non-group)","fractal_assignment":["../images/pnk_blu.png","../images/gry_blk.png","../images/org_blu.png","../images/ylw_slt.png","../images/cyn_red.png","../images/grn_red.png","../images/ylw_pnk.png","../images/blu_wht.png"],"mutagen_generator_assignment":[0,1],"goal":4,"start":5,"action_noise":0.1,"location_history":"[5,1,0,1,2,3,2,6,5,4]","action_history":"[0,0,0,0,0,1,0,0,0]","mutagen_history":"[0,0,0,0,0,1,0,0,0]","location_rts":"[1320,415,403,464,866,490,446,299,437]","trial_type":"fractal-mutation","trial_index":60,"time_elapsed":916884,"internal_node_id":"0.0-5.0-6.0"},{"group":"square cycles (cube, non-group)","fractal_assignment":["../images/pnk_blu.png","../images/gry_blk.png","../images/org_blu.png","../images/ylw_slt.png","../images/cyn_red.png","../images/grn_red.png","../images/ylw_pnk.png","../images/blu_wht.png"],"mutagen_generator_assignment":[0,1],"goal":2,"start":4,"action_noise":0.1,"location_history":"[4,5,1,0,4,7,3,2]","action_history":"[1,1,1,1,0,1,1]","mutagen_history":"[1,1,1,1,0,1,1]","location_rts":"[2318,250,360,371,449,521,437]","trial_type":"fractal-mutation","trial_index":61,"time_elapsed":932448,"internal_node_id":"0.0-5.0-7.0"},{"group":"square cycles (cube, non-group)","fractal_assignment":["../images/pnk_blu.png","../images/gry_blk.png","../images/org_blu.png","../images/ylw_slt.png","../images/cyn_red.png","../images/grn_red.png","../images/ylw_pnk.png","../images/blu_wht.png"],"mutagen_generator_assignment":[0,1],"goal":3,"start":2,"action_noise":0.1,"location_history":"[2,6,7,3]","action_history":"[1,1,1]","mutagen_history":"[1,1,1]","location_rts":"[117,417,365]","trial_type":"fractal-mutation","trial_index":62,"time_elapsed":940008,"internal_node_id":"0.0-5.0-8.0"},{"group":"square cycles (cube, non-group)","fractal_assignment":["../images/pnk_blu.png","../images/gry_blk.png","../images/org_blu.png","../images/ylw_slt.png","../images/cyn_red.png","../images/grn_red.png","../images/ylw_pnk.png","../images/blu_wht.png"],"mutagen_generator_assignment":[0,1],"goal":7,"start":3,"action_noise":0.1,"location_history":"[3,0,1,2,6,7]","action_history":"[0,0,0,1,1]","mutagen_history":"[0,0,0,1,1]","location_rts":"[910,474,476,678,221]","trial_type":"fractal-mutation","trial_index":63,"time_elapsed":951475,"internal_node_id":"0.0-5.0-9.0"},{"group":"square cycles (cube, non-group)","fractal_assignment":["../images/pnk_blu.png","../images/gry_blk.png","../images/org_blu.png","../images/ylw_slt.png","../images/cyn_red.png","../images/grn_red.png","../images/ylw_pnk.png","../images/blu_wht.png"],"mutagen_generator_assignment":[0,1],"goal":0,"start":7,"action_noise":0.1,"location_history":"[7,6,5,4,7,3,2,6,7,3,0]","action_history":"[0,1,0,0,1,1,1,1,1,0]","mutagen_history":"[0,1,0,0,1,1,1,1,1,0]","location_rts":"[1108,407,241,412,537,286,160,315,785,217]","trial_type":"fractal-mutation","trial_index":64,"time_elapsed":969862,"internal_node_id":"0.0-5.0-10.0"},{"group":"square cycles (cube, non-group)","fractal_assignment":["../images/pnk_blu.png","../images/gry_blk.png","../images/org_blu.png","../images/ylw_slt.png","../images/cyn_red.png","../images/grn_red.png","../images/ylw_pnk.png","../images/blu_wht.png"],"mutagen_generator_assignment":[0,1],"goal":1,"start":0,"action_noise":0.1,"location_history":"[0,1]","action_history":"[0]","mutagen_history":"[0]","location_rts":"[1331]","trial_type":"fractal-mutation","trial_index":65,"time_elapsed":975731,"internal_node_id":"0.0-5.0-11.0"},{"group":"square cycles (cube, non-group)","fractal_assignment":["../images/pnk_blu.png","../images/gry_blk.png","../images/org_blu.png","../images/ylw_slt.png","../images/cyn_red.png","../images/grn_red.png","../images/ylw_pnk.png","../images/blu_wht.png"],"mutagen_generator_assignment":[0,1],"goal":6,"start":1,"action_noise":0.1,"location_history":"[1,0,4,5,1,0,1,2,6]","action_history":"[1,1,1,1,1,0,0,1]","mutagen_history":"[1,1,1,1,1,0,0,1]","location_rts":"[2507,370,388,424,455,281,443,854]","trial_type":"fractal-mutation","trial_index":66,"time_elapsed":993269,"internal_node_id":"0.0-5.0-12.0"},{"group":"square cycles (cube, non-group)","fractal_assignment":["../images/pnk_blu.png","../images/gry_blk.png","../images/org_blu.png","../images/ylw_slt.png","../images/cyn_red.png","../images/grn_red.png","../images/ylw_pnk.png","../images/blu_wht.png"],"mutagen_generator_assignment":[0,1],"goal":4,"start":6,"action_noise":0.1,"location_history":"[6,5,1,2,3,0,1,0,4]","action_history":"[0,1,0,0,0,0,0,0]","mutagen_history":"[0,1,0,0,0,0,0,0]","location_rts":"[905,561,263,457,390,444,376,357]","trial_type":"fractal-mutation","trial_index":67,"time_elapsed":1008820,"internal_node_id":"0.0-5.0-13.0"},{"group":"square cycles (cube, non-group)","fractal_assignment":["../images/pnk_blu.png","../images/gry_blk.png","../images/org_blu.png","../images/ylw_slt.png","../images/cyn_red.png","../images/grn_red.png","../images/ylw_pnk.png","../images/blu_wht.png"],"mutagen_generator_assignment":[0,1],"goal":5,"start":4,"action_noise":0.1,"location_history":"[4,7,6,5]","action_history":"[0,0,0]","mutagen_history":"[0,0,0]","location_rts":"[1306,370,605]","trial_type":"fractal-mutation","trial_index":68,"time_elapsed":1017731,"internal_node_id":"0.0-5.0-14.0"},{"group":"square cycles (cube, non-group)","fractal_assignment":["../images/pnk_blu.png","../images/gry_blk.png","../images/org_blu.png","../images/ylw_slt.png","../images/cyn_red.png","../images/grn_red.png","../images/ylw_pnk.png","../images/blu_wht.png"],"mutagen_generator_assignment":[0,1],"goal":4,"start":5,"action_noise":0.1,"location_history":"[5,4]","action_history":"[0]","mutagen_history":"[0]","location_rts":"[923]","trial_type":"fractal-mutation","trial_index":69,"time_elapsed":1023216,"internal_node_id":"0.0-5.0-15.0"},{"group":"square cycles (cube, non-group)","fractal_assignment":["../images/pnk_blu.png","../images/gry_blk.png","../images/org_blu.png","../images/ylw_slt.png","../images/cyn_red.png","../images/grn_red.png","../images/ylw_pnk.png","../images/blu_wht.png"],"mutagen_generator_assignment":[0,1],"goal":0,"start":4,"action_noise":0.1,"location_history":"[4,7,6,5,1,2,3,2,3,0]","action_history":"[0,0,0,1,0,0,1,0,0]","mutagen_history":"[0,0,0,1,0,0,1,0,0]","location_rts":"[614,232,558,480,341,337,694,318,321]","trial_type":"fractal-mutation","trial_index":70,"time_elapsed":1039939,"internal_node_id":"0.0-5.0-16.0"},{"group":"square cycles (cube, non-group)","fractal_assignment":["../images/pnk_blu.png","../images/gry_blk.png","../images/org_blu.png","../images/ylw_slt.png","../images/cyn_red.png","../images/grn_red.png","../images/ylw_pnk.png","../images/blu_wht.png"],"mutagen_generator_assignment":[0,1],"goal":7,"start":0,"action_noise":0.1,"location_history":"[0,4,7]","action_history":"[0,0]","mutagen_history":"[0,0]","location_rts":"[1587,317]","trial_type":"fractal-mutation","trial_index":71,"time_elapsed":1047428,"internal_node_id":"0.0-5.0-17.0"},{"group":"square cycles (cube, non-group)","fractal_assignment":["../images/pnk_blu.png","../images/gry_blk.png","../images/org_blu.png","../images/ylw_slt.png","../images/cyn_red.png","../images/grn_red.png","../images/ylw_pnk.png","../images/blu_wht.png"],"mutagen_generator_assignment":[0,1],"goal":2,"start":7,"action_noise":0.1,"location_history":"[7,3,0,4,5,1,0,1,2]","action_history":"[1,1,1,1,1,1,1,0]","mutagen_history":"[1,1,1,1,1,1,1,0]","location_rts":"[1327,357,468,368,368,393,604,330]","trial_type":"fractal-mutation","trial_index":72,"time_elapsed":1063485,"internal_node_id":"0.0-5.0-18.0"},{"group":"square cycles (cube, non-group)","fractal_assignment":["../images/pnk_blu.png","../images/gry_blk.png","../images/org_blu.png","../images/ylw_slt.png","../images/cyn_red.png","../images/grn_red.png","../images/ylw_pnk.png","../images/blu_wht.png"],"mutagen_generator_assignment":[0,1],"goal":1,"start":2,"action_noise":0.1,"location_history":"[2,3,0,1]","action_history":"[0,0,0]","mutagen_history":"[0,0,0]","location_rts":"[912,379,386]","trial_type":"fractal-mutation","trial_index":73,"time_elapsed":1071773,"internal_node_id":"0.0-5.0-19.0"},{"group":"square cycles (cube, non-group)","fractal_assignment":["../images/pnk_blu.png","../images/gry_blk.png","../images/org_blu.png","../images/ylw_slt.png","../images/cyn_red.png","../images/grn_red.png","../images/ylw_pnk.png","../images/blu_wht.png"],"mutagen_generator_assignment":[0,1],"goal":3,"start":1,"action_noise":0.1,"location_history":"[1,2,6,7,3]","action_history":"[0,1,1,1]","mutagen_history":"[0,1,1,1]","location_rts":"[1403,273,277,195]","trial_type":"fractal-mutation","trial_index":74,"time_elapsed":1081591,"internal_node_id":"0.0-5.0-20.0"},{"group":"square cycles (cube, non-group)","fractal_assignment":["../images/pnk_blu.png","../images/gry_blk.png","../images/org_blu.png","../images/ylw_slt.png","../images/cyn_red.png","../images/grn_red.png","../images/ylw_pnk.png","../images/blu_wht.png"],"mutagen_generator_assignment":[0,1],"goal":6,"start":3,"action_noise":0.1,"location_history":"[3,2,6]","action_history":"[1,1]","mutagen_history":"[1,1]","location_rts":"[1131,787]","trial_type":"fractal-mutation","trial_index":75,"time_elapsed":1089087,"internal_node_id":"0.0-5.0-21.0"},{"group":"square cycles (cube, non-group)","fractal_assignment":["../images/pnk_blu.png","../images/gry_blk.png","../images/org_blu.png","../images/ylw_slt.png","../images/cyn_red.png","../images/grn_red.png","../images/ylw_pnk.png","../images/blu_wht.png"],"mutagen_generator_assignment":[0,1],"goal":5,"start":6,"action_noise":0.1,"location_history":"[6,7,6,5]","action_history":"[1,0,0]","mutagen_history":"[1,0,0]","location_rts":"[580,289,117]","trial_type":"fractal-mutation","trial_index":76,"time_elapsed":1096735,"internal_node_id":"0.0-5.0-22.0"},{"group":"square cycles (cube, non-group)","fractal_assignment":["../images/pnk_blu.png","../images/gry_blk.png","../images/org_blu.png","../images/ylw_slt.png","../images/cyn_red.png","../images/grn_red.png","../images/ylw_pnk.png","../images/blu_wht.png"],"mutagen_generator_assignment":[0,1],"goal":3,"start":5,"action_noise":0.1,"location_history":"[5,4,7,3]","action_history":"[0,0,1]","mutagen_history":"[0,0,1]","location_rts":"[1327,535,670]","trial_type":"fractal-mutation","trial_index":77,"time_elapsed":1105884,"internal_node_id":"0.0-5.0-23.0"},{"group":"square cycles (cube, non-group)","fractal_assignment":["../images/pnk_blu.png","../images/gry_blk.png","../images/org_blu.png","../images/ylw_slt.png","../images/cyn_red.png","../images/grn_red.png","../images/ylw_pnk.png","../images/blu_wht.png"],"mutagen_generator_assignment":[0,1],"goal":0,"start":3,"action_noise":0.1,"location_history":"[3,0]","action_history":"[0]","mutagen_history":"[0]","location_rts":"[1182]","trial_type":"fractal-mutation","trial_index":78,"time_elapsed":1111624,"internal_node_id":"0.0-5.0-24.0"},{"group":"square cycles (cube, non-group)","fractal_assignment":["../images/pnk_blu.png","../images/gry_blk.png","../images/org_blu.png","../images/ylw_slt.png","../images/cyn_red.png","../images/grn_red.png","../images/ylw_pnk.png","../images/blu_wht.png"],"mutagen_generator_assignment":[0,1],"goal":7,"start":0,"action_noise":0.1,"location_history":"[0,1,2,3,0,4,7]","action_history":"[0,0,0,0,1,0]","mutagen_history":"[0,0,0,0,1,0]","location_rts":"[1041,382,585,1193,682,234]","trial_type":"fractal-mutation","trial_index":79,"time_elapsed":1125478,"internal_node_id":"0.0-5.0-25.0"},{"group":"square cycles (cube, non-group)","fractal_assignment":["../images/pnk_blu.png","../images/gry_blk.png","../images/org_blu.png","../images/ylw_slt.png","../images/cyn_red.png","../images/grn_red.png","../images/ylw_pnk.png","../images/blu_wht.png"],"mutagen_generator_assignment":[0,1],"goal":2,"start":7,"action_noise":0.1,"location_history":"[7,3,2]","action_history":"[1,1]","mutagen_history":"[1,1]","location_rts":"[1372,416]","trial_type":"fractal-mutation","trial_index":80,"time_elapsed":1132882,"internal_node_id":"0.0-5.0-26.0"},{"group":"square cycles (cube, non-group)","fractal_assignment":["../images/pnk_blu.png","../images/gry_blk.png","../images/org_blu.png","../images/ylw_slt.png","../images/cyn_red.png","../images/grn_red.png","../images/ylw_pnk.png","../images/blu_wht.png"],"mutagen_generator_assignment":[0,1],"goal":1,"start":2,"action_noise":0.1,"location_history":"[2,3,0,1]","action_history":"[0,0,0]","mutagen_history":"[0,0,0]","location_rts":"[1387,425,405]","trial_type":"fractal-mutation","trial_index":81,"time_elapsed":1141725,"internal_node_id":"0.0-5.0-27.0"},{"group":"square cycles (cube, non-group)","fractal_assignment":["../images/pnk_blu.png","../images/gry_blk.png","../images/org_blu.png","../images/ylw_slt.png","../images/cyn_red.png","../images/grn_red.png","../images/ylw_pnk.png","../images/blu_wht.png"],"mutagen_generator_assignment":[0,1],"goal":5,"start":1,"action_noise":0.1,"location_history":"[1,2,6,5]","action_history":"[0,0,0]","mutagen_history":"[0,0,0]","location_rts":"[1342,433,460]","trial_type":"fractal-mutation","trial_index":82,"time_elapsed":1150579,"internal_node_id":"0.0-5.0-28.0"},{"group":"square cycles (cube, non-group)","fractal_assignment":["../images/pnk_blu.png","../images/gry_blk.png","../images/org_blu.png","../images/ylw_slt.png","../images/cyn_red.png","../images/grn_red.png","../images/ylw_pnk.png","../images/blu_wht.png"],"mutagen_generator_assignment":[0,1],"goal":4,"start":5,"action_noise":0.1,"location_history":"[5,4]","action_history":"[0]","mutagen_history":"[0]","location_rts":"[744]","trial_type":"fractal-mutation","trial_index":83,"time_elapsed":1155869,"internal_node_id":"0.0-5.0-29.0"},{"group":"square cycles (cube, non-group)","fractal_assignment":["../images/pnk_blu.png","../images/gry_blk.png","../images/org_blu.png","../images/ylw_slt.png","../images/cyn_red.png","../images/grn_red.png","../images/ylw_pnk.png","../images/blu_wht.png"],"mutagen_generator_assignment":[0,1],"goal":6,"start":4,"action_noise":0.1,"location_history":"[4,7,3,2,6]","action_history":"[0,1,1,1]","mutagen_history":"[0,1,1,1]","location_rts":"[1273,884,128,233]","trial_type":"fractal-mutation","trial_index":84,"time_elapsed":1166080,"internal_node_id":"0.0-5.0-30.0"},{"group":"square cycles (cube, non-group)","fractal_assignment":["../images/pnk_blu.png","../images/gry_blk.png","../images/org_blu.png","../images/ylw_slt.png","../images/cyn_red.png","../images/grn_red.png","../images/ylw_pnk.png","../images/blu_wht.png"],"mutagen_generator_assignment":[0,1],"goal":4,"start":6,"action_noise":0.1,"location_history":"[6,5,4]","action_history":"[0,0]","mutagen_history":"[0,0]","location_rts":"[922,382]","trial_type":"fractal-mutation","trial_index":85,"time_elapsed":1172982,"internal_node_id":"0.0-5.0-31.0"},{"group":"square cycles (cube, non-group)","fractal_assignment":["../images/pnk_blu.png","../images/gry_blk.png","../images/org_blu.png","../images/ylw_slt.png","../images/cyn_red.png","../images/grn_red.png","../images/ylw_pnk.png","../images/blu_wht.png"],"mutagen_generator_assignment":[0,1],"goal":2,"start":4,"action_noise":0.1,"location_history":"[4,7,3,0,4,7,3,2]","action_history":"[0,1,1,1,0,1,1]","mutagen_history":"[0,1,1,1,0,1,1]","location_rts":"[1744,464,358,422,338,582,357]","trial_type":"fractal-mutation","trial_index":86,"time_elapsed":1188018,"internal_node_id":"0.0-5.0-32.0"},{"group":"square cycles (cube, non-group)","fractal_assignment":["../images/pnk_blu.png","../images/gry_blk.png","../images/org_blu.png","../images/ylw_slt.png","../images/cyn_red.png","../images/grn_red.png","../images/ylw_pnk.png","../images/blu_wht.png"],"mutagen_generator_assignment":[0,1],"goal":0,"start":2,"action_noise":0.1,"location_history":"[2,3,0]","action_history":"[0,0]","mutagen_history":"[0,0]","location_rts":"[1125,446]","trial_type":"fractal-mutation","trial_index":87,"time_elapsed":1195176,"internal_node_id":"0.0-5.0-33.0"},{"group":"square cycles (cube, non-group)","fractal_assignment":["../images/pnk_blu.png","../images/gry_blk.png","../images/org_blu.png","../images/ylw_slt.png","../images/cyn_red.png","../images/grn_red.png","../images/ylw_pnk.png","../images/blu_wht.png"],"mutagen_generator_assignment":[0,1],"goal":5,"start":0,"action_noise":0.1,"location_history":"[0,1,2,3,0,1,2,3,0,1,0,1,0,4,7,6,5]","action_history":"[0,0,0,0,0,0,0,0,0,1,0,1,1,1,0,0]","mutagen_history":"[0,0,0,0,0,0,0,0,0,1,0,1,1,1,0,0]","location_rts":"[891,398,447,1025,171,173,382,415,452,422,240,372,252,563,684,461]","trial_type":"fractal-mutation","trial_index":88,"time_elapsed":1222661,"internal_node_id":"0.0-5.0-34.0"},{"group":"square cycles (cube, non-group)","fractal_assignment":["../images/pnk_blu.png","../images/gry_blk.png","../images/org_blu.png","../images/ylw_slt.png","../images/cyn_red.png","../images/grn_red.png","../images/ylw_pnk.png","../images/blu_wht.png"],"mutagen_generator_assignment":[0,1],"goal":1,"start":5,"action_noise":0.1,"location_history":"[5,4,7,6,5,4,7,6,7,6,7,6,7,3,2,6,7,6,5,4,7,6,5,1]","action_history":"[0,0,0,0,0,0,0,1,1,1,0,1,1,1,1,1,0,0,0,0,0,1,1]","mutagen_history":"[0,0,0,0,0,0,0,1,1,1,0,1,1,1,1,1,0,0,0,0,0,1,1]","location_rts":"[1076,362,462,394,423,477,502,178,754,537,204,478,452,797,472,551,217,308,362,346,440,70,302]","trial_type":"fractal-mutation","trial_index":89,"time_elapsed":1260273,"internal_node_id":"0.0-5.0-35.0"},{"group":"square cycles (cube, non-group)","fractal_assignment":["../images/pnk_blu.png","../images/gry_blk.png","../images/org_blu.png","../images/ylw_slt.png","../images/cyn_red.png","../images/grn_red.png","../images/ylw_pnk.png","../images/blu_wht.png"],"mutagen_generator_assignment":[0,1],"goal":7,"start":1,"action_noise":0.1,"location_history":"[1,2,3,0,4,7]","action_history":"[0,0,0,1,0]","mutagen_history":"[0,0,0,1,0]","location_rts":"[811,207,181,536,457]","trial_type":"fractal-mutation","trial_index":90,"time_elapsed":1271184,"internal_node_id":"0.0-5.0-36.0"},{"group":"square cycles (cube, non-group)","fractal_assignment":["../images/pnk_blu.png","../images/gry_blk.png","../images/org_blu.png","../images/ylw_slt.png","../images/cyn_red.png","../images/grn_red.png","../images/ylw_pnk.png","../images/blu_wht.png"],"mutagen_generator_assignment":[0,1],"goal":3,"start":7,"action_noise":0.1,"location_history":"[7,3]","action_history":"[1]","mutagen_history":"[1]","location_rts":"[1506]","trial_type":"fractal-mutation","trial_index":91,"time_elapsed":1277233,"internal_node_id":"0.0-5.0-37.0"},{"group":"square cycles (cube, non-group)","fractal_assignment":["../images/pnk_blu.png","../images/gry_blk.png","../images/org_blu.png","../images/ylw_slt.png","../images/cyn_red.png","../images/grn_red.png","../images/ylw_pnk.png","../images/blu_wht.png"],"mutagen_generator_assignment":[0,1],"goal":6,"start":3,"action_noise":0.1,"location_history":"[3,2,6]","action_history":"[1,1]","mutagen_history":"[1,1]","location_rts":"[817,94]","trial_type":"fractal-mutation","trial_index":92,"time_elapsed":1283733,"internal_node_id":"0.0-5.0-38.0"},{"group":"square cycles (cube, non-group)","fractal_assignment":["../images/pnk_blu.png","../images/gry_blk.png","../images/org_blu.png","../images/ylw_slt.png","../images/cyn_red.png","../images/grn_red.png","../images/ylw_pnk.png","../images/blu_wht.png"],"mutagen_generator_assignment":[0,1],"goal":2,"start":6,"action_noise":0.1,"location_history":"[6,7,3,2]","action_history":"[1,1,1]","mutagen_history":"[1,1,1]","location_rts":"[928,177,296]","trial_type":"fractal-mutation","trial_index":93,"time_elapsed":1291756,"internal_node_id":"0.0-5.0-39.0"},{"group":"square cycles (cube, non-group)","fractal_assignment":["../images/pnk_blu.png","../images/gry_blk.png","../images/org_blu.png","../images/ylw_slt.png","../images/cyn_red.png","../images/grn_red.png","../images/ylw_pnk.png","../images/blu_wht.png"],"mutagen_generator_assignment":[0,1],"goal":1,"start":2,"action_noise":0.1,"location_history":"[2,6,5,4,7,3,0,1]","action_history":"[1,0,0,0,1,0,0]","mutagen_history":"[1,0,0,0,1,0,0]","location_rts":"[1146,221,519,498,199,465,351]","trial_type":"fractal-mutation","trial_index":94,"time_elapsed":1305957,"internal_node_id":"0.0-5.0-40.0"},{"group":"square cycles (cube, non-group)","fractal_assignment":["../images/pnk_blu.png","../images/gry_blk.png","../images/org_blu.png","../images/ylw_slt.png","../images/cyn_red.png","../images/grn_red.png","../images/ylw_pnk.png","../images/blu_wht.png"],"mutagen_generator_assignment":[0,1],"goal":0,"start":1,"action_noise":0.1,"location_history":"[1,2,6,5,4,7,6,7,3,0]","action_history":"[1,0,0,0,0,0,1,1,0]","mutagen_history":"[1,0,0,0,0,0,1,1,0]","location_rts":"[1970,257,329,386,405,517,329,447,373]","trial_type":"fractal-mutation","trial_index":95,"time_elapsed":1323821,"internal_node_id":"0.0-5.0-41.0"},{"group":"square cycles (cube, non-group)","fractal_assignment":["../images/pnk_blu.png","../images/gry_blk.png","../images/org_blu.png","../images/ylw_slt.png","../images/cyn_red.png","../images/grn_red.png","../images/ylw_pnk.png","../images/blu_wht.png"],"mutagen_generator_assignment":[0,1],"goal":4,"start":0,"action_noise":0.1,"location_history":"[0,1,2,6,7,3,0,4]","action_history":"[0,0,0,1,1,0,1]","mutagen_history":"[0,0,0,1,1,0,1]","location_rts":"[1762,367,521,472,313,433,71]","trial_type":"fractal-mutation","trial_index":96,"time_elapsed":1338549,"internal_node_id":"0.0-5.0-42.0"},{"group":"square cycles (cube, non-group)","fractal_assignment":["../images/pnk_blu.png","../images/gry_blk.png","../images/org_blu.png","../images/ylw_slt.png","../images/cyn_red.png","../images/grn_red.png","../images/ylw_pnk.png","../images/blu_wht.png"],"mutagen_generator_assignment":[0,1],"goal":6,"start":4,"action_noise":0.1,"location_history":"[4,7,3,2,6]","action_history":"[0,1,1,1]","mutagen_history":"[0,1,1,1]","location_rts":"[1477,525,184,365]","trial_type":"fractal-mutation","trial_index":97,"time_elapsed":1348789,"internal_node_id":"0.0-5.0-43.0"},{"group":"square cycles (cube, non-group)","fractal_assignment":["../images/pnk_blu.png","../images/gry_blk.png","../images/org_blu.png","../images/ylw_slt.png","../images/cyn_red.png","../images/grn_red.png","../images/ylw_pnk.png","../images/blu_wht.png"],"mutagen_generator_assignment":[0,1],"goal":3,"start":6,"action_noise":0.1,"location_history":"[6,7,3]","action_history":"[1,1]","mutagen_history":"[1,1]","location_rts":"[1314,117]","trial_type":"fractal-mutation","trial_index":98,"time_elapsed":1355815,"internal_node_id":"0.0-5.0-44.0"},{"group":"square cycles (cube, non-group)","fractal_assignment":["../images/pnk_blu.png","../images/gry_blk.png","../images/org_blu.png","../images/ylw_slt.png","../images/cyn_red.png","../images/grn_red.png","../images/ylw_pnk.png","../images/blu_wht.png"],"mutagen_generator_assignment":[0,1],"goal":7,"start":3,"action_noise":0.1,"location_history":"[3,2,6,7]","action_history":"[1,1,1]","mutagen_history":"[1,1,1]","location_rts":"[1591,120,350]","trial_type":"fractal-mutation","trial_index":99,"time_elapsed":1364547,"internal_node_id":"0.0-5.0-45.0"},{"group":"square cycles (cube, non-group)","fractal_assignment":["../images/pnk_blu.png","../images/gry_blk.png","../images/org_blu.png","../images/ylw_slt.png","../images/cyn_red.png","../images/grn_red.png","../images/ylw_pnk.png","../images/blu_wht.png"],"mutagen_generator_assignment":[0,1],"goal":5,"start":7,"action_noise":0.1,"location_history":"[7,6,5]","action_history":"[0,0]","mutagen_history":"[0,0]","location_rts":"[1642,340]","trial_type":"fractal-mutation","trial_index":100,"time_elapsed":1372094,"internal_node_id":"0.0-5.0-46.0"},{"group":"square cycles (cube, non-group)","fractal_assignment":["../images/pnk_blu.png","../images/gry_blk.png","../images/org_blu.png","../images/ylw_slt.png","../images/cyn_red.png","../images/grn_red.png","../images/ylw_pnk.png","../images/blu_wht.png"],"mutagen_generator_assignment":[0,1],"goal":1,"start":5,"action_noise":0.1,"location_history":"[5,4,5,1]","action_history":"[0,1,1]","mutagen_history":"[0,1,1]","location_rts":"[973,166,971]","trial_type":"fractal-mutation","trial_index":101,"time_elapsed":1380825,"internal_node_id":"0.0-5.0-47.0"},{"group":"square cycles (cube, non-group)","fractal_assignment":["../images/pnk_blu.png","../images/gry_blk.png","../images/org_blu.png","../images/ylw_slt.png","../images/cyn_red.png","../images/grn_red.png","../images/ylw_pnk.png","../images/blu_wht.png"],"mutagen_generator_assignment":[0,1],"goal":6,"start":1,"action_noise":0.1,"location_history":"[1,2,3,2,6]","action_history":"[0,1,1,1]","mutagen_history":"[0,1,1,1]","location_rts":"[1962,815,569,336]","trial_type":"fractal-mutation","trial_index":102,"time_elapsed":1392172,"internal_node_id":"0.0-5.0-48.0"},{"group":"square cycles (cube, non-group)","fractal_assignment":["../images/pnk_blu.png","../images/gry_blk.png","../images/org_blu.png","../images/ylw_slt.png","../images/cyn_red.png","../images/grn_red.png","../images/ylw_pnk.png","../images/blu_wht.png"],"mutagen_generator_assignment":[0,1],"goal":0,"start":6,"action_noise":0.1,"location_history":"[6,5,4,5,4,7,6,7,3,0]","action_history":"[0,0,1,1,0,0,0,1,0]","mutagen_history":"[0,0,1,1,0,0,0,1,0]","location_rts":"[1302,744,505,654,587,646,1068,1147,414]","trial_type":"fractal-mutation","trial_index":103,"time_elapsed":1412074,"internal_node_id":"0.0-5.0-49.0"},{"view_history":"[{\"page_index\":0,\"viewing_time\":8612}]","rt":8613,"trial_type":"instructions","trial_index":104,"time_elapsed":1421686,"internal_node_id":"0.0-6.0"},{"rt":4581,"responses":"{\"Q0\":\"\"}","trial_type":"survey-text","trial_index":105,"time_elapsed":1427270,"internal_node_id":"0.0-7.0"}]