[{"view_history":"[{\"page_index\":0,\"viewing_time\":1520},{\"page_index\":1,\"viewing_time\":12007}]","rt":13528,"trial_type":"instructions","trial_index":0,"time_elapsed":13528,"internal_node_id":"0.0-0.0"},{"view_history":"[{\"page_index\":0,\"viewing_time\":1263},{\"page_index\":1,\"viewing_time\":3007}]","rt":4270,"trial_type":"instructions","trial_index":1,"time_elapsed":18798,"internal_node_id":"0.0-1.0"},{"group":"tri cycles (cube, non-group)","room_assignment":["grey","green","red","yellow","brown","purple","pink","blue"],"door_color_assignment":["black","white"],"door_generator_assignment":[1,0],"goal":6,"start":3,"action_noise":0.1,"location_history":"[3,4,0,2,1,5,2,6]","action_history":"[1,1,0,0,1,1,1]","door_history":"[0,0,1,1,0,0,0]","location_rts":"[1349,499,3643,1285,1044,270,180556]","trial_type":"two-door-navigation","trial_index":2,"time_elapsed":218090,"internal_node_id":"0.0-2.0-0.0"},{"group":"tri cycles (cube, non-group)","room_assignment":["grey","green","red","yellow","brown","purple","pink","blue"],"door_color_assignment":["black","white"],"door_generator_assignment":[1,0],"goal":1,"start":6,"action_noise":0.1,"location_history":"[6,4,7,6,4,7,6,5,2,6,4,7,3,7,3,4,0,3,7,3,4,7,3,7,6,4,7,6,4,0,2,6,4,7,3,7,6,5,2,6,5,1]","action_history":"[0,0,0,0,0,0,1,0,0,0,0,1,1,1,0,1,1,1,1,1,1,1,0,0,0,0,0,0,1,0,1,0,0,1,0,0,1,1,1,0,0]","door_history":"[1,1,1,1,1,1,0,1,1,1,1,0,0,0,1,0,0,0,0,0,0,0,1,1,1,1,1,1,0,1,0,1,1,0,1,1,0,0,0,1,1]","location_rts":"[1155,827,420,434,372,556,524,414,571,363,298,979,421,619,520,733,373,94885,401,1109,371,338,484,308,434,331,204,299,459,259,995,613,42107,818,619,316,1069,740,411,69259,610]","trial_type":"two-door-navigation","trial_index":3,"time_elapsed":490482,"internal_node_id":"0.0-2.0-1.0"},{"group":"tri cycles (cube, non-group)","room_assignment":["grey","green","red","yellow","brown","purple","pink","blue"],"door_color_assignment":["black","white"],"door_generator_assignment":[1,0],"goal":2,"start":1,"action_noise":0.1,"location_history":"[1,5,2]","action_history":"[1,1]","door_history":"[0,0]","location_rts":"[1244,894]","trial_type":"two-door-navigation","trial_index":4,"time_elapsed":498161,"internal_node_id":"0.0-2.0-2.0"},{"group":"tri cycles (cube, non-group)","room_assignment":["grey","green","red","yellow","brown","purple","pink","blue"],"door_color_assignment":["black","white"],"door_generator_assignment":[1,0],"goal":0,"start":2,"action_noise":0.1,"location_history":"[2,6,5,2,1,5,1,5,2,1,0]","action_history":"[1,1,1,1,1,0,1,1,0,1]","door_history":"[0,0,0,0,0,1,0,0,1,0]","location_rts":"[1227,427,461,371,404,1028,419,188,995,956]","trial_type":"two-door-navigation","trial_index":5,"time_elapsed":518344,"internal_node_id":"0.0-2.0-3.0"},{"group":"tri cycles (cube, non-group)","room_assignment":["grey","green","red","yellow","brown","purple","pink","blue"],"door_color_assignment":["black","white"],"door_generator_assignment":[1,0],"goal":7,"start":0,"action_noise":0.1,"location_history":"[0,3,7]","action_history":"[1,0]","door_history":"[0,1]","location_rts":"[12999,75223]","trial_type":"two-door-navigation","trial_index":6,"time_elapsed":612148,"internal_node_id":"0.0-2.0-4.0"},{"group":"tri cycles (cube, non-group)","room_assignment":["grey","green","red","yellow","brown","purple","pink","blue"],"door_color_assignment":["black","white"],"door_generator_assignment":[1,0],"goal":5,"start":7,"action_noise":0.1,"location_history":"[7,3,7,3,4,0,2,1,0,2,6,5]","action_history":"[1,0,1,1,1,0,0,0,0,1,1]","door_history":"[0,1,0,0,0,1,1,1,1,0,0]","location_rts":"[3194,651,396,154,781,763,1083,373,522,1115,691]","trial_type":"two-door-navigation","trial_index":7,"time_elapsed":636600,"internal_node_id":"0.0-2.0-5.0"},{"group":"tri cycles (cube, non-group)","room_assignment":["grey","green","red","yellow","brown","purple","pink","blue"],"door_color_assignment":["black","white"],"door_generator_assignment":[1,0],"goal":4,"start":5,"action_noise":0.1,"location_history":"[5,2,6,5,1,0,2,1,5,2,6,5,1,0,3,4]","action_history":"[1,1,1,0,0,0,0,1,1,1,1,0,0,1,1]","door_history":"[0,0,0,1,1,1,1,0,0,0,0,1,1,0,0]","location_rts":"[8973,643,1306,966,814,907,331,491,235,91,443,531,514,1211,1228]","trial_type":"two-door-navigation","trial_index":8,"time_elapsed":674124,"internal_node_id":"0.0-2.0-6.0"},{"group":"tri cycles (cube, non-group)","room_assignment":["grey","green","red","yellow","brown","purple","pink","blue"],"door_color_assignment":["black","white"],"door_generator_assignment":[1,0],"goal":2,"start":4,"action_noise":0.1,"location_history":"[4,0,3,4,0,2]","action_history":"[1,1,1,1,0]","door_history":"[0,0,0,0,1]","location_rts":"[52883,387579,1561,419,677]","trial_type":"two-door-navigation","trial_index":9,"time_elapsed":1125847,"internal_node_id":"0.0-2.0-7.0"},{"group":"tri cycles (cube, non-group)","room_assignment":["grey","green","red","yellow","brown","purple","pink","blue"],"door_color_assignment":["black","white"],"door_generator_assignment":[1,0],"goal":3,"start":2,"action_noise":0.1,"location_history":"[2,1,5,2,6,5,1,0,3]","action_history":"[0,1,1,1,1,0,0,1]","door_history":"[1,0,0,0,0,1,1,0]","location_rts":"[515151,355,355,460,1451,1718,350,10308]","trial_type":"two-door-navigation","trial_index":10,"time_elapsed":1667657,"internal_node_id":"0.0-2.0-8.0"},{"group":"tri cycles (cube, non-group)","room_assignment":["grey","green","red","yellow","brown","purple","pink","blue"],"door_color_assignment":["black","white"],"door_generator_assignment":[1,0],"goal":7,"start":3,"action_noise":0.1,"location_history":"[3,7]","action_history":"[0]","door_history":"[1]","location_rts":"[54773]","trial_type":"two-door-navigation","trial_index":11,"time_elapsed":1726954,"internal_node_id":"0.0-2.0-9.0"},{"group":"tri cycles (cube, non-group)","room_assignment":["grey","green","red","yellow","brown","purple","pink","blue"],"door_color_assignment":["black","white"],"door_generator_assignment":[1,0],"goal":0,"start":7,"action_noise":0.1,"location_history":"[7,3,4,0]","action_history":"[1,1,1]","door_history":"[0,0,0]","location_rts":"[1299,195,443]","trial_type":"two-door-navigation","trial_index":12,"time_elapsed":1735457,"internal_node_id":"0.0-2.0-10.0"},{"group":"tri cycles (cube, non-group)","room_assignment":["grey","green","red","yellow","brown","purple","pink","blue"],"door_color_assignment":["black","white"],"door_generator_assignment":[1,0],"goal":1,"start":0,"action_noise":0.1,"location_history":"[0,3,7,3,4,0,2,1]","action_history":"[1,0,1,1,1,0,0]","door_history":"[0,1,0,0,0,1,1]","location_rts":"[27583,570,291,229,277,644,276]","trial_type":"two-door-navigation","trial_index":13,"time_elapsed":1775977,"internal_node_id":"0.0-2.0-11.0"},{"group":"tri cycles (cube, non-group)","room_assignment":["grey","green","red","yellow","brown","purple","pink","blue"],"door_color_assignment":["black","white"],"door_generator_assignment":[1,0],"goal":6,"start":1,"action_noise":0.1,"location_history":"[1,5,2,6]","action_history":"[0,1,1]","door_history":"[1,0,0]","location_rts":"[14578,354,364]","trial_type":"two-door-navigation","trial_index":14,"time_elapsed":1797840,"internal_node_id":"0.0-2.0-12.0"},{"group":"tri cycles (cube, non-group)","room_assignment":["grey","green","red","yellow","brown","purple","pink","blue"],"door_color_assignment":["black","white"],"door_generator_assignment":[1,0],"goal":4,"start":6,"action_noise":0.1,"location_history":"[6,5,2,1,5,2,6,5,2,1,5,2,1,5,1,5,2,6,4]","action_history":"[1,1,0,1,1,1,1,1,1,1,1,0,1,0,1,1,1,0]","door_history":"[0,0,1,0,0,0,0,0,0,0,0,1,0,1,0,0,0,1]","location_rts":"[18836,556,762,419,365,267,428,444,411,452,698,734,250,579,324,114,58,475]","trial_type":"two-door-navigation","trial_index":15,"time_elapsed":1845887,"internal_node_id":"0.0-2.0-13.0"},{"group":"tri cycles (cube, non-group)","room_assignment":["grey","green","red","yellow","brown","purple","pink","blue"],"door_color_assignment":["black","white"],"door_generator_assignment":[1,0],"goal":5,"start":4,"action_noise":0.1,"location_history":"[4,0,2,6,5]","action_history":"[1,0,1,1]","door_history":"[0,1,0,0]","location_rts":"[45696,722,987,787]","trial_type":"two-door-navigation","trial_index":16,"time_elapsed":1901665,"internal_node_id":"0.0-2.0-14.0"},{"group":"tri cycles (cube, non-group)","room_assignment":["grey","green","red","yellow","brown","purple","pink","blue"],"door_color_assignment":["black","white"],"door_generator_assignment":[1,0],"goal":4,"start":5,"action_noise":0.1,"location_history":"[5,1,5,1,5,1,0,2,6,5,2,6,5,2,6,5,1,0,2,6,4]","action_history":"[1,1,1,0,0,0,0,1,1,1,1,1,1,1,1,0,0,0,1,1]","door_history":"[0,0,0,1,1,1,1,0,0,0,0,0,0,0,0,1,1,1,0,0]","location_rts":"[143535,361,435,578,171,235,1028,1723,804,306,123,419,403,46797,1154,267,205,1586,723,268]","trial_type":"two-door-navigation","trial_index":17,"time_elapsed":2126706,"internal_node_id":"0.0-2.0-15.0"},{"group":"tri cycles (cube, non-group)","room_assignment":["grey","green","red","yellow","brown","purple","pink","blue"],"door_color_assignment":["black","white"],"door_generator_assignment":[1,0],"goal":0,"start":4,"action_noise":0.1,"location_history":"[4,0]","action_history":"[1]","door_history":"[0]","location_rts":"[23484]","trial_type":"two-door-navigation","trial_index":18,"time_elapsed":2154713,"internal_node_id":"0.0-2.0-16.0"},{"group":"tri cycles (cube, non-group)","room_assignment":["grey","green","red","yellow","brown","purple","pink","blue"],"door_color_assignment":["black","white"],"door_generator_assignment":[1,0],"goal":7,"start":0,"action_noise":0.1,"location_history":"[0,3,4,0,3,4,7]","action_history":"[1,1,1,1,0,0]","door_history":"[0,0,0,0,1,1]","location_rts":"[48788,609,667,395,451,379]","trial_type":"two-door-navigation","trial_index":19,"time_elapsed":2215633,"internal_node_id":"0.0-2.0-17.0"},{"group":"tri cycles (cube, non-group)","room_assignment":["grey","green","red","yellow","brown","purple","pink","blue"],"door_color_assignment":["black","white"],"door_generator_assignment":[1,0],"goal":2,"start":7,"action_noise":0.1,"location_history":"[7,3,4,0,2]","action_history":"[1,1,1,0]","door_history":"[0,0,0,1]","location_rts":"[44677,1405,373,507]","trial_type":"two-door-navigation","trial_index":20,"time_elapsed":2270176,"internal_node_id":"0.0-2.0-18.0"},{"group":"tri cycles (cube, non-group)","room_assignment":["grey","green","red","yellow","brown","purple","pink","blue"],"door_color_assignment":["black","white"],"door_generator_assignment":[1,0],"goal":1,"start":2,"action_noise":0.1,"location_history":"[2,1]","action_history":"[0]","door_history":"[1]","location_rts":"[12255]","trial_type":"two-door-navigation","trial_index":21,"time_elapsed":2286956,"internal_node_id":"0.0-2.0-19.0"},{"group":"tri cycles (cube, non-group)","room_assignment":["grey","green","red","yellow","brown","purple","pink","blue"],"door_color_assignment":["black","white"],"door_generator_assignment":[1,0],"goal":3,"start":1,"action_noise":0.1,"location_history":"[1,5,2,6,4,0,2,6,5,2,6,5,2,6,4,0,3]","action_history":"[1,1,1,1,1,0,1,0,1,1,1,1,1,1,1,1]","door_history":"[0,0,0,0,0,1,0,1,0,0,0,0,0,0,0,0]","location_rts":"[1148,275,332,2531,458,1091,426,683,522,203,123,259,283,315,410,1235]","trial_type":"two-door-navigation","trial_index":22,"time_elapsed":2317090,"internal_node_id":"0.0-2.0-20.0"},{"group":"tri cycles (cube, non-group)","room_assignment":["grey","green","red","yellow","brown","purple","pink","blue"],"door_color_assignment":["black","white"],"door_generator_assignment":[1,0],"goal":6,"start":3,"action_noise":0.1,"location_history":"[3,4,0,3,4,0,2,6]","action_history":"[1,1,1,1,1,0,1]","door_history":"[0,0,0,0,0,1,0]","location_rts":"[6404,362,435,899,84,836,227]","trial_type":"two-door-navigation","trial_index":23,"time_elapsed":2336984,"internal_node_id":"0.0-2.0-21.0"},{"group":"tri cycles (cube, non-group)","room_assignment":["grey","green","red","yellow","brown","purple","pink","blue"],"door_color_assignment":["black","white"],"door_generator_assignment":[1,0],"goal":5,"start":6,"action_noise":0.1,"location_history":"[6,4,7,6,5]","action_history":"[0,0,1,1]","door_history":"[1,1,0,0]","location_rts":"[6416,330,203,220]","trial_type":"two-door-navigation","trial_index":24,"time_elapsed":2351739,"internal_node_id":"0.0-2.0-22.0"},{"group":"tri cycles (cube, non-group)","room_assignment":["grey","green","red","yellow","brown","purple","pink","blue"],"door_color_assignment":["black","white"],"door_generator_assignment":[1,0],"goal":3,"start":5,"action_noise":0.1,"location_history":"[5,2,1,5,2,6,5,2,6,4,0,3]","action_history":"[0,0,1,1,1,1,1,1,0,1,0]","door_history":"[1,1,0,0,0,0,0,0,1,0,1]","location_rts":"[11651,683,755,99,12,419,531,322,643,427,1076]","trial_type":"two-door-navigation","trial_index":25,"time_elapsed":2383089,"internal_node_id":"0.0-2.0-23.0"},{"group":"tri cycles (cube, non-group)","room_assignment":["grey","green","red","yellow","brown","purple","pink","blue"],"door_color_assignment":["black","white"],"door_generator_assignment":[1,0],"goal":0,"start":3,"action_noise":0.1,"location_history":"[3,4,0]","action_history":"[1,1]","door_history":"[0,0]","location_rts":"[96366,353]","trial_type":"two-door-navigation","trial_index":26,"time_elapsed":2485354,"internal_node_id":"0.0-2.0-24.0"},{"group":"tri cycles (cube, non-group)","room_assignment":["grey","green","red","yellow","brown","purple","pink","blue"],"door_color_assignment":["black","white"],"door_generator_assignment":[1,0],"goal":7,"start":0,"action_noise":0.1,"location_history":"[0,2,6,5,1,5,2,6,4,0,2,6,5,2,1,5,1,5,2,1,5,2,1,5,2,6,4,7]","action_history":"[0,1,1,0,1,1,1,0,1,1,1,1,1,0,1,1,1,1,0,1,1,0,1,1,1,0,0]","door_history":"[1,0,0,1,0,0,0,1,0,0,0,0,0,1,0,0,0,0,1,0,0,1,0,0,0,1,1]","location_rts":"[9043,642,259,795,186,115,84,1010,635,379,459,538,477,1067,267,138,483,362,1262,371,35482,618,732,147,603,931,796]","trial_type":"two-door-navigation","trial_index":27,"time_elapsed":2574305,"internal_node_id":"0.0-2.0-25.0"},{"group":"tri cycles (cube, non-group)","room_assignment":["grey","green","red","yellow","brown","purple","pink","blue"],"door_color_assignment":["black","white"],"door_generator_assignment":[1,0],"goal":2,"start":7,"action_noise":0.1,"location_history":"[7,3,4,0,2]","action_history":"[1,1,1,0]","door_history":"[0,0,0,1]","location_rts":"[11640,442,1059,587]","trial_type":"two-door-navigation","trial_index":28,"time_elapsed":2595618,"internal_node_id":"0.0-2.0-26.0"},{"group":"tri cycles (cube, non-group)","room_assignment":["grey","green","red","yellow","brown","purple","pink","blue"],"door_color_assignment":["black","white"],"door_generator_assignment":[1,0],"goal":1,"start":2,"action_noise":0.1,"location_history":"[2,6,5,2,1]","action_history":"[1,1,1,0]","door_history":"[0,0,0,1]","location_rts":"[45699,1179,866,652]","trial_type":"two-door-navigation","trial_index":29,"time_elapsed":2651603,"internal_node_id":"0.0-2.0-27.0"},{"group":"tri cycles (cube, non-group)","room_assignment":["grey","green","red","yellow","brown","purple","pink","blue"],"door_color_assignment":["black","white"],"door_generator_assignment":[1,0],"goal":5,"start":1,"action_noise":0.1,"location_history":"[1,5]","action_history":"[1]","door_history":"[0]","location_rts":"[612]","trial_type":"two-door-navigation","trial_index":30,"time_elapsed":2656738,"internal_node_id":"0.0-2.0-28.0"},{"group":"tri cycles (cube, non-group)","room_assignment":["grey","green","red","yellow","brown","purple","pink","blue"],"door_color_assignment":["black","white"],"door_generator_assignment":[1,0],"goal":4,"start":5,"action_noise":0.1,"location_history":"[5,2,6,5,2,6,4]","action_history":"[1,1,1,1,1,0]","door_history":"[0,0,0,0,0,1]","location_rts":"[1851,443,500,332,458,771]","trial_type":"two-door-navigation","trial_index":31,"time_elapsed":2670721,"internal_node_id":"0.0-2.0-29.0"},{"group":"tri cycles (cube, non-group)","room_assignment":["grey","green","red","yellow","brown","purple","pink","blue"],"door_color_assignment":["black","white"],"door_generator_assignment":[1,0],"goal":6,"start":4,"action_noise":0.1,"location_history":"[4,7,3,4,7,6]","action_history":"[1,1,1,0,0]","door_history":"[0,0,0,1,1]","location_rts":"[12669,770,299,547,644]","trial_type":"two-door-navigation","trial_index":32,"time_elapsed":2694256,"internal_node_id":"0.0-2.0-30.0"},{"group":"tri cycles (cube, non-group)","room_assignment":["grey","green","red","yellow","brown","purple","pink","blue"],"door_color_assignment":["black","white"],"door_generator_assignment":[1,0],"goal":4,"start":6,"action_noise":0.1,"location_history":"[6,5,2,1,5,2,6,4]","action_history":"[1,1,0,1,1,1,0]","door_history":"[0,0,1,0,0,0,1]","location_rts":"[2926,531,20400,53868,524,1029,506]","trial_type":"two-door-navigation","trial_index":33,"time_elapsed":2784682,"internal_node_id":"0.0-2.0-31.0"},{"group":"tri cycles (cube, non-group)","room_assignment":["grey","green","red","yellow","brown","purple","pink","blue"],"door_color_assignment":["black","white"],"door_generator_assignment":[1,0],"goal":2,"start":4,"action_noise":0.1,"location_history":"[4,7,3,4,7,6,4,7,3,7,6,5,2]","action_history":"[1,1,1,0,0,0,1,0,0,0,1,1]","door_history":"[0,0,0,1,1,1,0,1,1,1,0,0]","location_rts":"[153629,539,484,595,259,459,731,395,619,370,1220,459]","trial_type":"two-door-navigation","trial_index":34,"time_elapsed":2960193,"internal_node_id":"0.0-2.0-32.0"},{"group":"tri cycles (cube, non-group)","room_assignment":["grey","green","red","yellow","brown","purple","pink","blue"],"door_color_assignment":["black","white"],"door_generator_assignment":[1,0],"goal":0,"start":2,"action_noise":0.1,"location_history":"[2,1,0]","action_history":"[0,0]","door_history":"[1,1]","location_rts":"[25828,410]","trial_type":"two-door-navigation","trial_index":35,"time_elapsed":2991977,"internal_node_id":"0.0-2.0-33.0"},{"group":"tri cycles (cube, non-group)","room_assignment":["grey","green","red","yellow","brown","purple","pink","blue"],"door_color_assignment":["black","white"],"door_generator_assignment":[1,0],"goal":5,"start":0,"action_noise":0.1,"location_history":"[0,3,4,7,6,4,7,3,4,7,6,4,7,6,5]","action_history":"[1,1,0,0,0,1,1,1,0,0,0,0,0,1]","door_history":"[0,0,1,1,1,0,0,0,1,1,1,1,1,0]","location_rts":"[9779,393,851,637,283,460,106,259,435,59,410,653,866,498]","trial_type":"two-door-navigation","trial_index":36,"time_elapsed":3025466,"internal_node_id":"0.0-2.0-34.0"},{"group":"tri cycles (cube, non-group)","room_assignment":["grey","green","red","yellow","brown","purple","pink","blue"],"door_color_assignment":["black","white"],"door_generator_assignment":[1,0],"goal":1,"start":5,"action_noise":0.1,"location_history":"[5,1]","action_history":"[0]","door_history":"[1]","location_rts":"[28021]","trial_type":"two-door-navigation","trial_index":37,"time_elapsed":3058008,"internal_node_id":"0.0-2.0-35.0"},{"group":"tri cycles (cube, non-group)","room_assignment":["grey","green","red","yellow","brown","purple","pink","blue"],"door_color_assignment":["black","white"],"door_generator_assignment":[1,0],"goal":7,"start":1,"action_noise":0.1,"location_history":"[1,0,3,4,0,2,6,5,2,6,4,7]","action_history":"[0,1,1,1,1,1,1,1,1,0,0]","door_history":"[1,0,0,0,0,0,0,0,0,1,1]","location_rts":"[68173,12132,986,452,380,1083,566,619,130,362,371]","trial_type":"two-door-navigation","trial_index":38,"time_elapsed":3157993,"internal_node_id":"0.0-2.0-36.0"},{"group":"tri cycles (cube, non-group)","room_assignment":["grey","green","red","yellow","brown","purple","pink","blue"],"door_color_assignment":["black","white"],"door_generator_assignment":[1,0],"goal":3,"start":7,"action_noise":0.1,"location_history":"[7,3]","action_history":"[0]","door_history":"[1]","location_rts":"[15710]","trial_type":"two-door-navigation","trial_index":39,"time_elapsed":3178225,"internal_node_id":"0.0-2.0-37.0"},{"group":"tri cycles (cube, non-group)","room_assignment":["grey","green","red","yellow","brown","purple","pink","blue"],"door_color_assignment":["black","white"],"door_generator_assignment":[1,0],"goal":6,"start":3,"action_noise":0.1,"location_history":"[3,7,6]","action_history":"[1,0]","door_history":"[0,1]","location_rts":"[149502,6745]","trial_type":"two-door-navigation","trial_index":40,"time_elapsed":3340018,"internal_node_id":"0.0-2.0-38.0"},{"group":"tri cycles (cube, non-group)","room_assignment":["grey","green","red","yellow","brown","purple","pink","blue"],"door_color_assignment":["black","white"],"door_generator_assignment":[1,0],"goal":2,"start":6,"action_noise":0.1,"location_history":"[6,5,2]","action_history":"[1,1]","door_history":"[0,0]","location_rts":"[1154,314]","trial_type":"two-door-navigation","trial_index":41,"time_elapsed":3347034,"internal_node_id":"0.0-2.0-39.0"},{"group":"tri cycles (cube, non-group)","room_assignment":["grey","green","red","yellow","brown","purple","pink","blue"],"door_color_assignment":["black","white"],"door_generator_assignment":[1,0],"goal":1,"start":2,"action_noise":0.1,"location_history":"[2,1]","action_history":"[0]","door_history":"[1]","location_rts":"[31566]","trial_type":"two-door-navigation","trial_index":42,"time_elapsed":3383123,"internal_node_id":"0.0-2.0-40.0"},{"group":"tri cycles (cube, non-group)","room_assignment":["grey","green","red","yellow","brown","purple","pink","blue"],"door_color_assignment":["black","white"],"door_generator_assignment":[1,0],"goal":0,"start":1,"action_noise":0.1,"location_history":"[1,5,2,1,5,2,6,5,1,0]","action_history":"[1,0,0,1,1,1,1,0,0]","door_history":"[0,1,1,0,0,0,0,1,1]","location_rts":"[91587,42756,16067,483,156,244,348,746,67]","trial_type":"two-door-navigation","trial_index":43,"time_elapsed":3548267,"internal_node_id":"0.0-2.0-41.0"},{"group":"tri cycles (cube, non-group)","room_assignment":["grey","green","red","yellow","brown","purple","pink","blue"],"door_color_assignment":["black","white"],"door_generator_assignment":[1,0],"goal":4,"start":0,"action_noise":0.1,"location_history":"[0,2,6,5,2,6,5,2,1,0,2,6,4]","action_history":"[0,0,0,1,1,1,1,0,0,0,1,0]","door_history":"[1,1,1,0,0,0,0,1,1,1,0,1]","location_rts":"[1923,356,459,588,92,915,442,658,515,747,491,331]","trial_type":"two-door-navigation","trial_index":44,"time_elapsed":3571538,"internal_node_id":"0.0-2.0-42.0"},{"group":"tri cycles (cube, non-group)","room_assignment":["grey","green","red","yellow","brown","purple","pink","blue"],"door_color_assignment":["black","white"],"door_generator_assignment":[1,0],"goal":6,"start":4,"action_noise":0.1,"location_history":"[4,0,2,1,0,3,4,0,3,4,7,3,4,7,6]","action_history":"[1,0,0,0,0,1,1,1,1,1,1,1,0,1]","door_history":"[0,1,1,1,1,0,0,0,0,0,0,0,1,0]","location_rts":"[1277,395,331,458,532,178,611,84,435,266,274,507,418,387]","trial_type":"two-door-navigation","trial_index":45,"time_elapsed":3595489,"internal_node_id":"0.0-2.0-43.0"},{"group":"tri cycles (cube, non-group)","room_assignment":["grey","green","red","yellow","brown","purple","pink","blue"],"door_color_assignment":["black","white"],"door_generator_assignment":[1,0],"goal":3,"start":6,"action_noise":0.1,"location_history":"[6,4,7,6,4,7,3]","action_history":"[0,0,0,0,0,1]","door_history":"[1,1,1,1,1,0]","location_rts":"[2813,322,275,379,338,475]","trial_type":"two-door-navigation","trial_index":46,"time_elapsed":3609722,"internal_node_id":"0.0-2.0-44.0"},{"group":"tri cycles (cube, non-group)","room_assignment":["grey","green","red","yellow","brown","purple","pink","blue"],"door_color_assignment":["black","white"],"door_generator_assignment":[1,0],"goal":7,"start":3,"action_noise":0.1,"location_history":"[3,4,0,3,7]","action_history":"[1,1,1,0]","door_history":"[0,0,0,1]","location_rts":"[9206,427,363,675]","trial_type":"two-door-navigation","trial_index":47,"time_elapsed":3627978,"internal_node_id":"0.0-2.0-45.0"},{"group":"tri cycles (cube, non-group)","room_assignment":["grey","green","red","yellow","brown","purple","pink","blue"],"door_color_assignment":["black","white"],"door_generator_assignment":[1,0],"goal":5,"start":7,"action_noise":0.1,"location_history":"[7,3,4,0,2,1,5]","action_history":"[1,1,1,0,1,1]","door_history":"[0,0,0,1,0,0]","location_rts":"[5164,618,1794,4203,853,404]","trial_type":"two-door-navigation","trial_index":48,"time_elapsed":3650641,"internal_node_id":"0.0-2.0-46.0"},{"group":"tri cycles (cube, non-group)","room_assignment":["grey","green","red","yellow","brown","purple","pink","blue"],"door_color_assignment":["black","white"],"door_generator_assignment":[1,0],"goal":1,"start":5,"action_noise":0.1,"location_history":"[5,2,1]","action_history":"[0,0]","door_history":"[1,1]","location_rts":"[1947,452]","trial_type":"two-door-navigation","trial_index":49,"time_elapsed":3658584,"internal_node_id":"0.0-2.0-47.0"},{"group":"tri cycles (cube, non-group)","room_assignment":["grey","green","red","yellow","brown","purple","pink","blue"],"door_color_assignment":["black","white"],"door_generator_assignment":[1,0],"goal":6,"start":1,"action_noise":0.1,"location_history":"[1,0,3,4,0,2,6]","action_history":"[0,1,1,1,0,1]","door_history":"[1,0,0,0,1,0]","location_rts":"[17697,642,355,68,723,1226]","trial_type":"two-door-navigation","trial_index":50,"time_elapsed":3688922,"internal_node_id":"0.0-2.0-48.0"},{"group":"tri cycles (cube, non-group)","room_assignment":["grey","green","red","yellow","brown","purple","pink","blue"],"door_color_assignment":["black","white"],"door_generator_assignment":[1,0],"goal":0,"start":6,"action_noise":0.1,"location_history":"[6,5,1,0]","action_history":"[1,1,0]","door_history":"[0,0,1]","location_rts":"[71093,307,443]","trial_type":"two-door-navigation","trial_index":51,"time_elapsed":3767327,"internal_node_id":"0.0-2.0-49.0"},{"view_history":"[{\"page_index\":0,\"viewing_time\":2126}]","rt":2126,"trial_type":"instructions","trial_index":52,"time_elapsed":3770454,"internal_node_id":"0.0-3.0"},{"view_history":"[{\"page_index\":0,\"viewing_time\":1368},{\"page_index\":1,\"viewing_time\":7032}]","rt":8400,"trial_type":"instructions","trial_index":53,"time_elapsed":3779854,"internal_node_id":"0.0-4.0"},{"group":"square cycles (cube, non-group)","fractal_assignment":["../images/ylw_pnk.png","../images/org_blu.png","../images/gry_blk.png","../images/ylw_slt.png","../images/pnk_blu.png","../images/cyn_red.png","../images/blu_wht.png","../images/grn_red.png"],"mutagen_generator_assignment":[1,0],"goal":6,"start":3,"action_noise":0.1,"location_history":"[3,0,1,0,1,2,3,0,4,5,1,0,4,7,3,2,6]","action_history":"[1,0,0,0,0,0,0,0,1,1,1,1,0,1,1,1]","mutagen_history":"[0,1,1,1,1,1,1,1,0,0,0,0,1,0,0,0]","location_rts":"[29137,377,154,378,489,387,362,363,514,387,378,490,436,388,82,498]","trial_type":"fractal-mutation","trial_index":54,"time_elapsed":3834522,"internal_node_id":"0.0-5.0-0.0"},{"group":"square cycles (cube, non-group)","fractal_assignment":["../images/ylw_pnk.png","../images/org_blu.png","../images/gry_blk.png","../images/ylw_slt.png","../images/pnk_blu.png","../images/cyn_red.png","../images/blu_wht.png","../images/grn_red.png"],"mutagen_generator_assignment":[1,0],"goal":1,"start":6,"action_noise":0.1,"location_history":"[6,7,3,2,3,0,1]","action_history":"[1,1,1,0,0,0]","mutagen_history":"[0,0,0,1,1,1]","location_rts":"[50154,93902,170,347,307,137]","trial_type":"fractal-mutation","trial_index":55,"time_elapsed":3989170,"internal_node_id":"0.0-5.0-1.0"},{"group":"square cycles (cube, non-group)","fractal_assignment":["../images/ylw_pnk.png","../images/org_blu.png","../images/gry_blk.png","../images/ylw_slt.png","../images/pnk_blu.png","../images/cyn_red.png","../images/blu_wht.png","../images/grn_red.png"],"mutagen_generator_assignment":[1,0],"goal":2,"start":1,"action_noise":0.1,"location_history":"[1,0,4,7,3,0,4,5,4,5,1,0,1,2]","action_history":"[1,0,0,0,0,1,1,0,1,1,1,0,0]","mutagen_history":"[0,1,1,1,1,0,0,1,0,0,0,1,1]","location_rts":"[23362,585,273,347,418,714,306,379,395,171,355,259,282]","trial_type":"fractal-mutation","trial_index":56,"time_elapsed":4033804,"internal_node_id":"0.0-5.0-2.0"},{"group":"square cycles (cube, non-group)","fractal_assignment":["../images/ylw_pnk.png","../images/org_blu.png","../images/gry_blk.png","../images/ylw_slt.png","../images/pnk_blu.png","../images/cyn_red.png","../images/blu_wht.png","../images/grn_red.png"],"mutagen_generator_assignment":[1,0],"goal":0,"start":2,"action_noise":0.1,"location_history":"[2,6,7,3,0]","action_history":"[1,1,1,1]","mutagen_history":"[0,0,0,0]","location_rts":"[644,162,100369,363]","trial_type":"fractal-mutation","trial_index":57,"time_elapsed":4142928,"internal_node_id":"0.0-5.0-3.0"},{"group":"square cycles (cube, non-group)","fractal_assignment":["../images/ylw_pnk.png","../images/org_blu.png","../images/gry_blk.png","../images/ylw_slt.png","../images/pnk_blu.png","../images/cyn_red.png","../images/blu_wht.png","../images/grn_red.png"],"mutagen_generator_assignment":[1,0],"goal":7,"start":0,"action_noise":0.1,"location_history":"[0,4,7]","action_history":"[0,0]","mutagen_history":"[1,1]","location_rts":"[2675,546]","trial_type":"fractal-mutation","trial_index":58,"time_elapsed":4151696,"internal_node_id":"0.0-5.0-4.0"},{"group":"square cycles (cube, non-group)","fractal_assignment":["../images/ylw_pnk.png","../images/org_blu.png","../images/gry_blk.png","../images/ylw_slt.png","../images/pnk_blu.png","../images/cyn_red.png","../images/blu_wht.png","../images/grn_red.png"],"mutagen_generator_assignment":[1,0],"goal":5,"start":7,"action_noise":0.1,"location_history":"[7,3,0,4,5]","action_history":"[1,0,0,1]","mutagen_history":"[0,1,1,0]","location_rts":"[322146,315,315,458]","trial_type":"fractal-mutation","trial_index":59,"time_elapsed":4482522,"internal_node_id":"0.0-5.0-5.0"},{"group":"square cycles (cube, non-group)","fractal_assignment":["../images/ylw_pnk.png","../images/org_blu.png","../images/gry_blk.png","../images/ylw_slt.png","../images/pnk_blu.png","../images/cyn_red.png","../images/blu_wht.png","../images/grn_red.png"],"mutagen_generator_assignment":[1,0],"goal":4,"start":5,"action_noise":0.1,"location_history":"[5,1,2,3,0,4]","action_history":"[1,0,0,0,1]","mutagen_history":"[0,1,1,1,0]","location_rts":"[1261,466,395,378,530]","trial_type":"fractal-mutation","trial_index":60,"time_elapsed":4494161,"internal_node_id":"0.0-5.0-6.0"},{"group":"square cycles (cube, non-group)","fractal_assignment":["../images/ylw_pnk.png","../images/org_blu.png","../images/gry_blk.png","../images/ylw_slt.png","../images/pnk_blu.png","../images/cyn_red.png","../images/blu_wht.png","../images/grn_red.png"],"mutagen_generator_assignment":[1,0],"goal":2,"start":4,"action_noise":0.1,"location_history":"[4,5,1,0,1,2]","action_history":"[1,0,1,0,0]","mutagen_history":"[0,1,0,1,1]","location_rts":"[812,426,179,298,340]","trial_type":"fractal-mutation","trial_index":61,"time_elapsed":4504825,"internal_node_id":"0.0-5.0-7.0"},{"group":"square cycles (cube, non-group)","fractal_assignment":["../images/ylw_pnk.png","../images/org_blu.png","../images/gry_blk.png","../images/ylw_slt.png","../images/pnk_blu.png","../images/cyn_red.png","../images/blu_wht.png","../images/grn_red.png"],"mutagen_generator_assignment":[1,0],"goal":3,"start":2,"action_noise":0.1,"location_history":"[2,6,5,4,7,6,5,1,0,4,7,3]","action_history":"[1,0,0,0,0,0,1,1,1,1,1]","mutagen_history":"[0,1,1,1,1,1,0,0,0,0,0]","location_rts":"[1443,315,444,442,790,507,298,803,42,290,411]","trial_type":"fractal-mutation","trial_index":62,"time_elapsed":4525347,"internal_node_id":"0.0-5.0-8.0"},{"group":"square cycles (cube, non-group)","fractal_assignment":["../images/ylw_pnk.png","../images/org_blu.png","../images/gry_blk.png","../images/ylw_slt.png","../images/pnk_blu.png","../images/cyn_red.png","../images/blu_wht.png","../images/grn_red.png"],"mutagen_generator_assignment":[1,0],"goal":7,"start":3,"action_noise":0.1,"location_history":"[3,0,1,2,3,0,1,2,3,0,1,0,4,5,1,2,3,0,1,0,1,2,3,0,4,7]","action_history":"[1,0,0,0,1,0,0,0,0,1,1,1,1,1,0,0,0,0,0,0,0,0,0,1,0]","mutagen_history":"[0,1,1,1,0,1,1,1,1,0,0,0,0,0,1,1,1,1,1,1,1,1,1,0,1]","location_rts":"[309660,138,179,2978,2483,122,90,618,370,594,531,187,476,467,410,163,51,19,59,66,162,59,83,411,75]","trial_type":"fractal-mutation","trial_index":63,"time_elapsed":4874833,"internal_node_id":"0.0-5.0-9.0"},{"group":"square cycles (cube, non-group)","fractal_assignment":["../images/ylw_pnk.png","../images/org_blu.png","../images/gry_blk.png","../images/ylw_slt.png","../images/pnk_blu.png","../images/cyn_red.png","../images/blu_wht.png","../images/grn_red.png"],"mutagen_generator_assignment":[1,0],"goal":0,"start":7,"action_noise":0.1,"location_history":"[7,3,2,3,0]","action_history":"[1,1,0,0]","mutagen_history":"[0,0,1,1]","location_rts":"[3155,210578,227,195]","trial_type":"fractal-mutation","trial_index":64,"time_elapsed":5096577,"internal_node_id":"0.0-5.0-10.0"},{"group":"square cycles (cube, non-group)","fractal_assignment":["../images/ylw_pnk.png","../images/org_blu.png","../images/gry_blk.png","../images/ylw_slt.png","../images/pnk_blu.png","../images/cyn_red.png","../images/blu_wht.png","../images/grn_red.png"],"mutagen_generator_assignment":[1,0],"goal":1,"start":0,"action_noise":0.1,"location_history":"[0,1]","action_history":"[0]","mutagen_history":"[1]","location_rts":"[531]","trial_type":"fractal-mutation","trial_index":65,"time_elapsed":5101633,"internal_node_id":"0.0-5.0-11.0"},{"group":"square cycles (cube, non-group)","fractal_assignment":["../images/ylw_pnk.png","../images/org_blu.png","../images/gry_blk.png","../images/ylw_slt.png","../images/pnk_blu.png","../images/cyn_red.png","../images/blu_wht.png","../images/grn_red.png"],"mutagen_generator_assignment":[1,0],"goal":6,"start":1,"action_noise":0.1,"location_history":"[1,2,6]","action_history":"[0,1]","mutagen_history":"[1,0]","location_rts":"[956,1043]","trial_type":"fractal-mutation","trial_index":66,"time_elapsed":5109176,"internal_node_id":"0.0-5.0-12.0"},{"group":"square cycles (cube, non-group)","fractal_assignment":["../images/ylw_pnk.png","../images/org_blu.png","../images/gry_blk.png","../images/ylw_slt.png","../images/pnk_blu.png","../images/cyn_red.png","../images/blu_wht.png","../images/grn_red.png"],"mutagen_generator_assignment":[1,0],"goal":4,"start":6,"action_noise":0.1,"location_history":"[6,5,4]","action_history":"[0,0]","mutagen_history":"[1,1]","location_rts":"[732,379]","trial_type":"fractal-mutation","trial_index":67,"time_elapsed":5115832,"internal_node_id":"0.0-5.0-13.0"},{"group":"square cycles (cube, non-group)","fractal_assignment":["../images/ylw_pnk.png","../images/org_blu.png","../images/gry_blk.png","../images/ylw_slt.png","../images/pnk_blu.png","../images/cyn_red.png","../images/blu_wht.png","../images/grn_red.png"],"mutagen_generator_assignment":[1,0],"goal":5,"start":4,"action_noise":0.1,"location_history":"[4,5]","action_history":"[1]","mutagen_history":"[0]","location_rts":"[1011]","trial_type":"fractal-mutation","trial_index":68,"time_elapsed":5121370,"internal_node_id":"0.0-5.0-14.0"},{"group":"square cycles (cube, non-group)","fractal_assignment":["../images/ylw_pnk.png","../images/org_blu.png","../images/gry_blk.png","../images/ylw_slt.png","../images/pnk_blu.png","../images/cyn_red.png","../images/blu_wht.png","../images/grn_red.png"],"mutagen_generator_assignment":[1,0],"goal":4,"start":5,"action_noise":0.1,"location_history":"[5,4]","action_history":"[0]","mutagen_history":"[1]","location_rts":"[867]","trial_type":"fractal-mutation","trial_index":69,"time_elapsed":5126762,"internal_node_id":"0.0-5.0-15.0"},{"group":"square cycles (cube, non-group)","fractal_assignment":["../images/ylw_pnk.png","../images/org_blu.png","../images/gry_blk.png","../images/ylw_slt.png","../images/pnk_blu.png","../images/cyn_red.png","../images/blu_wht.png","../images/grn_red.png"],"mutagen_generator_assignment":[1,0],"goal":0,"start":4,"action_noise":0.1,"location_history":"[4,7,6,5,1,0]","action_history":"[0,0,0,1,1]","mutagen_history":"[1,1,1,0,0]","location_rts":"[596,91,290,562,651]","trial_type":"fractal-mutation","trial_index":70,"time_elapsed":5137562,"internal_node_id":"0.0-5.0-16.0"},{"group":"square cycles (cube, non-group)","fractal_assignment":["../images/ylw_pnk.png","../images/org_blu.png","../images/gry_blk.png","../images/ylw_slt.png","../images/pnk_blu.png","../images/cyn_red.png","../images/blu_wht.png","../images/grn_red.png"],"mutagen_generator_assignment":[1,0],"goal":7,"start":0,"action_noise":0.1,"location_history":"[0,1,2,6,5,4,7]","action_history":"[0,0,0,0,0,0]","mutagen_history":"[1,1,1,1,1,1]","location_rts":"[683,171,146,234,123,379]","trial_type":"fractal-mutation","trial_index":71,"time_elapsed":5148929,"internal_node_id":"0.0-5.0-17.0"},{"group":"square cycles (cube, non-group)","fractal_assignment":["../images/ylw_pnk.png","../images/org_blu.png","../images/gry_blk.png","../images/ylw_slt.png","../images/pnk_blu.png","../images/cyn_red.png","../images/blu_wht.png","../images/grn_red.png"],"mutagen_generator_assignment":[1,0],"goal":2,"start":7,"action_noise":0.1,"location_history":"[7,3,2]","action_history":"[1,1]","mutagen_history":"[0,0]","location_rts":"[2155,398932]","trial_type":"fractal-mutation","trial_index":72,"time_elapsed":5555562,"internal_node_id":"0.0-5.0-18.0"},{"group":"square cycles (cube, non-group)","fractal_assignment":["../images/ylw_pnk.png","../images/org_blu.png","../images/gry_blk.png","../images/ylw_slt.png","../images/pnk_blu.png","../images/cyn_red.png","../images/blu_wht.png","../images/grn_red.png"],"mutagen_generator_assignment":[1,0],"goal":1,"start":2,"action_noise":0.1,"location_history":"[2,3,0,1]","action_history":"[0,0,0]","mutagen_history":"[1,1,1]","location_rts":"[5604,275,307]","trial_type":"fractal-mutation","trial_index":73,"time_elapsed":5568314,"internal_node_id":"0.0-5.0-19.0"},{"group":"square cycles (cube, non-group)","fractal_assignment":["../images/ylw_pnk.png","../images/org_blu.png","../images/gry_blk.png","../images/ylw_slt.png","../images/pnk_blu.png","../images/cyn_red.png","../images/blu_wht.png","../images/grn_red.png"],"mutagen_generator_assignment":[1,0],"goal":3,"start":1,"action_noise":0.1,"location_history":"[1,2,3]","action_history":"[0,0]","mutagen_history":"[1,1]","location_rts":"[660,378]","trial_type":"fractal-mutation","trial_index":74,"time_elapsed":5574901,"internal_node_id":"0.0-5.0-20.0"},{"group":"square cycles (cube, non-group)","fractal_assignment":["../images/ylw_pnk.png","../images/org_blu.png","../images/gry_blk.png","../images/ylw_slt.png","../images/pnk_blu.png","../images/cyn_red.png","../images/blu_wht.png","../images/grn_red.png"],"mutagen_generator_assignment":[1,0],"goal":6,"start":3,"action_noise":0.1,"location_history":"[3,0,4,5,1,2,3,0,1,2,6]","action_history":"[0,1,1,1,0,0,0,0,0,1]","mutagen_history":"[1,0,0,0,1,1,1,1,1,0]","location_rts":"[832,587,2716,363,602,322,411,387,355,99]","trial_type":"fractal-mutation","trial_index":75,"time_elapsed":5595376,"internal_node_id":"0.0-5.0-21.0"},{"group":"square cycles (cube, non-group)","fractal_assignment":["../images/ylw_pnk.png","../images/org_blu.png","../images/gry_blk.png","../images/ylw_slt.png","../images/pnk_blu.png","../images/cyn_red.png","../images/blu_wht.png","../images/grn_red.png"],"mutagen_generator_assignment":[1,0],"goal":5,"start":6,"action_noise":0.1,"location_history":"[6,7,3,2,6,7,3,2,3,0,1,2,3,2,3,0,1,2,6,7,6,7,3,0,1,2,3,0,1,2,3,0,1,0,1,2,3,2,3,2,6,5]","action_history":"[1,1,1,1,1,1,1,0,0,0,0,0,1,0,0,0,0,0,1,1,1,1,0,0,0,0,0,0,0,0,0,0,0,0,0,0,1,1,1,1,0]","mutagen_history":"[0,0,0,0,0,0,0,1,1,1,1,1,0,1,1,1,1,1,0,0,0,0,1,1,1,1,1,1,1,1,1,1,1,1,1,1,0,0,0,0,1]","location_rts":"[770,595,330,331,292,178,235,242,307,67,43,27,418,12,261,6427,140,98,611,138,402,98,265,201,58,259,130,290,378,371,427,108,370,417,317,91,139,396,307,1500,1298]","trial_type":"fractal-mutation","trial_index":76,"time_elapsed":5660196,"internal_node_id":"0.0-5.0-22.0"},{"group":"square cycles (cube, non-group)","fractal_assignment":["../images/ylw_pnk.png","../images/org_blu.png","../images/gry_blk.png","../images/ylw_slt.png","../images/pnk_blu.png","../images/cyn_red.png","../images/blu_wht.png","../images/grn_red.png"],"mutagen_generator_assignment":[1,0],"goal":3,"start":5,"action_noise":0.1,"location_history":"[5,1,2,3]","action_history":"[1,0,0]","mutagen_history":"[0,1,1]","location_rts":"[675,515,306]","trial_type":"fractal-mutation","trial_index":77,"time_elapsed":5668260,"internal_node_id":"0.0-5.0-23.0"},{"group":"square cycles (cube, non-group)","fractal_assignment":["../images/ylw_pnk.png","../images/org_blu.png","../images/gry_blk.png","../images/ylw_slt.png","../images/pnk_blu.png","../images/cyn_red.png","../images/blu_wht.png","../images/grn_red.png"],"mutagen_generator_assignment":[1,0],"goal":0,"start":3,"action_noise":0.1,"location_history":"[3,0]","action_history":"[0]","mutagen_history":"[1]","location_rts":"[884]","trial_type":"fractal-mutation","trial_index":78,"time_elapsed":5673667,"internal_node_id":"0.0-5.0-24.0"},{"group":"square cycles (cube, non-group)","fractal_assignment":["../images/ylw_pnk.png","../images/org_blu.png","../images/gry_blk.png","../images/ylw_slt.png","../images/pnk_blu.png","../images/cyn_red.png","../images/blu_wht.png","../images/grn_red.png"],"mutagen_generator_assignment":[1,0],"goal":7,"start":0,"action_noise":0.1,"location_history":"[0,4,5,1,0,4,7]","action_history":"[1,1,1,1,1,0]","mutagen_history":"[0,0,0,0,0,1]","location_rts":"[412,179,276,419,419,267]","trial_type":"fractal-mutation","trial_index":79,"time_elapsed":5685264,"internal_node_id":"0.0-5.0-25.0"},{"group":"square cycles (cube, non-group)","fractal_assignment":["../images/ylw_pnk.png","../images/org_blu.png","../images/gry_blk.png","../images/ylw_slt.png","../images/pnk_blu.png","../images/cyn_red.png","../images/blu_wht.png","../images/grn_red.png"],"mutagen_generator_assignment":[1,0],"goal":2,"start":7,"action_noise":0.1,"location_history":"[7,6,5,4,5,4,7,6,5,4,7,3,2]","action_history":"[0,0,0,1,0,0,0,0,0,0,0,1]","mutagen_history":"[1,1,1,0,1,1,1,1,1,1,1,0]","location_rts":"[16956,339,323,25733,170,25,1594,1035,290,23786,371,443]","trial_type":"fractal-mutation","trial_index":80,"time_elapsed":5772113,"internal_node_id":"0.0-5.0-26.0"},{"group":"square cycles (cube, non-group)","fractal_assignment":["../images/ylw_pnk.png","../images/org_blu.png","../images/gry_blk.png","../images/ylw_slt.png","../images/pnk_blu.png","../images/cyn_red.png","../images/blu_wht.png","../images/grn_red.png"],"mutagen_generator_assignment":[1,0],"goal":1,"start":2,"action_noise":0.1,"location_history":"[2,3,0,1]","action_history":"[1,0,0]","mutagen_history":"[0,1,1]","location_rts":"[7635,1589,67]","trial_type":"fractal-mutation","trial_index":81,"time_elapsed":5787970,"internal_node_id":"0.0-5.0-27.0"},{"group":"square cycles (cube, non-group)","fractal_assignment":["../images/ylw_pnk.png","../images/org_blu.png","../images/gry_blk.png","../images/ylw_slt.png","../images/pnk_blu.png","../images/cyn_red.png","../images/blu_wht.png","../images/grn_red.png"],"mutagen_generator_assignment":[1,0],"goal":5,"start":1,"action_noise":0.1,"location_history":"[1,0,1,2,6,5]","action_history":"[1,0,0,1,0]","mutagen_history":"[0,1,1,0,1]","location_rts":"[27026,331,363,403,169]","trial_type":"fractal-mutation","trial_index":82,"time_elapsed":5824873,"internal_node_id":"0.0-5.0-28.0"},{"group":"square cycles (cube, non-group)","fractal_assignment":["../images/ylw_pnk.png","../images/org_blu.png","../images/gry_blk.png","../images/ylw_slt.png","../images/pnk_blu.png","../images/cyn_red.png","../images/blu_wht.png","../images/grn_red.png"],"mutagen_generator_assignment":[1,0],"goal":4,"start":5,"action_noise":0.1,"location_history":"[5,1,2,3,0,1,2,3,2,3,0,1,2,6,5,4]","action_history":"[1,0,0,0,0,0,0,1,0,0,0,1,1,1,0]","mutagen_history":"[0,1,1,1,1,1,1,0,1,1,1,0,0,0,1]","location_rts":"[15327,291,115,267,178,83,244,163,220,235,218,283,115,290,403]","trial_type":"fractal-mutation","trial_index":83,"time_elapsed":5862123,"internal_node_id":"0.0-5.0-29.0"},{"group":"square cycles (cube, non-group)","fractal_assignment":["../images/ylw_pnk.png","../images/org_blu.png","../images/gry_blk.png","../images/ylw_slt.png","../images/pnk_blu.png","../images/cyn_red.png","../images/blu_wht.png","../images/grn_red.png"],"mutagen_generator_assignment":[1,0],"goal":6,"start":4,"action_noise":0.1,"location_history":"[4,7,3,0,4,7,3,2,6]","action_history":"[0,0,0,1,0,1,1,1]","mutagen_history":"[1,1,1,0,1,0,0,0]","location_rts":"[27153,571,267,267,659,514,131,667]","trial_type":"fractal-mutation","trial_index":84,"time_elapsed":5904027,"internal_node_id":"0.0-5.0-30.0"},{"group":"square cycles (cube, non-group)","fractal_assignment":["../images/ylw_pnk.png","../images/org_blu.png","../images/gry_blk.png","../images/ylw_slt.png","../images/pnk_blu.png","../images/cyn_red.png","../images/blu_wht.png","../images/grn_red.png"],"mutagen_generator_assignment":[1,0],"goal":4,"start":6,"action_noise":0.1,"location_history":"[6,5,4]","action_history":"[0,0]","mutagen_history":"[1,1]","location_rts":"[635,106]","trial_type":"fractal-mutation","trial_index":85,"time_elapsed":5910314,"internal_node_id":"0.0-5.0-31.0"},{"group":"square cycles (cube, non-group)","fractal_assignment":["../images/ylw_pnk.png","../images/org_blu.png","../images/gry_blk.png","../images/ylw_slt.png","../images/pnk_blu.png","../images/cyn_red.png","../images/blu_wht.png","../images/grn_red.png"],"mutagen_generator_assignment":[1,0],"goal":2,"start":4,"action_noise":0.1,"location_history":"[4,7,6,5,1,0,4,7,3,2]","action_history":"[0,0,0,1,1,1,0,1,1]","mutagen_history":"[1,1,1,0,0,0,1,0,0]","location_rts":"[8380,314,651,251,419,219,575,155,395]","trial_type":"fractal-mutation","trial_index":86,"time_elapsed":5934369,"internal_node_id":"0.0-5.0-32.0"},{"group":"square cycles (cube, non-group)","fractal_assignment":["../images/ylw_pnk.png","../images/org_blu.png","../images/gry_blk.png","../images/ylw_slt.png","../images/pnk_blu.png","../images/cyn_red.png","../images/blu_wht.png","../images/grn_red.png"],"mutagen_generator_assignment":[1,0],"goal":0,"start":2,"action_noise":0.1,"location_history":"[2,6,5,4,7,6,5,4,7,6,7,3,2,6,7,3,0]","action_history":"[1,0,0,0,0,0,0,0,0,0,0,1,1,1,0,0]","mutagen_history":"[0,1,1,1,1,1,1,1,1,1,1,0,0,0,1,1]","location_rts":"[9027,364,355,252,281,259,459,261,218,356,67,235,236,398,898,39]","trial_type":"fractal-mutation","trial_index":87,"time_elapsed":5967914,"internal_node_id":"0.0-5.0-33.0"},{"group":"square cycles (cube, non-group)","fractal_assignment":["../images/ylw_pnk.png","../images/org_blu.png","../images/gry_blk.png","../images/ylw_slt.png","../images/pnk_blu.png","../images/cyn_red.png","../images/blu_wht.png","../images/grn_red.png"],"mutagen_generator_assignment":[1,0],"goal":5,"start":0,"action_noise":0.1,"location_history":"[0,1,2,3,0,1,2,3,0,1,0,1,0,1,2,6,5]","action_history":"[0,0,0,0,0,0,0,0,0,1,1,1,0,0,1,0]","mutagen_history":"[1,1,1,1,1,1,1,1,1,0,0,0,1,1,0,1]","location_rts":"[357,81,299,450,491,186,259,562,475,459,315,1907,444,458,434,555]","trial_type":"fractal-mutation","trial_index":88,"time_elapsed":5995489,"internal_node_id":"0.0-5.0-34.0"},{"group":"square cycles (cube, non-group)","fractal_assignment":["../images/ylw_pnk.png","../images/org_blu.png","../images/gry_blk.png","../images/ylw_slt.png","../images/pnk_blu.png","../images/cyn_red.png","../images/blu_wht.png","../images/grn_red.png"],"mutagen_generator_assignment":[1,0],"goal":1,"start":5,"action_noise":0.1,"location_history":"[5,4,5,1]","action_history":"[0,1,1]","mutagen_history":"[1,0,0]","location_rts":"[637,355,162]","trial_type":"fractal-mutation","trial_index":89,"time_elapsed":6003208,"internal_node_id":"0.0-5.0-35.0"},{"group":"square cycles (cube, non-group)","fractal_assignment":["../images/ylw_pnk.png","../images/org_blu.png","../images/gry_blk.png","../images/ylw_slt.png","../images/pnk_blu.png","../images/cyn_red.png","../images/blu_wht.png","../images/grn_red.png"],"mutagen_generator_assignment":[1,0],"goal":7,"start":1,"action_noise":0.1,"location_history":"[1,2,6,5,1,2,3,0,1,0,4,5,4,5,1,0,1,2,3,0,1,0,4,5,1,0,4,7]","action_history":"[0,0,0,1,0,0,0,0,1,1,1,0,1,1,1,0,0,0,0,1,1,1,1,1,1,1,0]","mutagen_history":"[1,1,1,0,1,1,1,1,0,0,0,1,0,0,0,1,1,1,1,0,0,0,0,0,0,0,1]","location_rts":"[556,131,244,6619,458,156,403,409,199,138,148,291,491,91,371,50,130,211,547,811,253,116,419,267,1236,202,131]","trial_type":"fractal-mutation","trial_index":90,"time_elapsed":6049369,"internal_node_id":"0.0-5.0-36.0"},{"group":"square cycles (cube, non-group)","fractal_assignment":["../images/ylw_pnk.png","../images/org_blu.png","../images/gry_blk.png","../images/ylw_slt.png","../images/pnk_blu.png","../images/cyn_red.png","../images/blu_wht.png","../images/grn_red.png"],"mutagen_generator_assignment":[1,0],"goal":3,"start":7,"action_noise":0.1,"location_history":"[7,6,5,4,7,6,5,4,7,6,5,1,0,1,2,3]","action_history":"[0,0,0,0,0,0,0,0,0,0,1,1,0,0,0]","mutagen_history":"[1,1,1,1,1,1,1,1,1,1,0,0,1,1,1]","location_rts":"[781,155,354,457,451,354,466,562,1459,299,306,218,115,59,321]","trial_type":"fractal-mutation","trial_index":91,"time_elapsed":6074552,"internal_node_id":"0.0-5.0-37.0"},{"group":"square cycles (cube, non-group)","fractal_assignment":["../images/ylw_pnk.png","../images/org_blu.png","../images/gry_blk.png","../images/ylw_slt.png","../images/pnk_blu.png","../images/cyn_red.png","../images/blu_wht.png","../images/grn_red.png"],"mutagen_generator_assignment":[1,0],"goal":6,"start":3,"action_noise":0.1,"location_history":"[3,0,4,5,4,5,1,0,1,2,3,0,4,7,6]","action_history":"[0,1,1,0,1,1,1,0,0,0,0,1,0,0]","mutagen_history":"[1,0,0,1,0,0,0,1,1,1,1,0,1,1]","location_rts":"[1994,210,642,2719,10,372,500,330,171,91,172,403,19,363]","trial_type":"fractal-mutation","trial_index":92,"time_elapsed":6100411,"internal_node_id":"0.0-5.0-38.0"},{"group":"square cycles (cube, non-group)","fractal_assignment":["../images/ylw_pnk.png","../images/org_blu.png","../images/gry_blk.png","../images/ylw_slt.png","../images/pnk_blu.png","../images/cyn_red.png","../images/blu_wht.png","../images/grn_red.png"],"mutagen_generator_assignment":[1,0],"goal":2,"start":6,"action_noise":0.1,"location_history":"[6,5,1,0,1,2]","action_history":"[0,1,1,0,0]","mutagen_history":"[1,0,0,1,1]","location_rts":"[6419,435,314,146,3]","trial_type":"fractal-mutation","trial_index":93,"time_elapsed":6116338,"internal_node_id":"0.0-5.0-39.0"},{"group":"square cycles (cube, non-group)","fractal_assignment":["../images/ylw_pnk.png","../images/org_blu.png","../images/gry_blk.png","../images/ylw_slt.png","../images/pnk_blu.png","../images/cyn_red.png","../images/blu_wht.png","../images/grn_red.png"],"mutagen_generator_assignment":[1,0],"goal":1,"start":2,"action_noise":0.1,"location_history":"[2,6,5,4,5,4,7,6,7,6,5,4,5,1]","action_history":"[1,0,0,1,0,0,0,1,0,0,0,1,1]","mutagen_history":"[0,1,1,0,1,1,1,0,1,1,1,0,0]","location_rts":"[1147,437,259,531,370,299,403,203,187,131,227,490,322]","trial_type":"fractal-mutation","trial_index":94,"time_elapsed":6138146,"internal_node_id":"0.0-5.0-40.0"},{"group":"square cycles (cube, non-group)","fractal_assignment":["../images/ylw_pnk.png","../images/org_blu.png","../images/gry_blk.png","../images/ylw_slt.png","../images/pnk_blu.png","../images/cyn_red.png","../images/blu_wht.png","../images/grn_red.png"],"mutagen_generator_assignment":[1,0],"goal":0,"start":1,"action_noise":0.1,"location_history":"[1,0]","action_history":"[1]","mutagen_history":"[0]","location_rts":"[9421]","trial_type":"fractal-mutation","trial_index":95,"time_elapsed":6152090,"internal_node_id":"0.0-5.0-41.0"},{"group":"square cycles (cube, non-group)","fractal_assignment":["../images/ylw_pnk.png","../images/org_blu.png","../images/gry_blk.png","../images/ylw_slt.png","../images/pnk_blu.png","../images/cyn_red.png","../images/blu_wht.png","../images/grn_red.png"],"mutagen_generator_assignment":[1,0],"goal":4,"start":0,"action_noise":0.1,"location_history":"[0,4]","action_history":"[1]","mutagen_history":"[0]","location_rts":"[1061]","trial_type":"fractal-mutation","trial_index":96,"time_elapsed":6157675,"internal_node_id":"0.0-5.0-42.0"},{"group":"square cycles (cube, non-group)","fractal_assignment":["../images/ylw_pnk.png","../images/org_blu.png","../images/gry_blk.png","../images/ylw_slt.png","../images/pnk_blu.png","../images/cyn_red.png","../images/blu_wht.png","../images/grn_red.png"],"mutagen_generator_assignment":[1,0],"goal":6,"start":4,"action_noise":0.1,"location_history":"[4,5,4,7,6]","action_history":"[1,0,0,0]","mutagen_history":"[0,1,1,1]","location_rts":"[23026,315,402,467]","trial_type":"fractal-mutation","trial_index":97,"time_elapsed":6189473,"internal_node_id":"0.0-5.0-43.0"},{"group":"square cycles (cube, non-group)","fractal_assignment":["../images/ylw_pnk.png","../images/org_blu.png","../images/gry_blk.png","../images/ylw_slt.png","../images/pnk_blu.png","../images/cyn_red.png","../images/blu_wht.png","../images/grn_red.png"],"mutagen_generator_assignment":[1,0],"goal":3,"start":6,"action_noise":0.1,"location_history":"[6,7,6,7,3]","action_history":"[1,0,0,1]","mutagen_history":"[0,1,1,0]","location_rts":"[8947,338,285,16329]","trial_type":"fractal-mutation","trial_index":98,"time_elapsed":6222969,"internal_node_id":"0.0-5.0-44.0"},{"group":"square cycles (cube, non-group)","fractal_assignment":["../images/ylw_pnk.png","../images/org_blu.png","../images/gry_blk.png","../images/ylw_slt.png","../images/pnk_blu.png","../images/cyn_red.png","../images/blu_wht.png","../images/grn_red.png"],"mutagen_generator_assignment":[1,0],"goal":7,"start":3,"action_noise":0.1,"location_history":"[3,0,4,7]","action_history":"[0,0,0]","mutagen_history":"[1,1,1]","location_rts":"[6820,67,75]","trial_type":"fractal-mutation","trial_index":99,"time_elapsed":6236497,"internal_node_id":"0.0-5.0-45.0"},{"group":"square cycles (cube, non-group)","fractal_assignment":["../images/ylw_pnk.png","../images/org_blu.png","../images/gry_blk.png","../images/ylw_slt.png","../images/pnk_blu.png","../images/cyn_red.png","../images/blu_wht.png","../images/grn_red.png"],"mutagen_generator_assignment":[1,0],"goal":5,"start":7,"action_noise":0.1,"location_history":"[7,6,7,6,5]","action_history":"[0,1,0,0]","mutagen_history":"[1,0,1,1]","location_rts":"[5411,635,338,170]","trial_type":"fractal-mutation","trial_index":100,"time_elapsed":6250640,"internal_node_id":"0.0-5.0-46.0"},{"group":"square cycles (cube, non-group)","fractal_assignment":["../images/ylw_pnk.png","../images/org_blu.png","../images/gry_blk.png","../images/ylw_slt.png","../images/pnk_blu.png","../images/cyn_red.png","../images/blu_wht.png","../images/grn_red.png"],"mutagen_generator_assignment":[1,0],"goal":1,"start":5,"action_noise":0.1,"location_history":"[5,4,5,4,7,6,5,4,7,6,5,4,7,3,0,4,5,4,5,1]","action_history":"[0,0,0,0,0,0,0,0,0,0,0,0,1,1,1,0,0,1,1]","mutagen_history":"[1,1,1,1,1,1,1,1,1,1,1,1,0,0,0,1,1,0,0]","location_rts":"[252,44,19,98,3,90,4468,91,258,139,107,171,203,82,218,283,131,34,570]","trial_type":"fractal-mutation","trial_index":101,"time_elapsed":6280835,"internal_node_id":"0.0-5.0-47.0"},{"group":"square cycles (cube, non-group)","fractal_assignment":["../images/ylw_pnk.png","../images/org_blu.png","../images/gry_blk.png","../images/ylw_slt.png","../images/pnk_blu.png","../images/cyn_red.png","../images/blu_wht.png","../images/grn_red.png"],"mutagen_generator_assignment":[1,0],"goal":6,"start":1,"action_noise":0.1,"location_history":"[1,2,3,2,6]","action_history":"[0,0,1,0]","mutagen_history":"[1,1,0,1]","location_rts":"[2412,371,404,387]","trial_type":"fractal-mutation","trial_index":102,"time_elapsed":6291994,"internal_node_id":"0.0-5.0-48.0"},{"group":"square cycles (cube, non-group)","fractal_assignment":["../images/ylw_pnk.png","../images/org_blu.png","../images/gry_blk.png","../images/ylw_slt.png","../images/pnk_blu.png","../images/cyn_red.png","../images/blu_wht.png","../images/grn_red.png"],"mutagen_generator_assignment":[1,0],"goal":0,"start":6,"action_noise":0.1,"location_history":"[6,5,1,0]","action_history":"[0,1,1]","mutagen_history":"[1,0,0]","location_rts":"[8259,604,297]","trial_type":"fractal-mutation","trial_index":103,"time_elapsed":6307721,"internal_node_id":"0.0-5.0-49.0"},{"view_history":"[{\"page_index\":0,\"viewing_time\":3100}]","rt":3100,"trial_type":"instructions","trial_index":104,"time_elapsed":6311822,"internal_node_id":"0.0-6.0"},{"rt":1286,"responses":"{\"Q0\":\"\"}","trial_type":"survey-text","trial_index":105,"time_elapsed":6314144,"internal_node_id":"0.0-7.0"}]