[{"view_history":"[{\"page_index\":0,\"viewing_time\":2178},{\"page_index\":1,\"viewing_time\":4134}]","rt":6314,"trial_type":"instructions","trial_index":0,"time_elapsed":6316,"internal_node_id":"0.0-0.0"},{"view_history":"[{\"page_index\":0,\"viewing_time\":16281},{\"page_index\":1,\"viewing_time\":4461}]","rt":20743,"trial_type":"instructions","trial_index":1,"time_elapsed":28063,"internal_node_id":"0.0-1.0"},{"group":"hexagon_tri","room_assignment":["grey","blue","yellow","red","purple","green"],"door_color_assignment":["black","white"],"door_generator_assignment":[0,1],"goal":3,"start":5,"action_noise":0,"location_history":"[5,0,1,3]","action_history":"[1,1,0]","door_history":"[1,1,0]","location_rts":"[48459,21867,454]","trial_type":"two-door-navigation","trial_index":2,"time_elapsed":105955,"internal_node_id":"0.0-2.0-0.0"},{"group":"hexagon_tri","room_assignment":["grey","blue","yellow","red","purple","green"],"door_color_assignment":["black","white"],"door_generator_assignment":[0,1],"goal":1,"start":3,"action_noise":0,"location_history":"[3,4,2,1]","action_history":"[1,1,0]","door_history":"[1,1,0]","location_rts":"[1864,1661,1007]","trial_type":"two-door-navigation","trial_index":3,"time_elapsed":117563,"internal_node_id":"0.0-2.0-1.0"},{"group":"hexagon_tri","room_assignment":["grey","blue","yellow","red","purple","green"],"door_color_assignment":["black","white"],"door_generator_assignment":[0,1],"goal":0,"start":1,"action_noise":0,"location_history":"[1,3,4,0]","action_history":"[0,1,0]","door_history":"[0,1,0]","location_rts":"[1856,766,765]","trial_type":"two-door-navigation","trial_index":4,"time_elapsed":128030,"internal_node_id":"0.0-2.0-2.0"},{"group":"hexagon_tri","room_assignment":["grey","blue","yellow","red","purple","green"],"door_color_assignment":["black","white"],"door_generator_assignment":[0,1],"goal":3,"start":0,"action_noise":0,"location_history":"[0,5,4,2,1,5,4,2,1,3]","action_history":"[0,0,1,0,1,0,1,0,0]","door_history":"[0,0,1,0,1,0,1,0,0]","location_rts":"[1526,1172,763,1008,1232,668,918,1313,1563]","trial_type":"two-door-navigation","trial_index":5,"time_elapsed":151398,"internal_node_id":"0.0-2.0-3.0"},{"group":"hexagon_tri","room_assignment":["grey","blue","yellow","red","purple","green"],"door_color_assignment":["black","white"],"door_generator_assignment":[0,1],"goal":4,"start":3,"action_noise":0,"location_history":"[3,2,3,2,3,2,1,5,4]","action_history":"[0,1,0,1,0,0,1,0]","door_history":"[0,1,0,1,0,0,1,0]","location_rts":"[5347,778,5262,870,753,395,1353,1230]","trial_type":"two-door-navigation","trial_index":6,"time_elapsed":179564,"internal_node_id":"0.0-2.0-4.0"},{"group":"hexagon_tri","room_assignment":["grey","blue","yellow","red","purple","green"],"door_color_assignment":["black","white"],"door_generator_assignment":[0,1],"goal":2,"start":4,"action_noise":0,"location_history":"[4,2]","action_history":"[1]","door_history":"[1]","location_rts":"[1295]","trial_type":"two-door-navigation","trial_index":7,"time_elapsed":185884,"internal_node_id":"0.0-2.0-5.0"},{"group":"hexagon_tri","room_assignment":["grey","blue","yellow","red","purple","green"],"door_color_assignment":["black","white"],"door_generator_assignment":[0,1],"goal":1,"start":2,"action_noise":0,"location_history":"[2,1]","action_history":"[0]","door_history":"[0]","location_rts":"[1657]","trial_type":"two-door-navigation","trial_index":8,"time_elapsed":192566,"internal_node_id":"0.0-2.0-6.0"},{"group":"hexagon_tri","room_assignment":["grey","blue","yellow","red","purple","green"],"door_color_assignment":["black","white"],"door_generator_assignment":[0,1],"goal":5,"start":1,"action_noise":0,"location_history":"[1,5]","action_history":"[1]","door_history":"[1]","location_rts":"[1385]","trial_type":"two-door-navigation","trial_index":9,"time_elapsed":198975,"internal_node_id":"0.0-2.0-7.0"},{"group":"hexagon_tri","room_assignment":["grey","blue","yellow","red","purple","green"],"door_color_assignment":["black","white"],"door_generator_assignment":[0,1],"goal":4,"start":5,"action_noise":0,"location_history":"[5,4]","action_history":"[0]","door_history":"[0]","location_rts":"[2136]","trial_type":"two-door-navigation","trial_index":10,"time_elapsed":206135,"internal_node_id":"0.0-2.0-8.0"},{"group":"hexagon_tri","room_assignment":["grey","blue","yellow","red","purple","green"],"door_color_assignment":["black","white"],"door_generator_assignment":[0,1],"goal":2,"start":4,"action_noise":0,"location_history":"[4,2]","action_history":"[1]","door_history":"[1]","location_rts":"[1575]","trial_type":"two-door-navigation","trial_index":11,"time_elapsed":212741,"internal_node_id":"0.0-2.0-9.0"},{"group":"hexagon_tri","room_assignment":["grey","blue","yellow","red","purple","green"],"door_color_assignment":["black","white"],"door_generator_assignment":[0,1],"goal":0,"start":2,"action_noise":0,"location_history":"[2,1,5,0]","action_history":"[0,1,1]","door_history":"[0,1,1]","location_rts":"[1264,766,1235]","trial_type":"two-door-navigation","trial_index":12,"time_elapsed":223077,"internal_node_id":"0.0-2.0-10.0"},{"group":"hexagon_tri","room_assignment":["grey","blue","yellow","red","purple","green"],"door_color_assignment":["black","white"],"door_generator_assignment":[0,1],"goal":1,"start":0,"action_noise":0,"location_history":"[0,5,4,2,1]","action_history":"[0,0,1,0]","door_history":"[0,0,1,0]","location_rts":"[2884,1184,1503,1349]","trial_type":"two-door-navigation","trial_index":13,"time_elapsed":238094,"internal_node_id":"0.0-2.0-11.0"},{"group":"hexagon_tri","room_assignment":["grey","blue","yellow","red","purple","green"],"door_color_assignment":["black","white"],"door_generator_assignment":[0,1],"goal":3,"start":1,"action_noise":0,"location_history":"[1,3]","action_history":"[0]","door_history":"[0]","location_rts":"[15716]","trial_type":"two-door-navigation","trial_index":14,"time_elapsed":258834,"internal_node_id":"0.0-2.0-12.0"},{"group":"hexagon_tri","room_assignment":["grey","blue","yellow","red","purple","green"],"door_color_assignment":["black","white"],"door_generator_assignment":[0,1],"goal":5,"start":3,"action_noise":0,"location_history":"[3,4,0,1,5]","action_history":"[1,0,1,1]","door_history":"[1,0,1,1]","location_rts":"[1837,2200,187,260]","trial_type":"two-door-navigation","trial_index":15,"time_elapsed":271422,"internal_node_id":"0.0-2.0-13.0"},{"group":"hexagon_tri","room_assignment":["grey","blue","yellow","red","purple","green"],"door_color_assignment":["black","white"],"door_generator_assignment":[0,1],"goal":4,"start":5,"action_noise":0,"location_history":"[5,0,5,4]","action_history":"[1,0,0]","door_history":"[1,0,0]","location_rts":"[1755,325,631]","trial_type":"two-door-navigation","trial_index":16,"time_elapsed":281233,"internal_node_id":"0.0-2.0-14.0"},{"group":"hexagon_tri","room_assignment":["grey","blue","yellow","red","purple","green"],"door_color_assignment":["black","white"],"door_generator_assignment":[0,1],"goal":0,"start":4,"action_noise":0,"location_history":"[4,0]","action_history":"[0]","door_history":"[0]","location_rts":"[3069]","trial_type":"two-door-navigation","trial_index":17,"time_elapsed":289329,"internal_node_id":"0.0-2.0-15.0"},{"group":"hexagon_tri","room_assignment":["grey","blue","yellow","red","purple","green"],"door_color_assignment":["black","white"],"door_generator_assignment":[0,1],"goal":3,"start":0,"action_noise":0,"location_history":"[0,5,4,2,1,5,4,0,1,3]","action_history":"[0,0,1,0,1,0,0,1,0]","door_history":"[0,0,1,0,1,0,0,1,0]","location_rts":"[2829,1047,1341,1579,1048,968,679,286,820]","trial_type":"two-door-navigation","trial_index":18,"time_elapsed":313150,"internal_node_id":"0.0-2.0-16.0"},{"group":"hexagon_tri","room_assignment":["grey","blue","yellow","red","purple","green"],"door_color_assignment":["black","white"],"door_generator_assignment":[0,1],"goal":1,"start":3,"action_noise":0,"location_history":"[3,2,3,4,2,1]","action_history":"[0,1,1,1,0]","door_history":"[0,1,1,1,0]","location_rts":"[1443,2755,1138,1201,899]","trial_type":"two-door-navigation","trial_index":19,"time_elapsed":329705,"internal_node_id":"0.0-2.0-17.0"},{"group":"hexagon_tri","room_assignment":["grey","blue","yellow","red","purple","green"],"door_color_assignment":["black","white"],"door_generator_assignment":[0,1],"goal":5,"start":1,"action_noise":0,"location_history":"[1,5]","action_history":"[1]","door_history":"[1]","location_rts":"[1252]","trial_type":"two-door-navigation","trial_index":20,"time_elapsed":335986,"internal_node_id":"0.0-2.0-18.0"},{"group":"hexagon_tri","room_assignment":["grey","blue","yellow","red","purple","green"],"door_color_assignment":["black","white"],"door_generator_assignment":[0,1],"goal":2,"start":5,"action_noise":0,"location_history":"[5,0,1,3,4,0,1,3,2]","action_history":"[1,1,0,1,0,1,0,0]","door_history":"[1,1,0,1,0,1,0,0]","location_rts":"[2119,320,694,731,1118,677,1064,1487]","trial_type":"two-door-navigation","trial_index":21,"time_elapsed":356395,"internal_node_id":"0.0-2.0-19.0"},{"group":"hexagon_tri","room_assignment":["grey","blue","yellow","red","purple","green"],"door_color_assignment":["black","white"],"door_generator_assignment":[0,1],"goal":4,"start":2,"action_noise":0,"location_history":"[2,3,2,1,5,0,5,4]","action_history":"[1,0,0,1,1,0,0]","door_history":"[1,0,0,1,1,0,0]","location_rts":"[2393,2260,1035,1935,855,992,715]","trial_type":"two-door-navigation","trial_index":22,"time_elapsed":377753,"internal_node_id":"0.0-2.0-20.0"},{"group":"hexagon_tri","room_assignment":["grey","blue","yellow","red","purple","green"],"door_color_assignment":["black","white"],"door_generator_assignment":[0,1],"goal":1,"start":4,"action_noise":0,"location_history":"[4,2,3,4,0,1]","action_history":"[1,1,1,0,1]","door_history":"[1,1,1,0,1]","location_rts":"[2275,236,680,1115,974]","trial_type":"two-door-navigation","trial_index":23,"time_elapsed":392148,"internal_node_id":"0.0-2.0-21.0"},{"group":"hexagon_tri","room_assignment":["grey","blue","yellow","red","purple","green"],"door_color_assignment":["black","white"],"door_generator_assignment":[0,1],"goal":3,"start":1,"action_noise":0,"location_history":"[1,3]","action_history":"[0]","door_history":"[0]","location_rts":"[2436]","trial_type":"two-door-navigation","trial_index":24,"time_elapsed":399629,"internal_node_id":"0.0-2.0-22.0"},{"group":"hexagon_tri","room_assignment":["grey","blue","yellow","red","purple","green"],"door_color_assignment":["black","white"],"door_generator_assignment":[0,1],"goal":2,"start":3,"action_noise":0,"location_history":"[3,4,0,1,5,4,0,5,0,1,5,4,0,5,4,0,1,3,2]","action_history":"[1,0,1,1,0,0,0,1,1,1,0,0,0,0,0,1,0,0]","door_history":"[1,0,1,1,0,0,0,1,1,1,0,0,0,0,0,1,0,0]","location_rts":"[1174,1142,497,928,824,413,633,1429,514,917,845,1447,1202,1051,544,1500,541,1149]","trial_type":"two-door-navigation","trial_index":25,"time_elapsed":438836,"internal_node_id":"0.0-2.0-23.0"},{"group":"hexagon_tri","room_assignment":["grey","blue","yellow","red","purple","green"],"door_color_assignment":["black","white"],"door_generator_assignment":[0,1],"goal":0,"start":2,"action_noise":0,"location_history":"[2,1,5,0]","action_history":"[0,1,1]","door_history":"[0,1,1]","location_rts":"[2764,1095,609]","trial_type":"two-door-navigation","trial_index":26,"time_elapsed":450379,"internal_node_id":"0.0-2.0-24.0"},{"group":"hexagon_tri","room_assignment":["grey","blue","yellow","red","purple","green"],"door_color_assignment":["black","white"],"door_generator_assignment":[0,1],"goal":5,"start":0,"action_noise":0,"location_history":"[0,1,5]","action_history":"[1,1]","door_history":"[1,1]","location_rts":"[4126,450]","trial_type":"two-door-navigation","trial_index":27,"time_elapsed":461010,"internal_node_id":"0.0-2.0-25.0"},{"group":"hexagon_tri","room_assignment":["grey","blue","yellow","red","purple","green"],"door_color_assignment":["black","white"],"door_generator_assignment":[0,1],"goal":2,"start":5,"action_noise":0,"location_history":"[5,4,2]","action_history":"[0,1]","door_history":"[0,1]","location_rts":"[4237,1648]","trial_type":"two-door-navigation","trial_index":28,"time_elapsed":472951,"internal_node_id":"0.0-2.0-26.0"},{"group":"hexagon_tri","room_assignment":["grey","blue","yellow","red","purple","green"],"door_color_assignment":["black","white"],"door_generator_assignment":[0,1],"goal":3,"start":2,"action_noise":0,"location_history":"[2,3]","action_history":"[1]","door_history":"[1]","location_rts":"[3741]","trial_type":"two-door-navigation","trial_index":29,"time_elapsed":481726,"internal_node_id":"0.0-2.0-27.0"},{"group":"hexagon_tri","room_assignment":["grey","blue","yellow","red","purple","green"],"door_color_assignment":["black","white"],"door_generator_assignment":[0,1],"goal":0,"start":3,"action_noise":0,"location_history":"[3,2,1,5,0]","action_history":"[0,0,1,1]","door_history":"[0,0,1,1]","location_rts":"[11424,1039,2076,550]","trial_type":"two-door-navigation","trial_index":30,"time_elapsed":504939,"internal_node_id":"0.0-2.0-28.0"},{"group":"hexagon_tri","room_assignment":["grey","blue","yellow","red","purple","green"],"door_color_assignment":["black","white"],"door_generator_assignment":[0,1],"goal":1,"start":0,"action_noise":0,"location_history":"[0,1]","action_history":"[1]","door_history":"[1]","location_rts":"[1498]","trial_type":"two-door-navigation","trial_index":31,"time_elapsed":511468,"internal_node_id":"0.0-2.0-29.0"},{"group":"hexagon_tri","room_assignment":["grey","blue","yellow","red","purple","green"],"door_color_assignment":["black","white"],"door_generator_assignment":[0,1],"goal":4,"start":1,"action_noise":0,"location_history":"[1,3,4]","action_history":"[0,1]","door_history":"[0,1]","location_rts":"[7479,2759]","trial_type":"two-door-navigation","trial_index":32,"time_elapsed":527751,"internal_node_id":"0.0-2.0-30.0"},{"group":"hexagon_tri","room_assignment":["grey","blue","yellow","red","purple","green"],"door_color_assignment":["black","white"],"door_generator_assignment":[0,1],"goal":5,"start":4,"action_noise":0,"location_history":"[4,2,3,4,2,3,4,0,5]","action_history":"[1,1,1,1,1,1,0,0]","door_history":"[1,1,1,1,1,1,0,0]","location_rts":"[1662,478,792,1015,365,14744,958,728]","trial_type":"two-door-navigation","trial_index":33,"time_elapsed":560685,"internal_node_id":"0.0-2.0-31.0"},{"group":"hexagon_tri","room_assignment":["grey","blue","yellow","red","purple","green"],"door_color_assignment":["black","white"],"door_generator_assignment":[0,1],"goal":0,"start":5,"action_noise":0,"location_history":"[5,0]","action_history":"[1]","door_history":"[1]","location_rts":"[2193]","trial_type":"two-door-navigation","trial_index":34,"time_elapsed":567904,"internal_node_id":"0.0-2.0-32.0"},{"group":"hexagon_tri","room_assignment":["grey","blue","yellow","red","purple","green"],"door_color_assignment":["black","white"],"door_generator_assignment":[0,1],"goal":3,"start":0,"action_noise":0,"location_history":"[0,1,3]","action_history":"[1,0]","door_history":"[1,0]","location_rts":"[4059,449]","trial_type":"two-door-navigation","trial_index":35,"time_elapsed":578461,"internal_node_id":"0.0-2.0-33.0"},{"group":"hexagon_tri","room_assignment":["grey","blue","yellow","red","purple","green"],"door_color_assignment":["black","white"],"door_generator_assignment":[0,1],"goal":1,"start":3,"action_noise":0,"location_history":"[3,2,3,4,0,1]","action_history":"[0,1,1,0,1]","door_history":"[0,1,1,0,1]","location_rts":"[1457,872,2589,2074,202]","trial_type":"two-door-navigation","trial_index":36,"time_elapsed":594774,"internal_node_id":"0.0-2.0-34.0"},{"group":"hexagon_tri","room_assignment":["grey","blue","yellow","red","purple","green"],"door_color_assignment":["black","white"],"door_generator_assignment":[0,1],"goal":2,"start":1,"action_noise":0,"location_history":"[1,3,2]","action_history":"[0,0]","door_history":"[0,0]","location_rts":"[12581,854]","trial_type":"two-door-navigation","trial_index":37,"time_elapsed":614275,"internal_node_id":"0.0-2.0-35.0"},{"group":"hexagon_tri","room_assignment":["grey","blue","yellow","red","purple","green"],"door_color_assignment":["black","white"],"door_generator_assignment":[0,1],"goal":4,"start":2,"action_noise":0,"location_history":"[2,3,2,1,3,2,1,3,2,1,3,4]","action_history":"[1,0,0,0,0,0,0,0,0,0,1]","door_history":"[1,0,0,0,0,0,0,0,0,0,1]","location_rts":"[12119,1068,1780,2352,833,496,576,405,579,484,927]","trial_type":"two-door-navigation","trial_index":38,"time_elapsed":651156,"internal_node_id":"0.0-2.0-36.0"},{"group":"hexagon_tri","room_assignment":["grey","blue","yellow","red","purple","green"],"door_color_assignment":["black","white"],"door_generator_assignment":[0,1],"goal":5,"start":4,"action_noise":0,"location_history":"[4,0,5]","action_history":"[0,0]","door_history":"[0,0]","location_rts":"[2199,995]","trial_type":"two-door-navigation","trial_index":39,"time_elapsed":660395,"internal_node_id":"0.0-2.0-37.0"},{"group":"hexagon_tri","room_assignment":["grey","blue","yellow","red","purple","green"],"door_color_assignment":["black","white"],"door_generator_assignment":[0,1],"goal":1,"start":5,"action_noise":0,"location_history":"[5,0,1]","action_history":"[1,1]","door_history":"[1,1]","location_rts":"[6541,141]","trial_type":"two-door-navigation","trial_index":40,"time_elapsed":673130,"internal_node_id":"0.0-2.0-38.0"},{"group":"hexagon_tri","room_assignment":["grey","blue","yellow","red","purple","green"],"door_color_assignment":["black","white"],"door_generator_assignment":[0,1],"goal":4,"start":1,"action_noise":0,"location_history":"[1,3,2,3,4]","action_history":"[0,0,1,1]","door_history":"[0,0,1,1]","location_rts":"[5461,1125,1804,1228]","trial_type":"two-door-navigation","trial_index":41,"time_elapsed":690847,"internal_node_id":"0.0-2.0-39.0"},{"group":"hexagon_tri","room_assignment":["grey","blue","yellow","red","purple","green"],"door_color_assignment":["black","white"],"door_generator_assignment":[0,1],"goal":3,"start":4,"action_noise":0,"location_history":"[4,0,1,3]","action_history":"[0,1,0]","door_history":"[0,1,0]","location_rts":"[2260,224,213]","trial_type":"two-door-navigation","trial_index":42,"time_elapsed":700649,"internal_node_id":"0.0-2.0-40.0"},{"group":"hexagon_tri","room_assignment":["grey","blue","yellow","red","purple","green"],"door_color_assignment":["black","white"],"door_generator_assignment":[0,1],"goal":2,"start":3,"action_noise":0,"location_history":"[3,2]","action_history":"[0]","door_history":"[0]","location_rts":"[3592]","trial_type":"two-door-navigation","trial_index":43,"time_elapsed":709296,"internal_node_id":"0.0-2.0-41.0"},{"group":"hexagon_tri","room_assignment":["grey","blue","yellow","red","purple","green"],"door_color_assignment":["black","white"],"door_generator_assignment":[0,1],"goal":0,"start":2,"action_noise":0,"location_history":"[2,3,2,1,5,0]","action_history":"[1,0,0,1,1]","door_history":"[1,0,0,1,1]","location_rts":"[6713,2077,1738,1986,1194]","trial_type":"two-door-navigation","trial_index":44,"time_elapsed":732135,"internal_node_id":"0.0-2.0-42.0"},{"group":"hexagon_tri","room_assignment":["grey","blue","yellow","red","purple","green"],"door_color_assignment":["black","white"],"door_generator_assignment":[0,1],"goal":5,"start":0,"action_noise":0,"location_history":"[0,5]","action_history":"[0]","door_history":"[0]","location_rts":"[4569]","trial_type":"two-door-navigation","trial_index":45,"time_elapsed":741732,"internal_node_id":"0.0-2.0-43.0"},{"group":"hexagon_tri","room_assignment":["grey","blue","yellow","red","purple","green"],"door_color_assignment":["black","white"],"door_generator_assignment":[0,1],"goal":0,"start":5,"action_noise":0,"location_history":"[5,0]","action_history":"[1]","door_history":"[1]","location_rts":"[1610]","trial_type":"two-door-navigation","trial_index":46,"time_elapsed":748384,"internal_node_id":"0.0-2.0-44.0"},{"group":"hexagon_tri","room_assignment":["grey","blue","yellow","red","purple","green"],"door_color_assignment":["black","white"],"door_generator_assignment":[0,1],"goal":2,"start":0,"action_noise":0,"location_history":"[0,1,3,4,2]","action_history":"[1,0,1,1]","door_history":"[1,0,1,1]","location_rts":"[5041,1343,1373,1304]","trial_type":"two-door-navigation","trial_index":47,"time_elapsed":765549,"internal_node_id":"0.0-2.0-45.0"},{"group":"hexagon_tri","room_assignment":["grey","blue","yellow","red","purple","green"],"door_color_assignment":["black","white"],"door_generator_assignment":[0,1],"goal":4,"start":2,"action_noise":0,"location_history":"[2,1,3,2,1,3,2,1,3,4]","action_history":"[0,0,0,0,0,0,0,0,1]","door_history":"[0,0,0,0,0,0,0,0,1]","location_rts":"[3906,485,615,297,289,989,263,998,365]","trial_type":"two-door-navigation","trial_index":48,"time_elapsed":786973,"internal_node_id":"0.0-2.0-46.0"},{"group":"hexagon_tri","room_assignment":["grey","blue","yellow","red","purple","green"],"door_color_assignment":["black","white"],"door_generator_assignment":[0,1],"goal":1,"start":4,"action_noise":0,"location_history":"[4,0,1]","action_history":"[0,1]","door_history":"[0,1]","location_rts":"[2788,103]","trial_type":"two-door-navigation","trial_index":49,"time_elapsed":795911,"internal_node_id":"0.0-2.0-47.0"},{"group":"hexagon_tri","room_assignment":["grey","blue","yellow","red","purple","green"],"door_color_assignment":["black","white"],"door_generator_assignment":[0,1],"goal":5,"start":1,"action_noise":0,"location_history":"[1,5]","action_history":"[1]","door_history":"[1]","location_rts":"[3653]","trial_type":"two-door-navigation","trial_index":50,"time_elapsed":804589,"internal_node_id":"0.0-2.0-48.0"},{"group":"hexagon_tri","room_assignment":["grey","blue","yellow","red","purple","green"],"door_color_assignment":["black","white"],"door_generator_assignment":[0,1],"goal":3,"start":5,"action_noise":0,"location_history":"[5,4,2,1,3]","action_history":"[0,1,0,0]","door_history":"[0,1,0,0]","location_rts":"[4491,1263,2205,729]","trial_type":"two-door-navigation","trial_index":51,"time_elapsed":821400,"internal_node_id":"0.0-2.0-49.0"},{"view_history":"[{\"page_index\":0,\"viewing_time\":3095}]","rt":3096,"trial_type":"instructions","trial_index":52,"time_elapsed":825499,"internal_node_id":"0.0-3.0"},{"view_history":"[{\"page_index\":0,\"viewing_time\":1822},{\"page_index\":1,\"viewing_time\":1740382}]","rt":1742204,"trial_type":"instructions","trial_index":53,"time_elapsed":2568704,"internal_node_id":"0.0-4.0"},{"group":"hexagon_bi","fractal_assignment":["../images/org_blu.png","../images/cyn_red.png","../images/ylw_slt.png","../images/blu_wht.png","../images/gry_blk.png","../images/pnk_blu.png"],"mutagen_generator_assignment":[0,1],"goal":3,"start":5,"action_noise":0,"location_history":"[5,4,3]","action_history":"[1,0]","mutagen_history":"[1,0]","location_rts":"[4346,658]","trial_type":"fractal-mutation","trial_index":54,"time_elapsed":2579824,"internal_node_id":"0.0-5.0-0.0"},{"group":"hexagon_bi","fractal_assignment":["../images/org_blu.png","../images/cyn_red.png","../images/ylw_slt.png","../images/blu_wht.png","../images/gry_blk.png","../images/pnk_blu.png"],"mutagen_generator_assignment":[0,1],"goal":1,"start":3,"action_noise":0,"location_history":"[3,2,1]","action_history":"[1,0]","mutagen_history":"[1,0]","location_rts":"[807,735]","trial_type":"fractal-mutation","trial_index":55,"time_elapsed":2587451,"internal_node_id":"0.0-5.0-1.0"},{"group":"hexagon_bi","fractal_assignment":["../images/org_blu.png","../images/cyn_red.png","../images/ylw_slt.png","../images/blu_wht.png","../images/gry_blk.png","../images/pnk_blu.png"],"mutagen_generator_assignment":[0,1],"goal":0,"start":1,"action_noise":0,"location_history":"[1,2,1,0]","action_history":"[0,0,1]","mutagen_history":"[0,0,1]","location_rts":"[16273,1087,358]","trial_type":"fractal-mutation","trial_index":56,"time_elapsed":2612276,"internal_node_id":"0.0-5.0-2.0"},{"group":"hexagon_bi","fractal_assignment":["../images/org_blu.png","../images/cyn_red.png","../images/ylw_slt.png","../images/blu_wht.png","../images/gry_blk.png","../images/pnk_blu.png"],"mutagen_generator_assignment":[0,1],"goal":3,"start":0,"action_noise":0,"location_history":"[0,1,2,3]","action_history":"[1,0,1]","mutagen_history":"[1,0,1]","location_rts":"[1468,213,427]","trial_type":"fractal-mutation","trial_index":57,"time_elapsed":2621498,"internal_node_id":"0.0-5.0-3.0"},{"group":"hexagon_bi","fractal_assignment":["../images/org_blu.png","../images/cyn_red.png","../images/ylw_slt.png","../images/blu_wht.png","../images/gry_blk.png","../images/pnk_blu.png"],"mutagen_generator_assignment":[0,1],"goal":4,"start":3,"action_noise":0,"location_history":"[3,2,1,2,3,4]","action_history":"[1,0,0,1,0]","mutagen_history":"[1,0,0,1,0]","location_rts":"[1097,1042,1365,202,223]","trial_type":"fractal-mutation","trial_index":58,"time_elapsed":2634604,"internal_node_id":"0.0-5.0-4.0"},{"group":"hexagon_bi","fractal_assignment":["../images/org_blu.png","../images/cyn_red.png","../images/ylw_slt.png","../images/blu_wht.png","../images/gry_blk.png","../images/pnk_blu.png"],"mutagen_generator_assignment":[0,1],"goal":2,"start":4,"action_noise":0,"location_history":"[4,5,4,3,2]","action_history":"[1,1,0,1]","mutagen_history":"[1,1,0,1]","location_rts":"[885,760,175,615]","trial_type":"fractal-mutation","trial_index":59,"time_elapsed":2645206,"internal_node_id":"0.0-5.0-5.0"},{"group":"hexagon_bi","fractal_assignment":["../images/org_blu.png","../images/cyn_red.png","../images/ylw_slt.png","../images/blu_wht.png","../images/gry_blk.png","../images/pnk_blu.png"],"mutagen_generator_assignment":[0,1],"goal":1,"start":2,"action_noise":0,"location_history":"[2,3,4,5,0,1]","action_history":"[1,0,1,0,1]","mutagen_history":"[1,0,1,0,1]","location_rts":"[2197,528,531,502,466]","trial_type":"fractal-mutation","trial_index":60,"time_elapsed":2658616,"internal_node_id":"0.0-5.0-6.0"},{"group":"hexagon_bi","fractal_assignment":["../images/org_blu.png","../images/cyn_red.png","../images/ylw_slt.png","../images/blu_wht.png","../images/gry_blk.png","../images/pnk_blu.png"],"mutagen_generator_assignment":[0,1],"goal":5,"start":1,"action_noise":0,"location_history":"[1,2,3,4,5]","action_history":"[0,1,0,1]","mutagen_history":"[0,1,0,1]","location_rts":"[2094,1885,1062,735]","trial_type":"fractal-mutation","trial_index":61,"time_elapsed":2672534,"internal_node_id":"0.0-5.0-7.0"},{"group":"hexagon_bi","fractal_assignment":["../images/org_blu.png","../images/cyn_red.png","../images/ylw_slt.png","../images/blu_wht.png","../images/gry_blk.png","../images/pnk_blu.png"],"mutagen_generator_assignment":[0,1],"goal":4,"start":5,"action_noise":0,"location_history":"[5,4]","action_history":"[1]","mutagen_history":"[1]","location_rts":"[1400]","trial_type":"fractal-mutation","trial_index":62,"time_elapsed":2678988,"internal_node_id":"0.0-5.0-8.0"},{"group":"hexagon_bi","fractal_assignment":["../images/org_blu.png","../images/cyn_red.png","../images/ylw_slt.png","../images/blu_wht.png","../images/gry_blk.png","../images/pnk_blu.png"],"mutagen_generator_assignment":[0,1],"goal":2,"start":4,"action_noise":0,"location_history":"[4,5,4,3,2]","action_history":"[1,1,0,1]","mutagen_history":"[1,1,0,1]","location_rts":"[1860,745,140,588]","trial_type":"fractal-mutation","trial_index":63,"time_elapsed":2690506,"internal_node_id":"0.0-5.0-9.0"},{"group":"hexagon_bi","fractal_assignment":["../images/org_blu.png","../images/cyn_red.png","../images/ylw_slt.png","../images/blu_wht.png","../images/gry_blk.png","../images/pnk_blu.png"],"mutagen_generator_assignment":[0,1],"goal":0,"start":2,"action_noise":0,"location_history":"[2,3,4,5,0]","action_history":"[1,0,1,0]","mutagen_history":"[1,0,1,0]","location_rts":"[2992,313,707,227]","trial_type":"fractal-mutation","trial_index":64,"time_elapsed":2702885,"internal_node_id":"0.0-5.0-10.0"},{"group":"hexagon_bi","fractal_assignment":["../images/org_blu.png","../images/cyn_red.png","../images/ylw_slt.png","../images/blu_wht.png","../images/gry_blk.png","../images/pnk_blu.png"],"mutagen_generator_assignment":[0,1],"goal":1,"start":0,"action_noise":0,"location_history":"[0,5,0,1]","action_history":"[0,0,1]","mutagen_history":"[0,0,1]","location_rts":"[17807,1129,745]","trial_type":"fractal-mutation","trial_index":65,"time_elapsed":2729659,"internal_node_id":"0.0-5.0-11.0"},{"group":"hexagon_bi","fractal_assignment":["../images/org_blu.png","../images/cyn_red.png","../images/ylw_slt.png","../images/blu_wht.png","../images/gry_blk.png","../images/pnk_blu.png"],"mutagen_generator_assignment":[0,1],"goal":3,"start":1,"action_noise":0,"location_history":"[1,0,5,4,3]","action_history":"[1,0,1,0]","mutagen_history":"[1,0,1,0]","location_rts":"[1905,381,230,372]","trial_type":"fractal-mutation","trial_index":66,"time_elapsed":2740695,"internal_node_id":"0.0-5.0-12.0"},{"group":"hexagon_bi","fractal_assignment":["../images/org_blu.png","../images/cyn_red.png","../images/ylw_slt.png","../images/blu_wht.png","../images/gry_blk.png","../images/pnk_blu.png"],"mutagen_generator_assignment":[0,1],"goal":5,"start":3,"action_noise":0,"location_history":"[3,4,5]","action_history":"[0,1]","mutagen_history":"[0,1]","location_rts":"[2386,315]","trial_type":"fractal-mutation","trial_index":67,"time_elapsed":2749477,"internal_node_id":"0.0-5.0-13.0"},{"group":"hexagon_bi","fractal_assignment":["../images/org_blu.png","../images/cyn_red.png","../images/ylw_slt.png","../images/blu_wht.png","../images/gry_blk.png","../images/pnk_blu.png"],"mutagen_generator_assignment":[0,1],"goal":4,"start":5,"action_noise":0,"location_history":"[5,4]","action_history":"[1]","mutagen_history":"[1]","location_rts":"[2294]","trial_type":"fractal-mutation","trial_index":68,"time_elapsed":2756819,"internal_node_id":"0.0-5.0-14.0"},{"group":"hexagon_bi","fractal_assignment":["../images/org_blu.png","../images/cyn_red.png","../images/ylw_slt.png","../images/blu_wht.png","../images/gry_blk.png","../images/pnk_blu.png"],"mutagen_generator_assignment":[0,1],"goal":0,"start":4,"action_noise":0,"location_history":"[4,5,0]","action_history":"[1,0]","mutagen_history":"[1,0]","location_rts":"[2299,252]","trial_type":"fractal-mutation","trial_index":69,"time_elapsed":2765451,"internal_node_id":"0.0-5.0-15.0"},{"group":"hexagon_bi","fractal_assignment":["../images/org_blu.png","../images/cyn_red.png","../images/ylw_slt.png","../images/blu_wht.png","../images/gry_blk.png","../images/pnk_blu.png"],"mutagen_generator_assignment":[0,1],"goal":3,"start":0,"action_noise":0,"location_history":"[0,5,0,5,4,3]","action_history":"[0,0,0,1,0]","mutagen_history":"[0,0,0,1,0]","location_rts":"[2419,327,535,109,297]","trial_type":"fractal-mutation","trial_index":70,"time_elapsed":2778302,"internal_node_id":"0.0-5.0-16.0"},{"group":"hexagon_bi","fractal_assignment":["../images/org_blu.png","../images/cyn_red.png","../images/ylw_slt.png","../images/blu_wht.png","../images/gry_blk.png","../images/pnk_blu.png"],"mutagen_generator_assignment":[0,1],"goal":1,"start":3,"action_noise":0,"location_history":"[3,2,1]","action_history":"[1,0]","mutagen_history":"[1,0]","location_rts":"[3091,463]","trial_type":"fractal-mutation","trial_index":71,"time_elapsed":2787932,"internal_node_id":"0.0-5.0-17.0"},{"group":"hexagon_bi","fractal_assignment":["../images/org_blu.png","../images/cyn_red.png","../images/ylw_slt.png","../images/blu_wht.png","../images/gry_blk.png","../images/pnk_blu.png"],"mutagen_generator_assignment":[0,1],"goal":5,"start":1,"action_noise":0,"location_history":"[1,0,5]","action_history":"[1,0]","mutagen_history":"[1,0]","location_rts":"[2299,1236]","trial_type":"fractal-mutation","trial_index":72,"time_elapsed":2797674,"internal_node_id":"0.0-5.0-18.0"},{"group":"hexagon_bi","fractal_assignment":["../images/org_blu.png","../images/cyn_red.png","../images/ylw_slt.png","../images/blu_wht.png","../images/gry_blk.png","../images/pnk_blu.png"],"mutagen_generator_assignment":[0,1],"goal":2,"start":5,"action_noise":0,"location_history":"[5,0,5,4,3,2]","action_history":"[0,0,1,0,1]","mutagen_history":"[0,0,1,0,1]","location_rts":"[49851,878,1287,524,458]","trial_type":"fractal-mutation","trial_index":73,"time_elapsed":2860877,"internal_node_id":"0.0-5.0-19.0"},{"group":"hexagon_bi","fractal_assignment":["../images/org_blu.png","../images/cyn_red.png","../images/ylw_slt.png","../images/blu_wht.png","../images/gry_blk.png","../images/pnk_blu.png"],"mutagen_generator_assignment":[0,1],"goal":4,"start":2,"action_noise":0,"location_history":"[2,3,4]","action_history":"[1,0]","mutagen_history":"[1,0]","location_rts":"[763,833]","trial_type":"fractal-mutation","trial_index":74,"time_elapsed":2868549,"internal_node_id":"0.0-5.0-20.0"},{"group":"hexagon_bi","fractal_assignment":["../images/org_blu.png","../images/cyn_red.png","../images/ylw_slt.png","../images/blu_wht.png","../images/gry_blk.png","../images/pnk_blu.png"],"mutagen_generator_assignment":[0,1],"goal":1,"start":4,"action_noise":0,"location_history":"[4,5,0,1]","action_history":"[1,0,1]","mutagen_history":"[1,0,1]","location_rts":"[1802,2272,471]","trial_type":"fractal-mutation","trial_index":75,"time_elapsed":2880224,"internal_node_id":"0.0-5.0-21.0"},{"group":"hexagon_bi","fractal_assignment":["../images/org_blu.png","../images/cyn_red.png","../images/ylw_slt.png","../images/blu_wht.png","../images/gry_blk.png","../images/pnk_blu.png"],"mutagen_generator_assignment":[0,1],"goal":3,"start":1,"action_noise":0,"location_history":"[1,0,5,4,3]","action_history":"[1,0,1,0]","mutagen_history":"[1,0,1,0]","location_rts":"[2571,600,487,329]","trial_type":"fractal-mutation","trial_index":76,"time_elapsed":2892356,"internal_node_id":"0.0-5.0-22.0"},{"group":"hexagon_bi","fractal_assignment":["../images/org_blu.png","../images/cyn_red.png","../images/ylw_slt.png","../images/blu_wht.png","../images/gry_blk.png","../images/pnk_blu.png"],"mutagen_generator_assignment":[0,1],"goal":2,"start":3,"action_noise":0,"location_history":"[3,2]","action_history":"[1]","mutagen_history":"[1]","location_rts":"[1065]","trial_type":"fractal-mutation","trial_index":77,"time_elapsed":2898470,"internal_node_id":"0.0-5.0-23.0"},{"group":"hexagon_bi","fractal_assignment":["../images/org_blu.png","../images/cyn_red.png","../images/ylw_slt.png","../images/blu_wht.png","../images/gry_blk.png","../images/pnk_blu.png"],"mutagen_generator_assignment":[0,1],"goal":0,"start":2,"action_noise":0,"location_history":"[2,3,4,5,0]","action_history":"[1,0,1,0]","mutagen_history":"[1,0,1,0]","location_rts":"[1937,238,657,592]","trial_type":"fractal-mutation","trial_index":78,"time_elapsed":2910032,"internal_node_id":"0.0-5.0-24.0"},{"group":"hexagon_bi","fractal_assignment":["../images/org_blu.png","../images/cyn_red.png","../images/ylw_slt.png","../images/blu_wht.png","../images/gry_blk.png","../images/pnk_blu.png"],"mutagen_generator_assignment":[0,1],"goal":5,"start":0,"action_noise":0,"location_history":"[0,1,0,5]","action_history":"[1,1,0]","mutagen_history":"[1,1,0]","location_rts":"[2512,2310,322]","trial_type":"fractal-mutation","trial_index":79,"time_elapsed":2922309,"internal_node_id":"0.0-5.0-25.0"},{"group":"hexagon_bi","fractal_assignment":["../images/org_blu.png","../images/cyn_red.png","../images/ylw_slt.png","../images/blu_wht.png","../images/gry_blk.png","../images/pnk_blu.png"],"mutagen_generator_assignment":[0,1],"goal":2,"start":5,"action_noise":0,"location_history":"[5,4,3,2]","action_history":"[1,0,1]","mutagen_history":"[1,0,1]","location_rts":"[2243,393,473]","trial_type":"fractal-mutation","trial_index":80,"time_elapsed":2932525,"internal_node_id":"0.0-5.0-26.0"},{"group":"hexagon_bi","fractal_assignment":["../images/org_blu.png","../images/cyn_red.png","../images/ylw_slt.png","../images/blu_wht.png","../images/gry_blk.png","../images/pnk_blu.png"],"mutagen_generator_assignment":[0,1],"goal":3,"start":2,"action_noise":0,"location_history":"[2,3]","action_history":"[1]","mutagen_history":"[1]","location_rts":"[1381]","trial_type":"fractal-mutation","trial_index":81,"time_elapsed":2938943,"internal_node_id":"0.0-5.0-27.0"},{"group":"hexagon_bi","fractal_assignment":["../images/org_blu.png","../images/cyn_red.png","../images/ylw_slt.png","../images/blu_wht.png","../images/gry_blk.png","../images/pnk_blu.png"],"mutagen_generator_assignment":[0,1],"goal":0,"start":3,"action_noise":0,"location_history":"[3,2,3,4,5,0]","action_history":"[1,1,0,1,0]","mutagen_history":"[1,1,0,1,0]","location_rts":"[1130,2697,177,665,409]","trial_type":"fractal-mutation","trial_index":82,"time_elapsed":2953168,"internal_node_id":"0.0-5.0-28.0"},{"group":"hexagon_bi","fractal_assignment":["../images/org_blu.png","../images/cyn_red.png","../images/ylw_slt.png","../images/blu_wht.png","../images/gry_blk.png","../images/pnk_blu.png"],"mutagen_generator_assignment":[0,1],"goal":1,"start":0,"action_noise":0,"location_history":"[0,1]","action_history":"[1]","mutagen_history":"[1]","location_rts":"[1681]","trial_type":"fractal-mutation","trial_index":83,"time_elapsed":2959885,"internal_node_id":"0.0-5.0-29.0"},{"group":"hexagon_bi","fractal_assignment":["../images/org_blu.png","../images/cyn_red.png","../images/ylw_slt.png","../images/blu_wht.png","../images/gry_blk.png","../images/pnk_blu.png"],"mutagen_generator_assignment":[0,1],"goal":4,"start":1,"action_noise":0,"location_history":"[1,2,3,4]","action_history":"[0,1,0]","mutagen_history":"[0,1,0]","location_rts":"[1603,467,434]","trial_type":"fractal-mutation","trial_index":84,"time_elapsed":2969504,"internal_node_id":"0.0-5.0-30.0"},{"group":"hexagon_bi","fractal_assignment":["../images/org_blu.png","../images/cyn_red.png","../images/ylw_slt.png","../images/blu_wht.png","../images/gry_blk.png","../images/pnk_blu.png"],"mutagen_generator_assignment":[0,1],"goal":5,"start":4,"action_noise":0,"location_history":"[4,3,2,1,0,5]","action_history":"[0,1,0,1,0]","mutagen_history":"[0,1,0,1,0]","location_rts":"[3137,484,778,570,419]","trial_type":"fractal-mutation","trial_index":85,"time_elapsed":2984143,"internal_node_id":"0.0-5.0-31.0"},{"group":"hexagon_bi","fractal_assignment":["../images/org_blu.png","../images/cyn_red.png","../images/ylw_slt.png","../images/blu_wht.png","../images/gry_blk.png","../images/pnk_blu.png"],"mutagen_generator_assignment":[0,1],"goal":0,"start":5,"action_noise":0,"location_history":"[5,0]","action_history":"[0]","mutagen_history":"[0]","location_rts":"[1151]","trial_type":"fractal-mutation","trial_index":86,"time_elapsed":2990330,"internal_node_id":"0.0-5.0-32.0"},{"group":"hexagon_bi","fractal_assignment":["../images/org_blu.png","../images/cyn_red.png","../images/ylw_slt.png","../images/blu_wht.png","../images/gry_blk.png","../images/pnk_blu.png"],"mutagen_generator_assignment":[0,1],"goal":3,"start":0,"action_noise":0,"location_history":"[0,5,4,3]","action_history":"[0,1,0]","mutagen_history":"[0,1,0]","location_rts":"[2195,491,365]","trial_type":"fractal-mutation","trial_index":87,"time_elapsed":3000502,"internal_node_id":"0.0-5.0-33.0"},{"group":"hexagon_bi","fractal_assignment":["../images/org_blu.png","../images/cyn_red.png","../images/ylw_slt.png","../images/blu_wht.png","../images/gry_blk.png","../images/pnk_blu.png"],"mutagen_generator_assignment":[0,1],"goal":1,"start":3,"action_noise":0,"location_history":"[3,4,5,0,1]","action_history":"[0,1,0,1]","mutagen_history":"[0,1,0,1]","location_rts":"[2981,479,1163,486]","trial_type":"fractal-mutation","trial_index":88,"time_elapsed":3013746,"internal_node_id":"0.0-5.0-34.0"},{"group":"hexagon_bi","fractal_assignment":["../images/org_blu.png","../images/cyn_red.png","../images/ylw_slt.png","../images/blu_wht.png","../images/gry_blk.png","../images/pnk_blu.png"],"mutagen_generator_assignment":[0,1],"goal":2,"start":1,"action_noise":0,"location_history":"[1,2]","action_history":"[0]","mutagen_history":"[0]","location_rts":"[3632]","trial_type":"fractal-mutation","trial_index":89,"time_elapsed":3022418,"internal_node_id":"0.0-5.0-35.0"},{"group":"hexagon_bi","fractal_assignment":["../images/org_blu.png","../images/cyn_red.png","../images/ylw_slt.png","../images/blu_wht.png","../images/gry_blk.png","../images/pnk_blu.png"],"mutagen_generator_assignment":[0,1],"goal":4,"start":2,"action_noise":0,"location_history":"[2,3,4]","action_history":"[1,0]","mutagen_history":"[1,0]","location_rts":"[1236,602]","trial_type":"fractal-mutation","trial_index":90,"time_elapsed":3030340,"internal_node_id":"0.0-5.0-36.0"},{"group":"hexagon_bi","fractal_assignment":["../images/org_blu.png","../images/cyn_red.png","../images/ylw_slt.png","../images/blu_wht.png","../images/gry_blk.png","../images/pnk_blu.png"],"mutagen_generator_assignment":[0,1],"goal":5,"start":4,"action_noise":0,"location_history":"[4,3,2,1,0,5]","action_history":"[0,1,0,1,0]","mutagen_history":"[0,1,0,1,0]","location_rts":"[2360,398,538,810,822]","trial_type":"fractal-mutation","trial_index":91,"time_elapsed":3044431,"internal_node_id":"0.0-5.0-37.0"},{"group":"hexagon_bi","fractal_assignment":["../images/org_blu.png","../images/cyn_red.png","../images/ylw_slt.png","../images/blu_wht.png","../images/gry_blk.png","../images/pnk_blu.png"],"mutagen_generator_assignment":[0,1],"goal":1,"start":5,"action_noise":0,"location_history":"[5,0,1]","action_history":"[0,1]","mutagen_history":"[0,1]","location_rts":"[2724,470]","trial_type":"fractal-mutation","trial_index":92,"time_elapsed":3053710,"internal_node_id":"0.0-5.0-38.0"},{"group":"hexagon_bi","fractal_assignment":["../images/org_blu.png","../images/cyn_red.png","../images/ylw_slt.png","../images/blu_wht.png","../images/gry_blk.png","../images/pnk_blu.png"],"mutagen_generator_assignment":[0,1],"goal":4,"start":1,"action_noise":0,"location_history":"[1,2,3,4]","action_history":"[0,1,0]","mutagen_history":"[0,1,0]","location_rts":"[5123,909,1922]","trial_type":"fractal-mutation","trial_index":93,"time_elapsed":3068761,"internal_node_id":"0.0-5.0-39.0"},{"group":"hexagon_bi","fractal_assignment":["../images/org_blu.png","../images/cyn_red.png","../images/ylw_slt.png","../images/blu_wht.png","../images/gry_blk.png","../images/pnk_blu.png"],"mutagen_generator_assignment":[0,1],"goal":3,"start":4,"action_noise":0,"location_history":"[4,3]","action_history":"[0]","mutagen_history":"[0]","location_rts":"[1362]","trial_type":"fractal-mutation","trial_index":94,"time_elapsed":3075181,"internal_node_id":"0.0-5.0-40.0"},{"group":"hexagon_bi","fractal_assignment":["../images/org_blu.png","../images/cyn_red.png","../images/ylw_slt.png","../images/blu_wht.png","../images/gry_blk.png","../images/pnk_blu.png"],"mutagen_generator_assignment":[0,1],"goal":2,"start":3,"action_noise":0,"location_history":"[3,2]","action_history":"[1]","mutagen_history":"[1]","location_rts":"[1540]","trial_type":"fractal-mutation","trial_index":95,"time_elapsed":3081759,"internal_node_id":"0.0-5.0-41.0"},{"group":"hexagon_bi","fractal_assignment":["../images/org_blu.png","../images/cyn_red.png","../images/ylw_slt.png","../images/blu_wht.png","../images/gry_blk.png","../images/pnk_blu.png"],"mutagen_generator_assignment":[0,1],"goal":0,"start":2,"action_noise":0,"location_history":"[2,1,0]","action_history":"[0,1]","mutagen_history":"[0,1]","location_rts":"[3360,796]","trial_type":"fractal-mutation","trial_index":96,"time_elapsed":3091993,"internal_node_id":"0.0-5.0-42.0"},{"group":"hexagon_bi","fractal_assignment":["../images/org_blu.png","../images/cyn_red.png","../images/ylw_slt.png","../images/blu_wht.png","../images/gry_blk.png","../images/pnk_blu.png"],"mutagen_generator_assignment":[0,1],"goal":5,"start":0,"action_noise":0,"location_history":"[0,5]","action_history":"[0]","mutagen_history":"[0]","location_rts":"[1414]","trial_type":"fractal-mutation","trial_index":97,"time_elapsed":3098435,"internal_node_id":"0.0-5.0-43.0"},{"group":"hexagon_bi","fractal_assignment":["../images/org_blu.png","../images/cyn_red.png","../images/ylw_slt.png","../images/blu_wht.png","../images/gry_blk.png","../images/pnk_blu.png"],"mutagen_generator_assignment":[0,1],"goal":0,"start":5,"action_noise":0,"location_history":"[5,0]","action_history":"[0]","mutagen_history":"[0]","location_rts":"[2455]","trial_type":"fractal-mutation","trial_index":98,"time_elapsed":3105920,"internal_node_id":"0.0-5.0-44.0"},{"group":"hexagon_bi","fractal_assignment":["../images/org_blu.png","../images/cyn_red.png","../images/ylw_slt.png","../images/blu_wht.png","../images/gry_blk.png","../images/pnk_blu.png"],"mutagen_generator_assignment":[0,1],"goal":2,"start":0,"action_noise":0,"location_history":"[0,1,2]","action_history":"[1,0]","mutagen_history":"[1,0]","location_rts":"[2554,319]","trial_type":"fractal-mutation","trial_index":99,"time_elapsed":3114896,"internal_node_id":"0.0-5.0-45.0"},{"group":"hexagon_bi","fractal_assignment":["../images/org_blu.png","../images/cyn_red.png","../images/ylw_slt.png","../images/blu_wht.png","../images/gry_blk.png","../images/pnk_blu.png"],"mutagen_generator_assignment":[0,1],"goal":4,"start":2,"action_noise":0,"location_history":"[2,3,4]","action_history":"[1,0]","mutagen_history":"[1,0]","location_rts":"[1908,841]","trial_type":"fractal-mutation","trial_index":100,"time_elapsed":3123714,"internal_node_id":"0.0-5.0-46.0"},{"group":"hexagon_bi","fractal_assignment":["../images/org_blu.png","../images/cyn_red.png","../images/ylw_slt.png","../images/blu_wht.png","../images/gry_blk.png","../images/pnk_blu.png"],"mutagen_generator_assignment":[0,1],"goal":1,"start":4,"action_noise":0,"location_history":"[4,5,0,1]","action_history":"[1,0,1]","mutagen_history":"[1,0,1]","location_rts":"[1369,2355,249]","trial_type":"fractal-mutation","trial_index":101,"time_elapsed":3134790,"internal_node_id":"0.0-5.0-47.0"},{"group":"hexagon_bi","fractal_assignment":["../images/org_blu.png","../images/cyn_red.png","../images/ylw_slt.png","../images/blu_wht.png","../images/gry_blk.png","../images/pnk_blu.png"],"mutagen_generator_assignment":[0,1],"goal":5,"start":1,"action_noise":0,"location_history":"[1,0,5]","action_history":"[1,0]","mutagen_history":"[1,0]","location_rts":"[2972,638]","trial_type":"fractal-mutation","trial_index":102,"time_elapsed":3144486,"internal_node_id":"0.0-5.0-48.0"},{"group":"hexagon_bi","fractal_assignment":["../images/org_blu.png","../images/cyn_red.png","../images/ylw_slt.png","../images/blu_wht.png","../images/gry_blk.png","../images/pnk_blu.png"],"mutagen_generator_assignment":[0,1],"goal":3,"start":5,"action_noise":0,"location_history":"[5,4,3]","action_history":"[1,0]","mutagen_history":"[1,0]","location_rts":"[2119,270]","trial_type":"fractal-mutation","trial_index":103,"time_elapsed":3152955,"internal_node_id":"0.0-5.0-49.0"},{"view_history":"[{\"page_index\":0,\"viewing_time\":2524}]","rt":2525,"trial_type":"instructions","trial_index":104,"time_elapsed":3156489,"internal_node_id":"0.0-6.0"},{"rt":1327,"responses":"{\"Q0\":\"\"}","trial_type":"survey-text","trial_index":105,"time_elapsed":3158832,"internal_node_id":"0.0-7.0"}]