[{"view_history":"[{\"page_index\":0,\"viewing_time\":4414},{\"page_index\":1,\"viewing_time\":26288}]","rt":30703,"trial_type":"instructions","trial_index":0,"time_elapsed":30705,"internal_node_id":"0.0-0.0"},{"view_history":"[{\"page_index\":0,\"viewing_time\":4646},{\"page_index\":1,\"viewing_time\":13281}]","rt":17928,"trial_type":"instructions","trial_index":1,"time_elapsed":49637,"internal_node_id":"0.0-1.0"},{"group":"hexagon_bi","room_assignment":["grey","purple","blue","red","green","yellow"],"door_color_assignment":["white","black"],"door_generator_assignment":[0,1],"goal":3,"start":5,"action_noise":0,"location_history":"[5,0,1,0,5,4,5,4,5,0,5,0,1,0,1,2,1,2,3]","action_history":"[0,1,1,0,1,1,1,1,0,0,0,1,1,1,0,0,0,1]","door_history":"[0,1,1,0,1,1,1,1,0,0,0,1,1,1,0,0,0,1]","location_rts":"[1609,664,816,755,901,559,559,499,858,517,502,487,544,553,1456,555,472,588]","trial_type":"two-door-navigation","trial_index":2,"time_elapsed":85554,"internal_node_id":"0.0-2.0-0.0"},{"group":"hexagon_bi","room_assignment":["grey","purple","blue","red","green","yellow"],"door_color_assignment":["white","black"],"door_generator_assignment":[0,1],"goal":1,"start":3,"action_noise":0,"location_history":"[3,2,3,2,3,4,3,4,3,2,3,2,1]","action_history":"[1,1,1,1,0,0,0,0,1,1,1,0]","door_history":"[1,1,1,1,0,0,0,0,1,1,1,0]","location_rts":"[1431,520,446,577,487,461,423,485,483,609,512,415]","trial_type":"two-door-navigation","trial_index":3,"time_elapsed":109225,"internal_node_id":"0.0-2.0-1.0"},{"group":"hexagon_bi","room_assignment":["grey","purple","blue","red","green","yellow"],"door_color_assignment":["white","black"],"door_generator_assignment":[0,1],"goal":0,"start":1,"action_noise":0,"location_history":"[1,2,1,2,3,2,3,4,3,2,3,4,3,4,5,4,5,0]","action_history":"[0,0,0,1,1,1,0,0,1,1,0,0,0,1,1,1,0]","door_history":"[0,0,0,1,1,1,0,0,1,1,0,0,0,1,1,1,0]","location_rts":"[1572,576,476,695,517,517,1351,505,478,481,440,455,412,489,542,662,416]","trial_type":"two-door-navigation","trial_index":4,"time_elapsed":141749,"internal_node_id":"0.0-2.0-2.0"},{"group":"hexagon_bi","room_assignment":["grey","purple","blue","red","green","yellow"],"door_color_assignment":["white","black"],"door_generator_assignment":[0,1],"goal":3,"start":0,"action_noise":0,"location_history":"[0,5,0,5,0,5,0,1,0,1,2,3]","action_history":"[0,0,0,0,0,0,1,1,1,0,1]","door_history":"[0,0,0,0,0,0,1,1,1,0,1]","location_rts":"[2648,807,394,404,379,422,411,531,450,383,891]","trial_type":"two-door-navigation","trial_index":5,"time_elapsed":165002,"internal_node_id":"0.0-2.0-3.0"},{"group":"hexagon_bi","room_assignment":["grey","purple","blue","red","green","yellow"],"door_color_assignment":["white","black"],"door_generator_assignment":[0,1],"goal":4,"start":3,"action_noise":0,"location_history":"[3,2,3,4]","action_history":"[1,1,0]","door_history":"[1,1,0]","location_rts":"[1855,579,488]","trial_type":"two-door-navigation","trial_index":6,"time_elapsed":175039,"internal_node_id":"0.0-2.0-4.0"},{"group":"hexagon_bi","room_assignment":["grey","purple","blue","red","green","yellow"],"door_color_assignment":["white","black"],"door_generator_assignment":[0,1],"goal":2,"start":4,"action_noise":0,"location_history":"[4,3,4,5,4,3,4,5,4,3,2]","action_history":"[0,0,1,1,0,0,1,1,0,1]","door_history":"[0,0,1,1,0,0,1,1,0,1]","location_rts":"[633,560,471,590,529,481,459,500,492,431]","trial_type":"two-door-navigation","trial_index":7,"time_elapsed":194520,"internal_node_id":"0.0-2.0-5.0"},{"group":"hexagon_bi","room_assignment":["grey","purple","blue","red","green","yellow"],"door_color_assignment":["white","black"],"door_generator_assignment":[0,1],"goal":1,"start":2,"action_noise":0,"location_history":"[2,1]","action_history":"[0]","door_history":"[0]","location_rts":"[670]","trial_type":"two-door-navigation","trial_index":8,"time_elapsed":200258,"internal_node_id":"0.0-2.0-6.0"},{"group":"hexagon_bi","room_assignment":["grey","purple","blue","red","green","yellow"],"door_color_assignment":["white","black"],"door_generator_assignment":[0,1],"goal":5,"start":1,"action_noise":0,"location_history":"[1,2,3,2,1,2,3,2,1,2,3,2,1,2,1,0,1,2,1,2,1,0,1,0,5]","action_history":"[0,1,1,0,0,1,1,0,0,1,1,0,0,0,1,1,0,0,0,0,1,1,1,0]","door_history":"[0,1,1,0,0,1,1,0,0,1,1,0,0,0,1,1,0,0,0,0,1,1,1,0]","location_rts":"[825,491,528,457,447,534,537,426,531,449,525,516,433,440,422,545,474,486,534,388,503,532,505,527]","trial_type":"two-door-navigation","trial_index":9,"time_elapsed":241538,"internal_node_id":"0.0-2.0-7.0"},{"group":"hexagon_bi","room_assignment":["grey","purple","blue","red","green","yellow"],"door_color_assignment":["white","black"],"door_generator_assignment":[0,1],"goal":4,"start":5,"action_noise":0,"location_history":"[5,4]","action_history":"[1]","door_history":"[1]","location_rts":"[654]","trial_type":"two-door-navigation","trial_index":10,"time_elapsed":247233,"internal_node_id":"0.0-2.0-8.0"},{"group":"hexagon_bi","room_assignment":["grey","purple","blue","red","green","yellow"],"door_color_assignment":["white","black"],"door_generator_assignment":[0,1],"goal":2,"start":4,"action_noise":0,"location_history":"[4,5,4,3,4,5,4,3,4,3,2]","action_history":"[1,1,0,0,1,1,0,0,0,1]","door_history":"[1,1,0,0,1,1,0,0,0,1]","location_rts":"[890,861,537,477,468,528,1315,438,523,424]","trial_type":"two-door-navigation","trial_index":11,"time_elapsed":268377,"internal_node_id":"0.0-2.0-9.0"},{"group":"hexagon_bi","room_assignment":["grey","purple","blue","red","green","yellow"],"door_color_assignment":["white","black"],"door_generator_assignment":[0,1],"goal":0,"start":2,"action_noise":0,"location_history":"[2,3,4,3,4,5,4,5,4,3,4,3,4,5,4,3,4,3,2,3,2,1,2,1,2,1,0]","action_history":"[1,0,0,0,1,1,1,1,0,0,0,0,1,1,0,0,0,1,1,1,0,0,0,0,0,1]","door_history":"[1,0,0,0,1,1,1,1,0,0,0,0,1,1,0,0,0,1,1,1,0,0,0,0,0,1]","location_rts":"[728,667,529,435,409,490,451,555,423,434,499,422,473,455,483,511,658,437,536,503,469,513,502,451,609,459]","trial_type":"two-door-navigation","trial_index":12,"time_elapsed":312436,"internal_node_id":"0.0-2.0-10.0"},{"group":"hexagon_bi","room_assignment":["grey","purple","blue","red","green","yellow"],"door_color_assignment":["white","black"],"door_generator_assignment":[0,1],"goal":1,"start":0,"action_noise":0,"location_history":"[0,1]","action_history":"[1]","door_history":"[1]","location_rts":"[1360]","trial_type":"two-door-navigation","trial_index":13,"time_elapsed":318846,"internal_node_id":"0.0-2.0-11.0"},{"group":"hexagon_bi","room_assignment":["grey","purple","blue","red","green","yellow"],"door_color_assignment":["white","black"],"door_generator_assignment":[0,1],"goal":3,"start":1,"action_noise":0,"location_history":"[1,0,5,0,1,0,1,2,1,0,1,0,5,0,5,0,5,0,1,0,1,0,5,4,3]","action_history":"[1,0,0,1,1,1,0,0,1,1,1,0,0,0,0,0,0,1,1,1,1,0,1,0]","door_history":"[1,0,0,1,1,1,0,0,1,1,1,0,0,0,0,0,0,1,1,1,1,0,1,0]","location_rts":"[1019,700,513,364,514,457,420,556,433,476,490,362,588,482,382,410,399,395,520,510,517,108,449,494]","trial_type":"two-door-navigation","trial_index":14,"time_elapsed":359534,"internal_node_id":"0.0-2.0-12.0"},{"group":"hexagon_bi","room_assignment":["grey","purple","blue","red","green","yellow"],"door_color_assignment":["white","black"],"door_generator_assignment":[0,1],"goal":5,"start":3,"action_noise":0,"location_history":"[3,2,3,4,3,2,3,4,3,4,5]","action_history":"[1,1,0,0,1,1,0,0,0,1]","door_history":"[1,1,0,0,1,1,0,0,0,1]","location_rts":"[767,751,435,451,436,487,395,386,435,427]","trial_type":"two-door-navigation","trial_index":15,"time_elapsed":379049,"internal_node_id":"0.0-2.0-13.0"},{"group":"hexagon_bi","room_assignment":["grey","purple","blue","red","green","yellow"],"door_color_assignment":["white","black"],"door_generator_assignment":[0,1],"goal":4,"start":5,"action_noise":0,"location_history":"[5,0,5,4]","action_history":"[0,0,1]","door_history":"[0,0,1]","location_rts":"[550,719,390]","trial_type":"two-door-navigation","trial_index":16,"time_elapsed":387856,"internal_node_id":"0.0-2.0-14.0"},{"group":"hexagon_bi","room_assignment":["grey","purple","blue","red","green","yellow"],"door_color_assignment":["white","black"],"door_generator_assignment":[0,1],"goal":0,"start":4,"action_noise":0,"location_history":"[4,5,0]","action_history":"[1,0]","door_history":"[1,0]","location_rts":"[441,414]","trial_type":"two-door-navigation","trial_index":17,"time_elapsed":394774,"internal_node_id":"0.0-2.0-15.0"},{"group":"hexagon_bi","room_assignment":["grey","purple","blue","red","green","yellow"],"door_color_assignment":["white","black"],"door_generator_assignment":[0,1],"goal":3,"start":0,"action_noise":0,"location_history":"[0,1,2,3]","action_history":"[1,0,1]","door_history":"[1,0,1]","location_rts":"[535,486,425]","trial_type":"two-door-navigation","trial_index":18,"time_elapsed":403313,"internal_node_id":"0.0-2.0-16.0"},{"group":"hexagon_bi","room_assignment":["grey","purple","blue","red","green","yellow"],"door_color_assignment":["white","black"],"door_generator_assignment":[0,1],"goal":1,"start":3,"action_noise":0,"location_history":"[3,4,5,0,1]","action_history":"[0,1,0,1]","door_history":"[0,1,0,1]","location_rts":"[629,463,506,454]","trial_type":"two-door-navigation","trial_index":19,"time_elapsed":413578,"internal_node_id":"0.0-2.0-17.0"},{"group":"hexagon_bi","room_assignment":["grey","purple","blue","red","green","yellow"],"door_color_assignment":["white","black"],"door_generator_assignment":[0,1],"goal":5,"start":1,"action_noise":0,"location_history":"[1,2,3,4,5]","action_history":"[0,1,0,1]","door_history":"[0,1,0,1]","location_rts":"[591,417,639,495]","trial_type":"two-door-navigation","trial_index":20,"time_elapsed":423858,"internal_node_id":"0.0-2.0-18.0"},{"group":"hexagon_bi","room_assignment":["grey","purple","blue","red","green","yellow"],"door_color_assignment":["white","black"],"door_generator_assignment":[0,1],"goal":2,"start":5,"action_noise":0,"location_history":"[5,0,1,2]","action_history":"[0,1,0]","door_history":"[0,1,0]","location_rts":"[410,437,511]","trial_type":"two-door-navigation","trial_index":21,"time_elapsed":432669,"internal_node_id":"0.0-2.0-19.0"},{"group":"hexagon_bi","room_assignment":["grey","purple","blue","red","green","yellow"],"door_color_assignment":["white","black"],"door_generator_assignment":[0,1],"goal":4,"start":2,"action_noise":0,"location_history":"[2,3,4]","action_history":"[1,0]","door_history":"[1,0]","location_rts":"[457,433]","trial_type":"two-door-navigation","trial_index":22,"time_elapsed":439643,"internal_node_id":"0.0-2.0-20.0"},{"group":"hexagon_bi","room_assignment":["grey","purple","blue","red","green","yellow"],"door_color_assignment":["white","black"],"door_generator_assignment":[0,1],"goal":1,"start":4,"action_noise":0,"location_history":"[4,3,2,1]","action_history":"[0,1,0]","door_history":"[0,1,0]","location_rts":"[639,386,516]","trial_type":"two-door-navigation","trial_index":23,"time_elapsed":448282,"internal_node_id":"0.0-2.0-21.0"},{"group":"hexagon_bi","room_assignment":["grey","purple","blue","red","green","yellow"],"door_color_assignment":["white","black"],"door_generator_assignment":[0,1],"goal":3,"start":1,"action_noise":0,"location_history":"[1,0,5,4,3]","action_history":"[1,0,1,0]","door_history":"[1,0,1,0]","location_rts":"[418,469,435,502]","trial_type":"two-door-navigation","trial_index":24,"time_elapsed":458259,"internal_node_id":"0.0-2.0-22.0"},{"group":"hexagon_bi","room_assignment":["grey","purple","blue","red","green","yellow"],"door_color_assignment":["white","black"],"door_generator_assignment":[0,1],"goal":2,"start":3,"action_noise":0,"location_history":"[3,4,5,0,1,2]","action_history":"[0,1,0,1,0]","door_history":"[0,1,0,1,0]","location_rts":"[573,382,367,331,591]","trial_type":"two-door-navigation","trial_index":25,"time_elapsed":469695,"internal_node_id":"0.0-2.0-23.0"},{"group":"hexagon_bi","room_assignment":["grey","purple","blue","red","green","yellow"],"door_color_assignment":["white","black"],"door_generator_assignment":[0,1],"goal":0,"start":2,"action_noise":0,"location_history":"[2,3,4,5,0]","action_history":"[1,0,1,0]","door_history":"[1,0,1,0]","location_rts":"[406,446,403,430]","trial_type":"two-door-navigation","trial_index":26,"time_elapsed":479555,"internal_node_id":"0.0-2.0-24.0"},{"group":"hexagon_bi","room_assignment":["grey","purple","blue","red","green","yellow"],"door_color_assignment":["white","black"],"door_generator_assignment":[0,1],"goal":5,"start":0,"action_noise":0,"location_history":"[0,1,2,3,4,5]","action_history":"[1,0,1,0,1]","door_history":"[1,0,1,0,1]","location_rts":"[370,381,352,423,442]","trial_type":"two-door-navigation","trial_index":27,"time_elapsed":490858,"internal_node_id":"0.0-2.0-25.0"},{"group":"hexagon_bi","room_assignment":["grey","purple","blue","red","green","yellow"],"door_color_assignment":["white","black"],"door_generator_assignment":[0,1],"goal":2,"start":5,"action_noise":0,"location_history":"[5,0,1,2]","action_history":"[0,1,0]","door_history":"[0,1,0]","location_rts":"[480,419,396]","trial_type":"two-door-navigation","trial_index":28,"time_elapsed":499267,"internal_node_id":"0.0-2.0-26.0"},{"group":"hexagon_bi","room_assignment":["grey","purple","blue","red","green","yellow"],"door_color_assignment":["white","black"],"door_generator_assignment":[0,1],"goal":3,"start":2,"action_noise":0,"location_history":"[2,3]","action_history":"[1]","door_history":"[1]","location_rts":"[476]","trial_type":"two-door-navigation","trial_index":29,"time_elapsed":504840,"internal_node_id":"0.0-2.0-27.0"},{"group":"hexagon_bi","room_assignment":["grey","purple","blue","red","green","yellow"],"door_color_assignment":["white","black"],"door_generator_assignment":[0,1],"goal":0,"start":3,"action_noise":0,"location_history":"[3,4,5,0]","action_history":"[0,1,0]","door_history":"[0,1,0]","location_rts":"[519,357,312]","trial_type":"two-door-navigation","trial_index":30,"time_elapsed":513127,"internal_node_id":"0.0-2.0-28.0"},{"group":"hexagon_bi","room_assignment":["grey","purple","blue","red","green","yellow"],"door_color_assignment":["white","black"],"door_generator_assignment":[0,1],"goal":1,"start":0,"action_noise":0,"location_history":"[0,1]","action_history":"[1]","door_history":"[1]","location_rts":"[397]","trial_type":"two-door-navigation","trial_index":31,"time_elapsed":518577,"internal_node_id":"0.0-2.0-29.0"},{"group":"hexagon_bi","room_assignment":["grey","purple","blue","red","green","yellow"],"door_color_assignment":["white","black"],"door_generator_assignment":[0,1],"goal":4,"start":1,"action_noise":0,"location_history":"[1,2,3,4]","action_history":"[0,1,0]","door_history":"[0,1,0]","location_rts":"[595,445,363]","trial_type":"two-door-navigation","trial_index":32,"time_elapsed":527093,"internal_node_id":"0.0-2.0-30.0"},{"group":"hexagon_bi","room_assignment":["grey","purple","blue","red","green","yellow"],"door_color_assignment":["white","black"],"door_generator_assignment":[0,1],"goal":5,"start":4,"action_noise":0,"location_history":"[4,5]","action_history":"[1]","door_history":"[1]","location_rts":"[406]","trial_type":"two-door-navigation","trial_index":33,"time_elapsed":532528,"internal_node_id":"0.0-2.0-31.0"},{"group":"hexagon_bi","room_assignment":["grey","purple","blue","red","green","yellow"],"door_color_assignment":["white","black"],"door_generator_assignment":[0,1],"goal":0,"start":5,"action_noise":0,"location_history":"[5,0]","action_history":"[0]","door_history":"[0]","location_rts":"[648]","trial_type":"two-door-navigation","trial_index":34,"time_elapsed":538389,"internal_node_id":"0.0-2.0-32.0"},{"group":"hexagon_bi","room_assignment":["grey","purple","blue","red","green","yellow"],"door_color_assignment":["white","black"],"door_generator_assignment":[0,1],"goal":3,"start":0,"action_noise":0,"location_history":"[0,1,2,3]","action_history":"[1,0,1]","door_history":"[1,0,1]","location_rts":"[466,822,500]","trial_type":"two-door-navigation","trial_index":35,"time_elapsed":547260,"internal_node_id":"0.0-2.0-33.0"},{"group":"hexagon_bi","room_assignment":["grey","purple","blue","red","green","yellow"],"door_color_assignment":["white","black"],"door_generator_assignment":[0,1],"goal":1,"start":3,"action_noise":0,"location_history":"[3,4,5,0,1]","action_history":"[0,1,0,1]","door_history":"[0,1,0,1]","location_rts":"[477,487,427,376]","trial_type":"two-door-navigation","trial_index":36,"time_elapsed":557132,"internal_node_id":"0.0-2.0-34.0"},{"group":"hexagon_bi","room_assignment":["grey","purple","blue","red","green","yellow"],"door_color_assignment":["white","black"],"door_generator_assignment":[0,1],"goal":2,"start":1,"action_noise":0,"location_history":"[1,2]","action_history":"[0]","door_history":"[0]","location_rts":"[776]","trial_type":"two-door-navigation","trial_index":37,"time_elapsed":562939,"internal_node_id":"0.0-2.0-35.0"},{"group":"hexagon_bi","room_assignment":["grey","purple","blue","red","green","yellow"],"door_color_assignment":["white","black"],"door_generator_assignment":[0,1],"goal":4,"start":2,"action_noise":0,"location_history":"[2,3,4]","action_history":"[1,0]","door_history":"[1,0]","location_rts":"[487,429]","trial_type":"two-door-navigation","trial_index":38,"time_elapsed":569904,"internal_node_id":"0.0-2.0-36.0"},{"group":"hexagon_bi","room_assignment":["grey","purple","blue","red","green","yellow"],"door_color_assignment":["white","black"],"door_generator_assignment":[0,1],"goal":5,"start":4,"action_noise":0,"location_history":"[4,5]","action_history":"[1]","door_history":"[1]","location_rts":"[434]","trial_type":"two-door-navigation","trial_index":39,"time_elapsed":575374,"internal_node_id":"0.0-2.0-37.0"},{"group":"hexagon_bi","room_assignment":["grey","purple","blue","red","green","yellow"],"door_color_assignment":["white","black"],"door_generator_assignment":[0,1],"goal":1,"start":5,"action_noise":0,"location_history":"[5,0,1]","action_history":"[0,1]","door_history":"[0,1]","location_rts":"[419,388]","trial_type":"two-door-navigation","trial_index":40,"time_elapsed":582236,"internal_node_id":"0.0-2.0-38.0"},{"group":"hexagon_bi","room_assignment":["grey","purple","blue","red","green","yellow"],"door_color_assignment":["white","black"],"door_generator_assignment":[0,1],"goal":4,"start":1,"action_noise":0,"location_history":"[1,2,3,4]","action_history":"[0,1,0]","door_history":"[0,1,0]","location_rts":"[501,500,601]","trial_type":"two-door-navigation","trial_index":41,"time_elapsed":591034,"internal_node_id":"0.0-2.0-39.0"},{"group":"hexagon_bi","room_assignment":["grey","purple","blue","red","green","yellow"],"door_color_assignment":["white","black"],"door_generator_assignment":[0,1],"goal":3,"start":4,"action_noise":0,"location_history":"[4,5,0,1,2,3]","action_history":"[1,0,1,0,1]","door_history":"[1,0,1,0,1]","location_rts":"[509,411,448,440,496]","trial_type":"two-door-navigation","trial_index":42,"time_elapsed":602477,"internal_node_id":"0.0-2.0-40.0"},{"group":"hexagon_bi","room_assignment":["grey","purple","blue","red","green","yellow"],"door_color_assignment":["white","black"],"door_generator_assignment":[0,1],"goal":2,"start":3,"action_noise":0,"location_history":"[3,4,5,0,1,2]","action_history":"[0,1,0,1,0]","door_history":"[0,1,0,1,0]","location_rts":"[546,401,390,363,522]","trial_type":"two-door-navigation","trial_index":43,"time_elapsed":613888,"internal_node_id":"0.0-2.0-41.0"},{"group":"hexagon_bi","room_assignment":["grey","purple","blue","red","green","yellow"],"door_color_assignment":["white","black"],"door_generator_assignment":[0,1],"goal":0,"start":2,"action_noise":0,"location_history":"[2,3,4,5,0]","action_history":"[1,0,1,0]","door_history":"[1,0,1,0]","location_rts":"[810,415,374,43]","trial_type":"two-door-navigation","trial_index":44,"time_elapsed":623653,"internal_node_id":"0.0-2.0-42.0"},{"group":"hexagon_bi","room_assignment":["grey","purple","blue","red","green","yellow"],"door_color_assignment":["white","black"],"door_generator_assignment":[0,1],"goal":5,"start":0,"action_noise":0,"location_history":"[0,1,2,3,4,5]","action_history":"[1,0,1,0,1]","door_history":"[1,0,1,0,1]","location_rts":"[420,331,347,417,444]","trial_type":"two-door-navigation","trial_index":45,"time_elapsed":634744,"internal_node_id":"0.0-2.0-43.0"},{"group":"hexagon_bi","room_assignment":["grey","purple","blue","red","green","yellow"],"door_color_assignment":["white","black"],"door_generator_assignment":[0,1],"goal":0,"start":5,"action_noise":0,"location_history":"[5,0]","action_history":"[0]","door_history":"[0]","location_rts":"[568]","trial_type":"two-door-navigation","trial_index":46,"time_elapsed":640337,"internal_node_id":"0.0-2.0-44.0"},{"group":"hexagon_bi","room_assignment":["grey","purple","blue","red","green","yellow"],"door_color_assignment":["white","black"],"door_generator_assignment":[0,1],"goal":2,"start":0,"action_noise":0,"location_history":"[0,1,2]","action_history":"[1,0]","door_history":"[1,0]","location_rts":"[593,365]","trial_type":"two-door-navigation","trial_index":47,"time_elapsed":647347,"internal_node_id":"0.0-2.0-45.0"},{"group":"hexagon_bi","room_assignment":["grey","purple","blue","red","green","yellow"],"door_color_assignment":["white","black"],"door_generator_assignment":[0,1],"goal":4,"start":2,"action_noise":0,"location_history":"[2,3,4]","action_history":"[1,0]","door_history":"[1,0]","location_rts":"[390,465]","trial_type":"two-door-navigation","trial_index":48,"time_elapsed":654253,"internal_node_id":"0.0-2.0-46.0"},{"group":"hexagon_bi","room_assignment":["grey","purple","blue","red","green","yellow"],"door_color_assignment":["white","black"],"door_generator_assignment":[0,1],"goal":1,"start":4,"action_noise":0,"location_history":"[4,5,0,1]","action_history":"[1,0,1]","door_history":"[1,0,1]","location_rts":"[452,428,577]","trial_type":"two-door-navigation","trial_index":49,"time_elapsed":662789,"internal_node_id":"0.0-2.0-47.0"},{"group":"hexagon_bi","room_assignment":["grey","purple","blue","red","green","yellow"],"door_color_assignment":["white","black"],"door_generator_assignment":[0,1],"goal":5,"start":1,"action_noise":0,"location_history":"[1,2,3,4,5]","action_history":"[0,1,0,1]","door_history":"[0,1,0,1]","location_rts":"[428,382,399,616]","trial_type":"two-door-navigation","trial_index":50,"time_elapsed":672749,"internal_node_id":"0.0-2.0-48.0"},{"group":"hexagon_bi","room_assignment":["grey","purple","blue","red","green","yellow"],"door_color_assignment":["white","black"],"door_generator_assignment":[0,1],"goal":3,"start":5,"action_noise":0,"location_history":"[5,0,1,2,3]","action_history":"[0,1,0,1]","door_history":"[0,1,0,1]","location_rts":"[427,435,467,384]","trial_type":"two-door-navigation","trial_index":51,"time_elapsed":682934,"internal_node_id":"0.0-2.0-49.0"},{"view_history":"[{\"page_index\":0,\"viewing_time\":2498}]","rt":2500,"trial_type":"instructions","trial_index":52,"time_elapsed":686435,"internal_node_id":"0.0-3.0"},{"view_history":"[{\"page_index\":0,\"viewing_time\":3426},{\"page_index\":1,\"viewing_time\":16197}]","rt":19625,"trial_type":"instructions","trial_index":53,"time_elapsed":707061,"internal_node_id":"0.0-4.0"},{"group":"hexagon_bi","fractal_assignment":["../images/cyn_red.png","../images/blu_wht.png","../images/pnk_blu.png","../images/ylw_slt.png","../images/gry_blk.png","../images/org_blu.png"],"mutagen_generator_assignment":[0,1],"goal":3,"start":5,"action_noise":0,"location_history":"[5,4,3]","action_history":"[1,0]","mutagen_history":"[1,0]","location_rts":"[11649,446]","trial_type":"fractal-mutation","trial_index":54,"time_elapsed":725410,"internal_node_id":"0.0-5.0-0.0"},{"group":"hexagon_bi","fractal_assignment":["../images/cyn_red.png","../images/blu_wht.png","../images/pnk_blu.png","../images/ylw_slt.png","../images/gry_blk.png","../images/org_blu.png"],"mutagen_generator_assignment":[0,1],"goal":1,"start":3,"action_noise":0,"location_history":"[3,4,5,4,3,4,3,2,3,4,3,2,1]","action_history":"[0,1,1,0,0,0,1,1,0,0,1,0]","mutagen_history":"[0,1,1,0,0,0,1,1,0,0,1,0]","location_rts":"[498,465,460,364,446,409,368,388,397,568,552,410]","trial_type":"fractal-mutation","trial_index":55,"time_elapsed":748205,"internal_node_id":"0.0-5.0-1.0"},{"group":"hexagon_bi","fractal_assignment":["../images/cyn_red.png","../images/blu_wht.png","../images/pnk_blu.png","../images/ylw_slt.png","../images/gry_blk.png","../images/org_blu.png"],"mutagen_generator_assignment":[0,1],"goal":0,"start":1,"action_noise":0,"location_history":"[1,0]","action_history":"[1]","mutagen_history":"[1]","location_rts":"[1144]","trial_type":"fractal-mutation","trial_index":56,"time_elapsed":754507,"internal_node_id":"0.0-5.0-2.0"},{"group":"hexagon_bi","fractal_assignment":["../images/cyn_red.png","../images/blu_wht.png","../images/pnk_blu.png","../images/ylw_slt.png","../images/gry_blk.png","../images/org_blu.png"],"mutagen_generator_assignment":[0,1],"goal":3,"start":0,"action_noise":0,"location_history":"[0,1,0,5,0,1,0,5,0,1,0,5,0,5,4,5,0,1,0,5,4,5,4,3]","action_history":"[1,1,0,0,1,1,0,0,1,1,0,0,0,1,1,0,1,1,0,1,1,1,0]","mutagen_history":"[1,1,0,0,1,1,0,0,1,1,0,0,0,1,1,0,1,1,0,1,1,1,0]","location_rts":"[930,968,711,737,518,529,217,1412,705,596,597,709,122172,24,254,405,541,404,439,398,395,377,376]","trial_type":"fractal-mutation","trial_index":57,"time_elapsed":918079,"internal_node_id":"0.0-5.0-3.0"},{"group":"hexagon_bi","fractal_assignment":["../images/cyn_red.png","../images/blu_wht.png","../images/pnk_blu.png","../images/ylw_slt.png","../images/gry_blk.png","../images/org_blu.png"],"mutagen_generator_assignment":[0,1],"goal":4,"start":3,"action_noise":0,"location_history":"[3,4]","action_history":"[0]","mutagen_history":"[0]","location_rts":"[428]","trial_type":"fractal-mutation","trial_index":58,"time_elapsed":923684,"internal_node_id":"0.0-5.0-4.0"},{"group":"hexagon_bi","fractal_assignment":["../images/cyn_red.png","../images/blu_wht.png","../images/pnk_blu.png","../images/ylw_slt.png","../images/gry_blk.png","../images/org_blu.png"],"mutagen_generator_assignment":[0,1],"goal":2,"start":4,"action_noise":0,"location_history":"[4,3,2]","action_history":"[0,1]","mutagen_history":"[0,1]","location_rts":"[513,379]","trial_type":"fractal-mutation","trial_index":59,"time_elapsed":930791,"internal_node_id":"0.0-5.0-5.0"},{"group":"hexagon_bi","fractal_assignment":["../images/cyn_red.png","../images/blu_wht.png","../images/pnk_blu.png","../images/ylw_slt.png","../images/gry_blk.png","../images/org_blu.png"],"mutagen_generator_assignment":[0,1],"goal":1,"start":2,"action_noise":0,"location_history":"[2,1]","action_history":"[0]","mutagen_history":"[0]","location_rts":"[741]","trial_type":"fractal-mutation","trial_index":60,"time_elapsed":936620,"internal_node_id":"0.0-5.0-6.0"},{"group":"hexagon_bi","fractal_assignment":["../images/cyn_red.png","../images/blu_wht.png","../images/pnk_blu.png","../images/ylw_slt.png","../images/gry_blk.png","../images/org_blu.png"],"mutagen_generator_assignment":[0,1],"goal":5,"start":1,"action_noise":0,"location_history":"[1,0,5]","action_history":"[1,0]","mutagen_history":"[1,0]","location_rts":"[641,459]","trial_type":"fractal-mutation","trial_index":61,"time_elapsed":943974,"internal_node_id":"0.0-5.0-7.0"},{"group":"hexagon_bi","fractal_assignment":["../images/cyn_red.png","../images/blu_wht.png","../images/pnk_blu.png","../images/ylw_slt.png","../images/gry_blk.png","../images/org_blu.png"],"mutagen_generator_assignment":[0,1],"goal":4,"start":5,"action_noise":0,"location_history":"[5,0,1,0,1,2,1,0,1,2,1,0,5,0,1,0,5,0,1,2,1,0,5,0,1,0,1,2,1,0,5,0,5,0,1,2,1,0,5,4]","action_history":"[0,1,1,1,0,0,1,1,0,0,1,0,0,1,1,0,0,1,0,0,1,0,0,1,1,1,0,0,1,0,0,0,0,1,0,0,1,0,1]","mutagen_history":"[0,1,1,1,0,0,1,1,0,0,1,0,0,1,1,0,0,1,0,0,1,0,0,1,1,1,0,0,1,0,0,0,0,1,0,0,1,0,1]","location_rts":"[715,410,672,629,457,635,694,763,364,579,645,495,683,616,728,457,629,531,502,620,713,446,604,484,520,616,483,524,569,480,427,639,637,549,721,632,646,512,394]","trial_type":"fractal-mutation","trial_index":62,"time_elapsed":1013801,"internal_node_id":"0.0-5.0-8.0"},{"group":"hexagon_bi","fractal_assignment":["../images/cyn_red.png","../images/blu_wht.png","../images/pnk_blu.png","../images/ylw_slt.png","../images/gry_blk.png","../images/org_blu.png"],"mutagen_generator_assignment":[0,1],"goal":2,"start":4,"action_noise":0,"location_history":"[4,3,2]","action_history":"[0,1]","mutagen_history":"[0,1]","location_rts":"[844,464]","trial_type":"fractal-mutation","trial_index":63,"time_elapsed":1021320,"internal_node_id":"0.0-5.0-9.0"},{"group":"hexagon_bi","fractal_assignment":["../images/cyn_red.png","../images/blu_wht.png","../images/pnk_blu.png","../images/ylw_slt.png","../images/gry_blk.png","../images/org_blu.png"],"mutagen_generator_assignment":[0,1],"goal":0,"start":2,"action_noise":0,"location_history":"[2,1,0]","action_history":"[0,1]","mutagen_history":"[0,1]","location_rts":"[426,438]","trial_type":"fractal-mutation","trial_index":64,"time_elapsed":1028425,"internal_node_id":"0.0-5.0-10.0"},{"group":"hexagon_bi","fractal_assignment":["../images/cyn_red.png","../images/blu_wht.png","../images/pnk_blu.png","../images/ylw_slt.png","../images/gry_blk.png","../images/org_blu.png"],"mutagen_generator_assignment":[0,1],"goal":1,"start":0,"action_noise":0,"location_history":"[0,1]","action_history":"[1]","mutagen_history":"[1]","location_rts":"[515]","trial_type":"fractal-mutation","trial_index":65,"time_elapsed":1034055,"internal_node_id":"0.0-5.0-11.0"},{"group":"hexagon_bi","fractal_assignment":["../images/cyn_red.png","../images/blu_wht.png","../images/pnk_blu.png","../images/ylw_slt.png","../images/gry_blk.png","../images/org_blu.png"],"mutagen_generator_assignment":[0,1],"goal":3,"start":1,"action_noise":0,"location_history":"[1,0,5,0,1,0,5,0,1,0,5,4,5,0,5,4,3]","action_history":"[1,0,0,1,1,0,0,1,1,0,1,1,0,0,1,0]","mutagen_history":"[1,0,0,1,1,0,0,1,1,0,1,1,0,0,1,0]","location_rts":"[953,435,705,350,390,378,479,309,454,435,638,455,356,538,340,391]","trial_type":"fractal-mutation","trial_index":66,"time_elapsed":1063375,"internal_node_id":"0.0-5.0-12.0"},{"group":"hexagon_bi","fractal_assignment":["../images/cyn_red.png","../images/blu_wht.png","../images/pnk_blu.png","../images/ylw_slt.png","../images/gry_blk.png","../images/org_blu.png"],"mutagen_generator_assignment":[0,1],"goal":5,"start":3,"action_noise":0,"location_history":"[3,2,1,0,1,2,1,2,3,2,1,2,3,2,1,2,1,0,1,2,1,0,5]","action_history":"[1,0,1,1,0,0,0,1,1,0,0,1,1,0,0,0,1,1,0,0,1,0]","mutagen_history":"[1,0,1,1,0,0,0,1,1,0,0,1,1,0,0,0,1,1,0,0,1,0]","location_rts":"[766,588,598,618,392,393,537,341,582,349,536,398,545,338,448,671,341,622,388,433,331,430]","trial_type":"fractal-mutation","trial_index":67,"time_elapsed":1102502,"internal_node_id":"0.0-5.0-13.0"},{"group":"hexagon_bi","fractal_assignment":["../images/cyn_red.png","../images/blu_wht.png","../images/pnk_blu.png","../images/ylw_slt.png","../images/gry_blk.png","../images/org_blu.png"],"mutagen_generator_assignment":[0,1],"goal":4,"start":5,"action_noise":0,"location_history":"[5,0,1,2,3,2,1,2,3,4]","action_history":"[0,1,0,1,1,0,0,1,0]","mutagen_history":"[0,1,0,1,1,0,0,1,0]","location_rts":"[614,398,550,345,496,379,402,280,370]","trial_type":"fractal-mutation","trial_index":68,"time_elapsed":1120342,"internal_node_id":"0.0-5.0-14.0"},{"group":"hexagon_bi","fractal_assignment":["../images/cyn_red.png","../images/blu_wht.png","../images/pnk_blu.png","../images/ylw_slt.png","../images/gry_blk.png","../images/org_blu.png"],"mutagen_generator_assignment":[0,1],"goal":0,"start":4,"action_noise":0,"location_history":"[4,3,2,1,0]","action_history":"[0,1,0,1]","mutagen_history":"[0,1,0,1]","location_rts":"[591,430,450,594]","trial_type":"fractal-mutation","trial_index":69,"time_elapsed":1130863,"internal_node_id":"0.0-5.0-15.0"},{"group":"hexagon_bi","fractal_assignment":["../images/cyn_red.png","../images/blu_wht.png","../images/pnk_blu.png","../images/ylw_slt.png","../images/gry_blk.png","../images/org_blu.png"],"mutagen_generator_assignment":[0,1],"goal":3,"start":0,"action_noise":0,"location_history":"[0,1,2,1,0,5,4,3]","action_history":"[1,0,0,1,0,1,0]","mutagen_history":"[1,0,0,1,0,1,0]","location_rts":"[659,322,673,383,450,466,502]","trial_type":"fractal-mutation","trial_index":70,"time_elapsed":1146257,"internal_node_id":"0.0-5.0-16.0"},{"group":"hexagon_bi","fractal_assignment":["../images/cyn_red.png","../images/blu_wht.png","../images/pnk_blu.png","../images/ylw_slt.png","../images/gry_blk.png","../images/org_blu.png"],"mutagen_generator_assignment":[0,1],"goal":1,"start":3,"action_noise":0,"location_history":"[3,2,1]","action_history":"[1,0]","mutagen_history":"[1,0]","location_rts":"[564,340]","trial_type":"fractal-mutation","trial_index":71,"time_elapsed":1153381,"internal_node_id":"0.0-5.0-17.0"},{"group":"hexagon_bi","fractal_assignment":["../images/cyn_red.png","../images/blu_wht.png","../images/pnk_blu.png","../images/ylw_slt.png","../images/gry_blk.png","../images/org_blu.png"],"mutagen_generator_assignment":[0,1],"goal":5,"start":1,"action_noise":0,"location_history":"[1,2,3,4,3,2,3,4,3,2,1,2,3,2,1,2,1,0,1,2,1,0,5]","action_history":"[0,1,0,0,1,1,0,0,1,0,0,1,1,0,0,0,1,1,0,0,1,0]","mutagen_history":"[0,1,0,0,1,1,0,0,1,0,0,1,1,0,0,0,1,1,0,0,1,0]","location_rts":"[563,392,500,703,314,634,385,438,367,461,373,304,433,410,406,576,555,451,360,401,387,422]","trial_type":"fractal-mutation","trial_index":72,"time_elapsed":1191982,"internal_node_id":"0.0-5.0-18.0"},{"group":"hexagon_bi","fractal_assignment":["../images/cyn_red.png","../images/blu_wht.png","../images/pnk_blu.png","../images/ylw_slt.png","../images/gry_blk.png","../images/org_blu.png"],"mutagen_generator_assignment":[0,1],"goal":2,"start":5,"action_noise":0,"location_history":"[5,0,1,2]","action_history":"[0,1,0]","mutagen_history":"[0,1,0]","location_rts":"[685,390,464]","trial_type":"fractal-mutation","trial_index":73,"time_elapsed":1200826,"internal_node_id":"0.0-5.0-19.0"},{"group":"hexagon_bi","fractal_assignment":["../images/cyn_red.png","../images/blu_wht.png","../images/pnk_blu.png","../images/ylw_slt.png","../images/gry_blk.png","../images/org_blu.png"],"mutagen_generator_assignment":[0,1],"goal":4,"start":2,"action_noise":0,"location_history":"[2,1,0,5,4]","action_history":"[0,1,0,1]","mutagen_history":"[0,1,0,1]","location_rts":"[482,370,465,455]","trial_type":"fractal-mutation","trial_index":74,"time_elapsed":1211055,"internal_node_id":"0.0-5.0-20.0"},{"group":"hexagon_bi","fractal_assignment":["../images/cyn_red.png","../images/blu_wht.png","../images/pnk_blu.png","../images/ylw_slt.png","../images/gry_blk.png","../images/org_blu.png"],"mutagen_generator_assignment":[0,1],"goal":1,"start":4,"action_noise":0,"location_history":"[4,3,2,1]","action_history":"[0,1,0]","mutagen_history":"[0,1,0]","location_rts":"[467,359,331]","trial_type":"fractal-mutation","trial_index":75,"time_elapsed":1219553,"internal_node_id":"0.0-5.0-21.0"},{"group":"hexagon_bi","fractal_assignment":["../images/cyn_red.png","../images/blu_wht.png","../images/pnk_blu.png","../images/ylw_slt.png","../images/gry_blk.png","../images/org_blu.png"],"mutagen_generator_assignment":[0,1],"goal":3,"start":1,"action_noise":0,"location_history":"[1,0,5,4,3]","action_history":"[1,0,1,0]","mutagen_history":"[1,0,1,0]","location_rts":"[551,320,595,365]","trial_type":"fractal-mutation","trial_index":76,"time_elapsed":1229900,"internal_node_id":"0.0-5.0-22.0"},{"group":"hexagon_bi","fractal_assignment":["../images/cyn_red.png","../images/blu_wht.png","../images/pnk_blu.png","../images/ylw_slt.png","../images/gry_blk.png","../images/org_blu.png"],"mutagen_generator_assignment":[0,1],"goal":2,"start":3,"action_noise":0,"location_history":"[3,2]","action_history":"[1]","mutagen_history":"[1]","location_rts":"[385]","trial_type":"fractal-mutation","trial_index":77,"time_elapsed":1235435,"internal_node_id":"0.0-5.0-23.0"},{"group":"hexagon_bi","fractal_assignment":["../images/cyn_red.png","../images/blu_wht.png","../images/pnk_blu.png","../images/ylw_slt.png","../images/gry_blk.png","../images/org_blu.png"],"mutagen_generator_assignment":[0,1],"goal":0,"start":2,"action_noise":0,"location_history":"[2,1,0]","action_history":"[0,1]","mutagen_history":"[0,1]","location_rts":"[351,283]","trial_type":"fractal-mutation","trial_index":78,"time_elapsed":1242319,"internal_node_id":"0.0-5.0-24.0"},{"group":"hexagon_bi","fractal_assignment":["../images/cyn_red.png","../images/blu_wht.png","../images/pnk_blu.png","../images/ylw_slt.png","../images/gry_blk.png","../images/org_blu.png"],"mutagen_generator_assignment":[0,1],"goal":5,"start":0,"action_noise":0,"location_history":"[0,5]","action_history":"[0]","mutagen_history":"[0]","location_rts":"[397]","trial_type":"fractal-mutation","trial_index":79,"time_elapsed":1247816,"internal_node_id":"0.0-5.0-25.0"},{"group":"hexagon_bi","fractal_assignment":["../images/cyn_red.png","../images/blu_wht.png","../images/pnk_blu.png","../images/ylw_slt.png","../images/gry_blk.png","../images/org_blu.png"],"mutagen_generator_assignment":[0,1],"goal":2,"start":5,"action_noise":0,"location_history":"[5,4,3,2]","action_history":"[1,0,1]","mutagen_history":"[1,0,1]","location_rts":"[303,322,375]","trial_type":"fractal-mutation","trial_index":80,"time_elapsed":1256530,"internal_node_id":"0.0-5.0-26.0"},{"group":"hexagon_bi","fractal_assignment":["../images/cyn_red.png","../images/blu_wht.png","../images/pnk_blu.png","../images/ylw_slt.png","../images/gry_blk.png","../images/org_blu.png"],"mutagen_generator_assignment":[0,1],"goal":3,"start":2,"action_noise":0,"location_history":"[2,1,0,5,4,3]","action_history":"[0,1,0,1,0]","mutagen_history":"[0,1,0,1,0]","location_rts":"[325,336,447,487,534]","trial_type":"fractal-mutation","trial_index":81,"time_elapsed":1268102,"internal_node_id":"0.0-5.0-27.0"},{"group":"hexagon_bi","fractal_assignment":["../images/cyn_red.png","../images/blu_wht.png","../images/pnk_blu.png","../images/ylw_slt.png","../images/gry_blk.png","../images/org_blu.png"],"mutagen_generator_assignment":[0,1],"goal":0,"start":3,"action_noise":0,"location_history":"[3,2,1,0]","action_history":"[1,0,1]","mutagen_history":"[1,0,1]","location_rts":"[371,317,374]","trial_type":"fractal-mutation","trial_index":82,"time_elapsed":1276508,"internal_node_id":"0.0-5.0-28.0"},{"group":"hexagon_bi","fractal_assignment":["../images/cyn_red.png","../images/blu_wht.png","../images/pnk_blu.png","../images/ylw_slt.png","../images/gry_blk.png","../images/org_blu.png"],"mutagen_generator_assignment":[0,1],"goal":1,"start":0,"action_noise":0,"location_history":"[0,5,4,3,2,1]","action_history":"[0,1,0,1,0]","mutagen_history":"[0,1,0,1,0]","location_rts":"[453,338,318,356,408]","trial_type":"fractal-mutation","trial_index":83,"time_elapsed":1287861,"internal_node_id":"0.0-5.0-29.0"},{"group":"hexagon_bi","fractal_assignment":["../images/cyn_red.png","../images/blu_wht.png","../images/pnk_blu.png","../images/ylw_slt.png","../images/gry_blk.png","../images/org_blu.png"],"mutagen_generator_assignment":[0,1],"goal":4,"start":1,"action_noise":0,"location_history":"[1,0,5,4]","action_history":"[1,0,1]","mutagen_history":"[1,0,1]","location_rts":"[432,339,358]","trial_type":"fractal-mutation","trial_index":84,"time_elapsed":1296303,"internal_node_id":"0.0-5.0-30.0"},{"group":"hexagon_bi","fractal_assignment":["../images/cyn_red.png","../images/blu_wht.png","../images/pnk_blu.png","../images/ylw_slt.png","../images/gry_blk.png","../images/org_blu.png"],"mutagen_generator_assignment":[0,1],"goal":5,"start":4,"action_noise":0,"location_history":"[4,3,2,1,0,5]","action_history":"[0,1,0,1,0]","mutagen_history":"[0,1,0,1,0]","location_rts":"[299,334,302,456,476]","trial_type":"fractal-mutation","trial_index":85,"time_elapsed":1307763,"internal_node_id":"0.0-5.0-31.0"},{"group":"hexagon_bi","fractal_assignment":["../images/cyn_red.png","../images/blu_wht.png","../images/pnk_blu.png","../images/ylw_slt.png","../images/gry_blk.png","../images/org_blu.png"],"mutagen_generator_assignment":[0,1],"goal":0,"start":5,"action_noise":0,"location_history":"[5,4,3,2,1,0]","action_history":"[1,0,1,0,1]","mutagen_history":"[1,0,1,0,1]","location_rts":"[353,309,489,451,515]","trial_type":"fractal-mutation","trial_index":86,"time_elapsed":1319392,"internal_node_id":"0.0-5.0-32.0"},{"group":"hexagon_bi","fractal_assignment":["../images/cyn_red.png","../images/blu_wht.png","../images/pnk_blu.png","../images/ylw_slt.png","../images/gry_blk.png","../images/org_blu.png"],"mutagen_generator_assignment":[0,1],"goal":3,"start":0,"action_noise":0,"location_history":"[0,1,2,3]","action_history":"[1,0,1]","mutagen_history":"[1,0,1]","location_rts":"[555,318,342]","trial_type":"fractal-mutation","trial_index":87,"time_elapsed":1327963,"internal_node_id":"0.0-5.0-33.0"},{"group":"hexagon_bi","fractal_assignment":["../images/cyn_red.png","../images/blu_wht.png","../images/pnk_blu.png","../images/ylw_slt.png","../images/gry_blk.png","../images/org_blu.png"],"mutagen_generator_assignment":[0,1],"goal":1,"start":3,"action_noise":0,"location_history":"[3,4,5,0,1]","action_history":"[0,1,0,1]","mutagen_history":"[0,1,0,1]","location_rts":"[443,309,406,426]","trial_type":"fractal-mutation","trial_index":88,"time_elapsed":1337981,"internal_node_id":"0.0-5.0-34.0"},{"group":"hexagon_bi","fractal_assignment":["../images/cyn_red.png","../images/blu_wht.png","../images/pnk_blu.png","../images/ylw_slt.png","../images/gry_blk.png","../images/org_blu.png"],"mutagen_generator_assignment":[0,1],"goal":2,"start":1,"action_noise":0,"location_history":"[1,2]","action_history":"[0]","mutagen_history":"[0]","location_rts":"[382]","trial_type":"fractal-mutation","trial_index":89,"time_elapsed":1343496,"internal_node_id":"0.0-5.0-35.0"},{"group":"hexagon_bi","fractal_assignment":["../images/cyn_red.png","../images/blu_wht.png","../images/pnk_blu.png","../images/ylw_slt.png","../images/gry_blk.png","../images/org_blu.png"],"mutagen_generator_assignment":[0,1],"goal":4,"start":2,"action_noise":0,"location_history":"[2,3,4]","action_history":"[1,0]","mutagen_history":"[1,0]","location_rts":"[351,261]","trial_type":"fractal-mutation","trial_index":90,"time_elapsed":1350524,"internal_node_id":"0.0-5.0-36.0"},{"group":"hexagon_bi","fractal_assignment":["../images/cyn_red.png","../images/blu_wht.png","../images/pnk_blu.png","../images/ylw_slt.png","../images/gry_blk.png","../images/org_blu.png"],"mutagen_generator_assignment":[0,1],"goal":5,"start":4,"action_noise":0,"location_history":"[4,5]","action_history":"[1]","mutagen_history":"[1]","location_rts":"[365]","trial_type":"fractal-mutation","trial_index":91,"time_elapsed":1356028,"internal_node_id":"0.0-5.0-37.0"},{"group":"hexagon_bi","fractal_assignment":["../images/cyn_red.png","../images/blu_wht.png","../images/pnk_blu.png","../images/ylw_slt.png","../images/gry_blk.png","../images/org_blu.png"],"mutagen_generator_assignment":[0,1],"goal":1,"start":5,"action_noise":0,"location_history":"[5,0,1]","action_history":"[0,1]","mutagen_history":"[0,1]","location_rts":"[354,376]","trial_type":"fractal-mutation","trial_index":92,"time_elapsed":1362951,"internal_node_id":"0.0-5.0-38.0"},{"group":"hexagon_bi","fractal_assignment":["../images/cyn_red.png","../images/blu_wht.png","../images/pnk_blu.png","../images/ylw_slt.png","../images/gry_blk.png","../images/org_blu.png"],"mutagen_generator_assignment":[0,1],"goal":4,"start":1,"action_noise":0,"location_history":"[1,2,3,4]","action_history":"[0,1,0]","mutagen_history":"[0,1,0]","location_rts":"[392,313,329]","trial_type":"fractal-mutation","trial_index":93,"time_elapsed":1371260,"internal_node_id":"0.0-5.0-39.0"},{"group":"hexagon_bi","fractal_assignment":["../images/cyn_red.png","../images/blu_wht.png","../images/pnk_blu.png","../images/ylw_slt.png","../images/gry_blk.png","../images/org_blu.png"],"mutagen_generator_assignment":[0,1],"goal":3,"start":4,"action_noise":0,"location_history":"[4,5,0,1,2,3]","action_history":"[1,0,1,0,1]","mutagen_history":"[1,0,1,0,1]","location_rts":"[331,345,527,463,673]","trial_type":"fractal-mutation","trial_index":94,"time_elapsed":1383307,"internal_node_id":"0.0-5.0-40.0"},{"group":"hexagon_bi","fractal_assignment":["../images/cyn_red.png","../images/blu_wht.png","../images/pnk_blu.png","../images/ylw_slt.png","../images/gry_blk.png","../images/org_blu.png"],"mutagen_generator_assignment":[0,1],"goal":2,"start":3,"action_noise":0,"location_history":"[3,4,5,0,1,2]","action_history":"[0,1,0,1,0]","mutagen_history":"[0,1,0,1,0]","location_rts":"[427,384,400,434,399]","trial_type":"fractal-mutation","trial_index":95,"time_elapsed":1394873,"internal_node_id":"0.0-5.0-41.0"},{"group":"hexagon_bi","fractal_assignment":["../images/cyn_red.png","../images/blu_wht.png","../images/pnk_blu.png","../images/ylw_slt.png","../images/gry_blk.png","../images/org_blu.png"],"mutagen_generator_assignment":[0,1],"goal":0,"start":2,"action_noise":0,"location_history":"[2,3,4,5,0]","action_history":"[1,0,1,0]","mutagen_history":"[1,0,1,0]","location_rts":"[415,399,340,448]","trial_type":"fractal-mutation","trial_index":96,"time_elapsed":1405112,"internal_node_id":"0.0-5.0-42.0"},{"group":"hexagon_bi","fractal_assignment":["../images/cyn_red.png","../images/blu_wht.png","../images/pnk_blu.png","../images/ylw_slt.png","../images/gry_blk.png","../images/org_blu.png"],"mutagen_generator_assignment":[0,1],"goal":5,"start":0,"action_noise":0,"location_history":"[0,1,2,3,4,5]","action_history":"[1,0,1,0,1]","mutagen_history":"[1,0,1,0,1]","location_rts":"[389,350,450,408,417]","trial_type":"fractal-mutation","trial_index":97,"time_elapsed":1416710,"internal_node_id":"0.0-5.0-43.0"},{"group":"hexagon_bi","fractal_assignment":["../images/cyn_red.png","../images/blu_wht.png","../images/pnk_blu.png","../images/ylw_slt.png","../images/gry_blk.png","../images/org_blu.png"],"mutagen_generator_assignment":[0,1],"goal":0,"start":5,"action_noise":0,"location_history":"[5,0]","action_history":"[0]","mutagen_history":"[0]","location_rts":"[344]","trial_type":"fractal-mutation","trial_index":98,"time_elapsed":1422156,"internal_node_id":"0.0-5.0-44.0"},{"group":"hexagon_bi","fractal_assignment":["../images/cyn_red.png","../images/blu_wht.png","../images/pnk_blu.png","../images/ylw_slt.png","../images/gry_blk.png","../images/org_blu.png"],"mutagen_generator_assignment":[0,1],"goal":2,"start":0,"action_noise":0,"location_history":"[0,1,2]","action_history":"[1,0]","mutagen_history":"[1,0]","location_rts":"[310,351]","trial_type":"fractal-mutation","trial_index":99,"time_elapsed":1429057,"internal_node_id":"0.0-5.0-45.0"},{"group":"hexagon_bi","fractal_assignment":["../images/cyn_red.png","../images/blu_wht.png","../images/pnk_blu.png","../images/ylw_slt.png","../images/gry_blk.png","../images/org_blu.png"],"mutagen_generator_assignment":[0,1],"goal":4,"start":2,"action_noise":0,"location_history":"[2,3,4]","action_history":"[1,0]","mutagen_history":"[1,0]","location_rts":"[326,303]","trial_type":"fractal-mutation","trial_index":100,"time_elapsed":1435936,"internal_node_id":"0.0-5.0-46.0"},{"group":"hexagon_bi","fractal_assignment":["../images/cyn_red.png","../images/blu_wht.png","../images/pnk_blu.png","../images/ylw_slt.png","../images/gry_blk.png","../images/org_blu.png"],"mutagen_generator_assignment":[0,1],"goal":1,"start":4,"action_noise":0,"location_history":"[4,5,0,1]","action_history":"[1,0,1]","mutagen_history":"[1,0,1]","location_rts":"[356,306,364]","trial_type":"fractal-mutation","trial_index":101,"time_elapsed":1444318,"internal_node_id":"0.0-5.0-47.0"},{"group":"hexagon_bi","fractal_assignment":["../images/cyn_red.png","../images/blu_wht.png","../images/pnk_blu.png","../images/ylw_slt.png","../images/gry_blk.png","../images/org_blu.png"],"mutagen_generator_assignment":[0,1],"goal":5,"start":1,"action_noise":0,"location_history":"[1,2,3,4,5]","action_history":"[0,1,0,1]","mutagen_history":"[0,1,0,1]","location_rts":"[355,316,323,418]","trial_type":"fractal-mutation","trial_index":102,"time_elapsed":1454385,"internal_node_id":"0.0-5.0-48.0"},{"group":"hexagon_bi","fractal_assignment":["../images/cyn_red.png","../images/blu_wht.png","../images/pnk_blu.png","../images/ylw_slt.png","../images/gry_blk.png","../images/org_blu.png"],"mutagen_generator_assignment":[0,1],"goal":3,"start":5,"action_noise":0,"location_history":"[5,0,1,2,3]","action_history":"[0,1,0,1]","mutagen_history":"[0,1,0,1]","location_rts":"[365,533,324,422]","trial_type":"fractal-mutation","trial_index":103,"time_elapsed":1464458,"internal_node_id":"0.0-5.0-49.0"},{"view_history":"[{\"page_index\":0,\"viewing_time\":3550}]","rt":3551,"trial_type":"instructions","trial_index":104,"time_elapsed":1469010,"internal_node_id":"0.0-6.0"},{"rt":10527,"responses":"{\"Q0\":\"this was great\"}","trial_type":"survey-text","trial_index":105,"time_elapsed":1480557,"internal_node_id":"0.0-7.0"}]