[{"view_history":"[{\"page_index\":0,\"viewing_time\":1998},{\"page_index\":1,\"viewing_time\":2446}]","rt":4446,"trial_type":"instructions","trial_index":0,"time_elapsed":4452,"internal_node_id":"0.0-0.0"},{"view_history":"[{\"page_index\":0,\"viewing_time\":126484},{\"page_index\":1,\"viewing_time\":9260}]","rt":135779,"trial_type":"instructions","trial_index":1,"time_elapsed":141241,"internal_node_id":"0.0-1.0"},{"group":"hexagon_tri","room_assignment":["grey","green","yellow","purple","red","blue"],"door_color_assignment":["white","black"],"door_generator_assignment":[0,1],"goal":3,"start":5,"action_noise":0,"location_history":"[5,0,5,4,0,5,0,1,5,4,0,5,0,5,0,1,3]","action_history":"[1,0,0,0,0,1,1,1,0,0,0,1,0,1,1,0]","door_history":"[1,0,0,0,0,1,1,1,0,0,0,1,0,1,1,0]","location_rts":"[1761,1409,722,1483,737,795,848,923,2417,899,865,1024,699,624,787,646]","trial_type":"two-door-navigation","trial_index":2,"time_elapsed":181314,"internal_node_id":"0.0-2.0-0.0"},{"group":"hexagon_tri","room_assignment":["grey","green","yellow","purple","red","blue"],"door_color_assignment":["white","black"],"door_generator_assignment":[0,1],"goal":1,"start":3,"action_noise":0,"location_history":"[3,4,0,1]","action_history":"[1,0,1]","door_history":"[1,0,1]","location_rts":"[1580,940,925]","trial_type":"two-door-navigation","trial_index":3,"time_elapsed":192532,"internal_node_id":"0.0-2.0-1.0"},{"group":"hexagon_tri","room_assignment":["grey","green","yellow","purple","red","blue"],"door_color_assignment":["white","black"],"door_generator_assignment":[0,1],"goal":0,"start":1,"action_noise":0,"location_history":"[1,3,4,2,1,3,2,3,4,2,3,2,1,5,0]","action_history":"[0,1,1,0,0,0,1,1,1,1,0,0,1,1]","door_history":"[0,1,1,0,0,0,1,1,1,1,0,0,1,1]","location_rts":"[811,1547,721,703,877,1013,893,704,856,837,1194,55682,1174,878]","trial_type":"two-door-navigation","trial_index":4,"time_elapsed":281357,"internal_node_id":"0.0-2.0-2.0"},{"group":"hexagon_tri","room_assignment":["grey","green","yellow","purple","red","blue"],"door_color_assignment":["white","black"],"door_generator_assignment":[0,1],"goal":3,"start":0,"action_noise":0,"location_history":"[0,5,4,2,3]","action_history":"[0,0,1,1]","door_history":"[0,0,1,1]","location_rts":"[2030,827,854,956]","trial_type":"two-door-navigation","trial_index":5,"time_elapsed":294643,"internal_node_id":"0.0-2.0-3.0"},{"group":"hexagon_tri","room_assignment":["grey","green","yellow","purple","red","blue"],"door_color_assignment":["white","black"],"door_generator_assignment":[0,1],"goal":4,"start":3,"action_noise":0,"location_history":"[3,4]","action_history":"[1]","door_history":"[1]","location_rts":"[772]","trial_type":"two-door-navigation","trial_index":6,"time_elapsed":300754,"internal_node_id":"0.0-2.0-4.0"},{"group":"hexagon_tri","room_assignment":["grey","green","yellow","purple","red","blue"],"door_color_assignment":["white","black"],"door_generator_assignment":[0,1],"goal":2,"start":4,"action_noise":0,"location_history":"[4,2]","action_history":"[1]","door_history":"[1]","location_rts":"[823]","trial_type":"two-door-navigation","trial_index":7,"time_elapsed":306811,"internal_node_id":"0.0-2.0-5.0"},{"group":"hexagon_tri","room_assignment":["grey","green","yellow","purple","red","blue"],"door_color_assignment":["white","black"],"door_generator_assignment":[0,1],"goal":1,"start":2,"action_noise":0,"location_history":"[2,3,2,1]","action_history":"[1,0,0]","door_history":"[1,0,0]","location_rts":"[1392,3202,1411]","trial_type":"two-door-navigation","trial_index":8,"time_elapsed":320340,"internal_node_id":"0.0-2.0-6.0"},{"group":"hexagon_tri","room_assignment":["grey","green","yellow","purple","red","blue"],"door_color_assignment":["white","black"],"door_generator_assignment":[0,1],"goal":5,"start":1,"action_noise":0,"location_history":"[1,3,4,2,3,4,2,1,3,2,1,3,4,2,3,4,2,1,5]","action_history":"[0,1,1,1,1,1,0,0,0,0,0,1,1,1,1,1,0,1]","door_history":"[0,1,1,1,1,1,0,0,0,0,0,1,1,1,1,1,0,1]","location_rts":"[4027,1807,909,2209,1966,3274,1065,821,1113,768,848,1116,629,801,963,1098,1676,840]","trial_type":"two-door-navigation","trial_index":9,"time_elapsed":371496,"internal_node_id":"0.0-2.0-7.0"},{"group":"hexagon_tri","room_assignment":["grey","green","yellow","purple","red","blue"],"door_color_assignment":["white","black"],"door_generator_assignment":[0,1],"goal":4,"start":5,"action_noise":0,"location_history":"[5,4]","action_history":"[0]","door_history":"[0]","location_rts":"[763]","trial_type":"two-door-navigation","trial_index":10,"time_elapsed":377373,"internal_node_id":"0.0-2.0-8.0"},{"group":"hexagon_tri","room_assignment":["grey","green","yellow","purple","red","blue"],"door_color_assignment":["white","black"],"door_generator_assignment":[0,1],"goal":2,"start":4,"action_noise":0,"location_history":"[4,0,1,5,0,1,5,4,0,5,0,5,0,5,4,2]","action_history":"[0,1,1,1,1,1,0,0,0,1,0,1,0,0,1]","door_history":"[0,1,1,1,1,1,0,0,0,1,0,1,0,0,1]","location_rts":"[924,765,855,924,941,922,661,862,862,1028,749,690,2048,656,803]","trial_type":"two-door-navigation","trial_index":11,"time_elapsed":413035,"internal_node_id":"0.0-2.0-9.0"},{"group":"hexagon_tri","room_assignment":["grey","green","yellow","purple","red","blue"],"door_color_assignment":["white","black"],"door_generator_assignment":[0,1],"goal":0,"start":2,"action_noise":0,"location_history":"[2,3,2,1,5,0]","action_history":"[1,0,0,1,1]","door_history":"[1,0,0,1,1]","location_rts":"[993,966,1215,581,772]","trial_type":"two-door-navigation","trial_index":12,"time_elapsed":427443,"internal_node_id":"0.0-2.0-10.0"},{"group":"hexagon_tri","room_assignment":["grey","green","yellow","purple","red","blue"],"door_color_assignment":["white","black"],"door_generator_assignment":[0,1],"goal":1,"start":0,"action_noise":0,"location_history":"[0,5,0,1]","action_history":"[0,1,1]","door_history":"[0,1,1]","location_rts":"[1449,875,719]","trial_type":"two-door-navigation","trial_index":13,"time_elapsed":438001,"internal_node_id":"0.0-2.0-11.0"},{"group":"hexagon_tri","room_assignment":["grey","green","yellow","purple","red","blue"],"door_color_assignment":["white","black"],"door_generator_assignment":[0,1],"goal":3,"start":1,"action_noise":0,"location_history":"[1,5,0,5,4,0,5,0,5,4,2,3]","action_history":"[1,1,0,0,0,0,1,0,0,1,1]","door_history":"[1,1,0,0,0,0,1,0,0,1,1]","location_rts":"[1119,1027,797,729,880,1453,988,864,866,1265,958]","trial_type":"two-door-navigation","trial_index":14,"time_elapsed":466307,"internal_node_id":"0.0-2.0-12.0"},{"group":"hexagon_tri","room_assignment":["grey","green","yellow","purple","red","blue"],"door_color_assignment":["white","black"],"door_generator_assignment":[0,1],"goal":5,"start":3,"action_noise":0,"location_history":"[3,2,1,5]","action_history":"[0,0,1]","door_history":"[0,0,1]","location_rts":"[1146,957,869]","trial_type":"two-door-navigation","trial_index":15,"time_elapsed":477061,"internal_node_id":"0.0-2.0-13.0"},{"group":"hexagon_tri","room_assignment":["grey","green","yellow","purple","red","blue"],"door_color_assignment":["white","black"],"door_generator_assignment":[0,1],"goal":4,"start":5,"action_noise":0,"location_history":"[5,4]","action_history":"[0]","door_history":"[0]","location_rts":"[1195]","trial_type":"two-door-navigation","trial_index":16,"time_elapsed":483428,"internal_node_id":"0.0-2.0-14.0"},{"group":"hexagon_tri","room_assignment":["grey","green","yellow","purple","red","blue"],"door_color_assignment":["white","black"],"door_generator_assignment":[0,1],"goal":0,"start":4,"action_noise":0,"location_history":"[4,0]","action_history":"[0]","door_history":"[0]","location_rts":"[1563]","trial_type":"two-door-navigation","trial_index":17,"time_elapsed":490238,"internal_node_id":"0.0-2.0-15.0"},{"group":"hexagon_tri","room_assignment":["grey","green","yellow","purple","red","blue"],"door_color_assignment":["white","black"],"door_generator_assignment":[0,1],"goal":3,"start":0,"action_noise":0,"location_history":"[0,5,0,5,4,2,3]","action_history":"[0,1,0,0,1,1]","door_history":"[0,1,0,0,1,1]","location_rts":"[1825,1139,895,584,886,1019]","trial_type":"two-door-navigation","trial_index":18,"time_elapsed":507583,"internal_node_id":"0.0-2.0-16.0"},{"group":"hexagon_tri","room_assignment":["grey","green","yellow","purple","red","blue"],"door_color_assignment":["white","black"],"door_generator_assignment":[0,1],"goal":1,"start":3,"action_noise":0,"location_history":"[3,4,0,5,4,2,3,4,0,1]","action_history":"[1,0,0,0,1,1,1,0,1]","door_history":"[1,0,0,0,1,1,1,0,1]","location_rts":"[873,1040,618,961,1352,824,882,822,901]","trial_type":"two-door-navigation","trial_index":19,"time_elapsed":530464,"internal_node_id":"0.0-2.0-17.0"},{"group":"hexagon_tri","room_assignment":["grey","green","yellow","purple","red","blue"],"door_color_assignment":["white","black"],"door_generator_assignment":[0,1],"goal":5,"start":1,"action_noise":0,"location_history":"[1,3,4,2,3,2,1,3,4,0,1,3,2,1,3,4,2,3,4,0,1,3,4,2,1,3,2,3,4,0,1,5]","action_history":"[0,1,1,1,0,0,0,1,0,1,0,0,0,0,1,1,1,1,0,1,0,1,1,0,0,0,1,1,0,1,1]","door_history":"[0,1,1,1,0,0,0,1,0,1,0,0,0,0,1,1,1,1,0,1,0,1,1,0,0,0,1,1,0,1,1]","location_rts":"[1278,1083,711,799,1053,496,1008,1366,770,894,1400,1108,1083,614,1092,824,743,1525,600,841,1345,1104,892,888,893,1001,676,1019,1001,2098,1735]","trial_type":"two-door-navigation","trial_index":20,"time_elapsed":603319,"internal_node_id":"0.0-2.0-18.0"},{"group":"hexagon_tri","room_assignment":["grey","green","yellow","purple","red","blue"],"door_color_assignment":["white","black"],"door_generator_assignment":[0,1],"goal":2,"start":5,"action_noise":0,"location_history":"[5,0,5,4,2]","action_history":"[1,0,0,1]","door_history":"[1,0,0,1]","location_rts":"[2047,724,618,1214]","trial_type":"two-door-navigation","trial_index":21,"time_elapsed":616547,"internal_node_id":"0.0-2.0-19.0"},{"group":"hexagon_tri","room_assignment":["grey","green","yellow","purple","red","blue"],"door_color_assignment":["white","black"],"door_generator_assignment":[0,1],"goal":4,"start":2,"action_noise":0,"location_history":"[2,1,3,4]","action_history":"[0,0,1]","door_history":"[0,0,1]","location_rts":"[1594,818,961]","trial_type":"two-door-navigation","trial_index":22,"time_elapsed":627417,"internal_node_id":"0.0-2.0-20.0"},{"group":"hexagon_tri","room_assignment":["grey","green","yellow","purple","red","blue"],"door_color_assignment":["white","black"],"door_generator_assignment":[0,1],"goal":1,"start":4,"action_noise":0,"location_history":"[4,2,3,4,0,5,4,0,5,0,5,0,5,4,2,1]","action_history":"[1,1,1,0,0,0,0,0,1,0,1,0,0,1,0]","door_history":"[1,1,1,0,0,0,0,0,1,0,1,0,0,1,0]","location_rts":"[1113,1016,1053,966,983,1582,838,978,1461,674,852,2131,623,740,1317]","trial_type":"two-door-navigation","trial_index":23,"time_elapsed":665663,"internal_node_id":"0.0-2.0-21.0"},{"group":"hexagon_tri","room_assignment":["grey","green","yellow","purple","red","blue"],"door_color_assignment":["white","black"],"door_generator_assignment":[0,1],"goal":3,"start":1,"action_noise":0,"location_history":"[1,3]","action_history":"[0]","door_history":"[0]","location_rts":"[6235]","trial_type":"two-door-navigation","trial_index":24,"time_elapsed":677129,"internal_node_id":"0.0-2.0-22.0"},{"group":"hexagon_tri","room_assignment":["grey","green","yellow","purple","red","blue"],"door_color_assignment":["white","black"],"door_generator_assignment":[0,1],"goal":2,"start":3,"action_noise":0,"location_history":"[3,2]","action_history":"[0]","door_history":"[0]","location_rts":"[1348]","trial_type":"two-door-navigation","trial_index":25,"time_elapsed":683617,"internal_node_id":"0.0-2.0-23.0"},{"group":"hexagon_tri","room_assignment":["grey","green","yellow","purple","red","blue"],"door_color_assignment":["white","black"],"door_generator_assignment":[0,1],"goal":0,"start":2,"action_noise":0,"location_history":"[2,1,5,0]","action_history":"[0,1,1]","door_history":"[0,1,1]","location_rts":"[1166,789,942]","trial_type":"two-door-navigation","trial_index":26,"time_elapsed":693843,"internal_node_id":"0.0-2.0-24.0"},{"group":"hexagon_tri","room_assignment":["grey","green","yellow","purple","red","blue"],"door_color_assignment":["white","black"],"door_generator_assignment":[0,1],"goal":5,"start":0,"action_noise":0,"location_history":"[0,5]","action_history":"[0]","door_history":"[0]","location_rts":"[1149]","trial_type":"two-door-navigation","trial_index":27,"time_elapsed":700213,"internal_node_id":"0.0-2.0-25.0"},{"group":"hexagon_tri","room_assignment":["grey","green","yellow","purple","red","blue"],"door_color_assignment":["white","black"],"door_generator_assignment":[0,1],"goal":2,"start":5,"action_noise":0,"location_history":"[5,4,0,1,5,0,5,0,5,4,2]","action_history":"[0,0,1,1,1,0,1,0,0,1]","door_history":"[0,0,1,1,1,0,1,0,0,1]","location_rts":"[1094,892,747,916,1655,734,1562,701,791,900]","trial_type":"two-door-navigation","trial_index":28,"time_elapsed":726310,"internal_node_id":"0.0-2.0-26.0"},{"group":"hexagon_tri","room_assignment":["grey","green","yellow","purple","red","blue"],"door_color_assignment":["white","black"],"door_generator_assignment":[0,1],"goal":3,"start":2,"action_noise":0,"location_history":"[2,1,3]","action_history":"[0,0]","door_history":"[0,0]","location_rts":"[1474,957]","trial_type":"two-door-navigation","trial_index":29,"time_elapsed":735375,"internal_node_id":"0.0-2.0-27.0"},{"group":"hexagon_tri","room_assignment":["grey","green","yellow","purple","red","blue"],"door_color_assignment":["white","black"],"door_generator_assignment":[0,1],"goal":0,"start":3,"action_noise":0,"location_history":"[3,4,0]","action_history":"[1,0]","door_history":"[1,0]","location_rts":"[1015,747]","trial_type":"two-door-navigation","trial_index":30,"time_elapsed":743647,"internal_node_id":"0.0-2.0-28.0"},{"group":"hexagon_tri","room_assignment":["grey","green","yellow","purple","red","blue"],"door_color_assignment":["white","black"],"door_generator_assignment":[0,1],"goal":1,"start":0,"action_noise":0,"location_history":"[0,1]","action_history":"[1]","door_history":"[1]","location_rts":"[1169]","trial_type":"two-door-navigation","trial_index":31,"time_elapsed":750086,"internal_node_id":"0.0-2.0-29.0"},{"group":"hexagon_tri","room_assignment":["grey","green","yellow","purple","red","blue"],"door_color_assignment":["white","black"],"door_generator_assignment":[0,1],"goal":4,"start":1,"action_noise":0,"location_history":"[1,5,4]","action_history":"[1,0]","door_history":"[1,0]","location_rts":"[1596,1151]","trial_type":"two-door-navigation","trial_index":32,"time_elapsed":759407,"internal_node_id":"0.0-2.0-30.0"},{"group":"hexagon_tri","room_assignment":["grey","green","yellow","purple","red","blue"],"door_color_assignment":["white","black"],"door_generator_assignment":[0,1],"goal":5,"start":4,"action_noise":0,"location_history":"[4,2,1,3,2,3,4,2,1,5]","action_history":"[1,0,0,0,1,1,1,0,1]","door_history":"[1,0,0,0,1,1,1,0,1]","location_rts":"[1450,949,727,798,1409,680,729,1294,1109]","trial_type":"two-door-navigation","trial_index":33,"time_elapsed":784175,"internal_node_id":"0.0-2.0-31.0"},{"group":"hexagon_tri","room_assignment":["grey","green","yellow","purple","red","blue"],"door_color_assignment":["white","black"],"door_generator_assignment":[0,1],"goal":0,"start":5,"action_noise":0,"location_history":"[5,4,2,3,2,1,5,4,0]","action_history":"[0,1,1,0,0,1,0,0]","door_history":"[0,1,1,0,0,1,0,0]","location_rts":"[1014,806,747,918,845,1119,1202,625]","trial_type":"two-door-navigation","trial_index":34,"time_elapsed":805531,"internal_node_id":"0.0-2.0-32.0"},{"group":"hexagon_tri","room_assignment":["grey","green","yellow","purple","red","blue"],"door_color_assignment":["white","black"],"door_generator_assignment":[0,1],"goal":3,"start":0,"action_noise":0,"location_history":"[0,1,3]","action_history":"[1,0]","door_history":"[1,0]","location_rts":"[2490,1192]","trial_type":"two-door-navigation","trial_index":35,"time_elapsed":816171,"internal_node_id":"0.0-2.0-33.0"},{"group":"hexagon_tri","room_assignment":["grey","green","yellow","purple","red","blue"],"door_color_assignment":["white","black"],"door_generator_assignment":[0,1],"goal":1,"start":3,"action_noise":0,"location_history":"[3,4,0,5,4,2,3,2,3,2,3,4,0,5,4,2,3,4,0,1]","action_history":"[1,0,0,0,1,1,0,1,0,1,1,0,0,0,1,1,1,0,1]","door_history":"[1,0,0,0,1,1,0,1,0,1,1,0,0,0,1,1,1,0,1]","location_rts":"[2166,663,636,753,1398,690,1103,765,581,1444,813,714,1207,1126,1468,1067,941,995,1985]","trial_type":"two-door-navigation","trial_index":36,"time_elapsed":863761,"internal_node_id":"0.0-2.0-34.0"},{"group":"hexagon_tri","room_assignment":["grey","green","yellow","purple","red","blue"],"door_color_assignment":["white","black"],"door_generator_assignment":[0,1],"goal":2,"start":1,"action_noise":0,"location_history":"[1,3,2]","action_history":"[0,0]","door_history":"[0,0]","location_rts":"[3277,718]","trial_type":"two-door-navigation","trial_index":37,"time_elapsed":874200,"internal_node_id":"0.0-2.0-35.0"},{"group":"hexagon_tri","room_assignment":["grey","green","yellow","purple","red","blue"],"door_color_assignment":["white","black"],"door_generator_assignment":[0,1],"goal":4,"start":2,"action_noise":0,"location_history":"[2,1,3,4]","action_history":"[0,0,1]","door_history":"[0,0,1]","location_rts":"[1373,1015,961]","trial_type":"two-door-navigation","trial_index":38,"time_elapsed":885248,"internal_node_id":"0.0-2.0-36.0"},{"group":"hexagon_tri","room_assignment":["grey","green","yellow","purple","red","blue"],"door_color_assignment":["white","black"],"door_generator_assignment":[0,1],"goal":5,"start":4,"action_noise":0,"location_history":"[4,2,3,2,1,3,4,0,5]","action_history":"[1,1,0,0,0,1,0,0]","door_history":"[1,1,0,0,0,1,0,0]","location_rts":"[1033,707,781,909,880,1009839,1892,1885]","trial_type":"two-door-navigation","trial_index":39,"time_elapsed":1917129,"internal_node_id":"0.0-2.0-37.0"},{"group":"hexagon_tri","room_assignment":["grey","green","yellow","purple","red","blue"],"door_color_assignment":["white","black"],"door_generator_assignment":[0,1],"goal":1,"start":5,"action_noise":0,"location_history":"[5,4,2,3,4,2,3,2,1]","action_history":"[0,1,1,1,1,1,0,0]","door_history":"[0,1,1,1,1,1,0,0]","location_rts":"[2639,623,768,845,1120,850,1375,852]","trial_type":"two-door-navigation","trial_index":40,"time_elapsed":1942367,"internal_node_id":"0.0-2.0-38.0"},{"group":"hexagon_tri","room_assignment":["grey","green","yellow","purple","red","blue"],"door_color_assignment":["white","black"],"door_generator_assignment":[0,1],"goal":4,"start":1,"action_noise":0,"location_history":"[1,3,4]","action_history":"[0,1]","door_history":"[0,1]","location_rts":"[1819,2451]","trial_type":"two-door-navigation","trial_index":41,"time_elapsed":1953696,"internal_node_id":"0.0-2.0-39.0"},{"group":"hexagon_tri","room_assignment":["grey","green","yellow","purple","red","blue"],"door_color_assignment":["white","black"],"door_generator_assignment":[0,1],"goal":3,"start":4,"action_noise":0,"location_history":"[4,0,1,5,0,5,4,2,3]","action_history":"[0,1,1,1,0,0,1,1]","door_history":"[0,1,1,1,0,0,1,1]","location_rts":"[1377,762,874,1695,1285,854,711,777]","trial_type":"two-door-navigation","trial_index":42,"time_elapsed":1975979,"internal_node_id":"0.0-2.0-40.0"},{"group":"hexagon_tri","room_assignment":["grey","green","yellow","purple","red","blue"],"door_color_assignment":["white","black"],"door_generator_assignment":[0,1],"goal":2,"start":3,"action_noise":0,"location_history":"[3,4,2]","action_history":"[1,1]","door_history":"[1,1]","location_rts":"[14262,848]","trial_type":"two-door-navigation","trial_index":43,"time_elapsed":1997752,"internal_node_id":"0.0-2.0-41.0"},{"group":"hexagon_tri","room_assignment":["grey","green","yellow","purple","red","blue"],"door_color_assignment":["white","black"],"door_generator_assignment":[0,1],"goal":0,"start":2,"action_noise":0,"location_history":"[2,3,2,1,3,4,2,3,2,1,5,4,2,1,3,2,1,3,4,2,1,3,2,3,2,1,5,0]","action_history":"[1,0,0,0,1,1,1,0,0,1,0,1,0,0,0,0,0,1,1,0,0,0,1,0,0,1,1]","door_history":"[1,0,0,0,1,1,1,0,0,1,0,1,0,0,0,0,0,1,1,0,0,0,1,0,0,1,1]","location_rts":"[1636,581,748,1048,812,837,865,1467,861,911,839,3244,1175,906,656,952,1169,1364,729,1287,1605,1064,684,713,744,874,1906]","trial_type":"two-door-navigation","trial_index":44,"time_elapsed":2069336,"internal_node_id":"0.0-2.0-42.0"},{"group":"hexagon_tri","room_assignment":["grey","green","yellow","purple","red","blue"],"door_color_assignment":["white","black"],"door_generator_assignment":[0,1],"goal":5,"start":0,"action_noise":0,"location_history":"[0,5]","action_history":"[0]","door_history":"[0]","location_rts":"[1854]","trial_type":"two-door-navigation","trial_index":45,"time_elapsed":2076415,"internal_node_id":"0.0-2.0-43.0"},{"group":"hexagon_tri","room_assignment":["grey","green","yellow","purple","red","blue"],"door_color_assignment":["white","black"],"door_generator_assignment":[0,1],"goal":0,"start":5,"action_noise":0,"location_history":"[5,4,0]","action_history":"[0,0]","door_history":"[0,0]","location_rts":"[823,1098]","trial_type":"two-door-navigation","trial_index":46,"time_elapsed":2085044,"internal_node_id":"0.0-2.0-44.0"},{"group":"hexagon_tri","room_assignment":["grey","green","yellow","purple","red","blue"],"door_color_assignment":["white","black"],"door_generator_assignment":[0,1],"goal":2,"start":0,"action_noise":0,"location_history":"[0,1,5,4,0,5,4,2]","action_history":"[1,1,0,0,0,0,1]","door_history":"[1,1,0,0,0,0,1]","location_rts":"[728,636,776,877,1198,501,790]","trial_type":"two-door-navigation","trial_index":47,"time_elapsed":2103727,"internal_node_id":"0.0-2.0-45.0"},{"group":"hexagon_tri","room_assignment":["grey","green","yellow","purple","red","blue"],"door_color_assignment":["white","black"],"door_generator_assignment":[0,1],"goal":4,"start":2,"action_noise":0,"location_history":"[2,1,3,4]","action_history":"[0,0,1]","door_history":"[0,0,1]","location_rts":"[744,798,1315]","trial_type":"two-door-navigation","trial_index":48,"time_elapsed":2114922,"internal_node_id":"0.0-2.0-46.0"},{"group":"hexagon_tri","room_assignment":["grey","green","yellow","purple","red","blue"],"door_color_assignment":["white","black"],"door_generator_assignment":[0,1],"goal":1,"start":4,"action_noise":0,"location_history":"[4,2,1]","action_history":"[1,0]","door_history":"[1,0]","location_rts":"[1025,1195]","trial_type":"two-door-navigation","trial_index":49,"time_elapsed":2123935,"internal_node_id":"0.0-2.0-47.0"},{"group":"hexagon_tri","room_assignment":["grey","green","yellow","purple","red","blue"],"door_color_assignment":["white","black"],"door_generator_assignment":[0,1],"goal":5,"start":1,"action_noise":0,"location_history":"[1,5]","action_history":"[1]","door_history":"[1]","location_rts":"[685]","trial_type":"two-door-navigation","trial_index":50,"time_elapsed":2130070,"internal_node_id":"0.0-2.0-48.0"},{"group":"hexagon_tri","room_assignment":["grey","green","yellow","purple","red","blue"],"door_color_assignment":["white","black"],"door_generator_assignment":[0,1],"goal":3,"start":5,"action_noise":0,"location_history":"[5,0,5,4,0,1,5,0,5,0,1,3]","action_history":"[1,0,0,0,1,1,1,0,1,1,0]","door_history":"[1,0,0,0,1,1,1,0,1,1,0]","location_rts":"[1154,850,1043,885,1154,471,975,652,881,1372,1099]","trial_type":"two-door-navigation","trial_index":51,"time_elapsed":2157948,"internal_node_id":"0.0-2.0-49.0"},{"view_history":"[{\"page_index\":0,\"viewing_time\":1616}]","rt":1619,"trial_type":"instructions","trial_index":52,"time_elapsed":2160568,"internal_node_id":"0.0-3.0"},{"view_history":"[{\"page_index\":0,\"viewing_time\":1511},{\"page_index\":1,\"viewing_time\":1533}]","rt":3046,"trial_type":"instructions","trial_index":53,"time_elapsed":2164796,"internal_node_id":"0.0-4.0"},{"group":"hexagon_tri","fractal_assignment":["../images/gry_blk.png","../images/blu_wht.png","../images/ylw_slt.png","../images/pnk_blu.png","../images/cyn_red.png","../images/org_blu.png"],"mutagen_generator_assignment":[0,1],"goal":3,"start":5,"action_noise":0,"location_history":"[5,4,2,3]","action_history":"[0,1,1]","mutagen_history":"[0,1,1]","location_rts":"[2932,982,541]","trial_type":"fractal-mutation","trial_index":54,"time_elapsed":2180518,"internal_node_id":"0.0-5.0-0.0"},{"group":"hexagon_tri","fractal_assignment":["../images/gry_blk.png","../images/blu_wht.png","../images/ylw_slt.png","../images/pnk_blu.png","../images/cyn_red.png","../images/org_blu.png"],"mutagen_generator_assignment":[0,1],"goal":1,"start":3,"action_noise":0,"location_history":"[3,2,3,4,2,1]","action_history":"[0,1,1,1,0]","mutagen_history":"[0,1,1,1,0]","location_rts":"[708,651,530,684,847]","trial_type":"fractal-mutation","trial_index":55,"time_elapsed":2199957,"internal_node_id":"0.0-5.0-1.0"},{"group":"hexagon_tri","fractal_assignment":["../images/gry_blk.png","../images/blu_wht.png","../images/ylw_slt.png","../images/pnk_blu.png","../images/cyn_red.png","../images/org_blu.png"],"mutagen_generator_assignment":[0,1],"goal":0,"start":1,"action_noise":0,"location_history":"[1,3,2,3,4,0]","action_history":"[0,0,1,1,0]","mutagen_history":"[0,0,1,1,0]","location_rts":"[2408,1763,1508,1024,1908]","trial_type":"fractal-mutation","trial_index":56,"time_elapsed":2222888,"internal_node_id":"0.0-5.0-2.0"},{"group":"hexagon_tri","fractal_assignment":["../images/gry_blk.png","../images/blu_wht.png","../images/ylw_slt.png","../images/pnk_blu.png","../images/cyn_red.png","../images/org_blu.png"],"mutagen_generator_assignment":[0,1],"goal":3,"start":0,"action_noise":0,"location_history":"[0,5,0,1,5,4,0,1,5,4,2,1,3]","action_history":"[0,1,1,1,0,0,1,1,0,1,0,0]","mutagen_history":"[0,1,1,1,0,0,1,1,0,1,0,0]","location_rts":"[1163,822,774,1536,685,2474,726,1174,5303,886,574,798]","trial_type":"fractal-mutation","trial_index":57,"time_elapsed":2271244,"internal_node_id":"0.0-5.0-3.0"},{"group":"hexagon_tri","fractal_assignment":["../images/gry_blk.png","../images/blu_wht.png","../images/ylw_slt.png","../images/pnk_blu.png","../images/cyn_red.png","../images/org_blu.png"],"mutagen_generator_assignment":[0,1],"goal":4,"start":3,"action_noise":0,"location_history":"[3,4]","action_history":"[1]","mutagen_history":"[1]","location_rts":"[1589]","trial_type":"fractal-mutation","trial_index":58,"time_elapsed":2278829,"internal_node_id":"0.0-5.0-4.0"},{"group":"hexagon_tri","fractal_assignment":["../images/gry_blk.png","../images/blu_wht.png","../images/ylw_slt.png","../images/pnk_blu.png","../images/cyn_red.png","../images/org_blu.png"],"mutagen_generator_assignment":[0,1],"goal":2,"start":4,"action_noise":0,"location_history":"[4,2]","action_history":"[1]","mutagen_history":"[1]","location_rts":"[1365]","trial_type":"fractal-mutation","trial_index":59,"time_elapsed":2286798,"internal_node_id":"0.0-5.0-5.0"},{"group":"hexagon_tri","fractal_assignment":["../images/gry_blk.png","../images/blu_wht.png","../images/ylw_slt.png","../images/pnk_blu.png","../images/cyn_red.png","../images/org_blu.png"],"mutagen_generator_assignment":[0,1],"goal":1,"start":2,"action_noise":0,"location_history":"[2,3,4,0,1]","action_history":"[1,1,0,1]","mutagen_history":"[1,1,0,1]","location_rts":"[1374,906,783,1226]","trial_type":"fractal-mutation","trial_index":60,"time_elapsed":2303575,"internal_node_id":"0.0-5.0-6.0"},{"group":"hexagon_tri","fractal_assignment":["../images/gry_blk.png","../images/blu_wht.png","../images/ylw_slt.png","../images/pnk_blu.png","../images/cyn_red.png","../images/org_blu.png"],"mutagen_generator_assignment":[0,1],"goal":5,"start":1,"action_noise":0,"location_history":"[1,3,4,2,1,3,2,1,3,4,0,5]","action_history":"[0,1,1,0,0,0,0,0,1,0,0]","mutagen_history":"[0,1,1,0,0,0,0,0,1,0,0]","location_rts":"[1686,692,903,795,1069,1058,726,1248,485,729,718]","trial_type":"fractal-mutation","trial_index":61,"time_elapsed":2340741,"internal_node_id":"0.0-5.0-7.0"},{"group":"hexagon_tri","fractal_assignment":["../images/gry_blk.png","../images/blu_wht.png","../images/ylw_slt.png","../images/pnk_blu.png","../images/cyn_red.png","../images/org_blu.png"],"mutagen_generator_assignment":[0,1],"goal":4,"start":5,"action_noise":0,"location_history":"[5,4]","action_history":"[0]","mutagen_history":"[0]","location_rts":"[1031]","trial_type":"fractal-mutation","trial_index":62,"time_elapsed":2347893,"internal_node_id":"0.0-5.0-8.0"},{"group":"hexagon_tri","fractal_assignment":["../images/gry_blk.png","../images/blu_wht.png","../images/ylw_slt.png","../images/pnk_blu.png","../images/cyn_red.png","../images/org_blu.png"],"mutagen_generator_assignment":[0,1],"goal":2,"start":4,"action_noise":0,"location_history":"[4,0,1,3,2]","action_history":"[0,1,0,0]","mutagen_history":"[0,1,0,0]","location_rts":"[57137,1043,890,678]","trial_type":"fractal-mutation","trial_index":63,"time_elapsed":2421057,"internal_node_id":"0.0-5.0-9.0"},{"group":"hexagon_tri","fractal_assignment":["../images/gry_blk.png","../images/blu_wht.png","../images/ylw_slt.png","../images/pnk_blu.png","../images/cyn_red.png","../images/org_blu.png"],"mutagen_generator_assignment":[0,1],"goal":0,"start":2,"action_noise":0,"location_history":"[2,3,4,2,1,3,2,1,5,4,2,3,4,0]","action_history":"[1,1,1,0,0,0,0,1,0,1,1,1,0]","mutagen_history":"[1,1,1,0,0,0,0,1,0,1,1,1,0]","location_rts":"[1562,497,489,766,703,556,505,554,1373,732,1573,933,890]","trial_type":"fractal-mutation","trial_index":64,"time_elapsed":2465425,"internal_node_id":"0.0-5.0-10.0"},{"group":"hexagon_tri","fractal_assignment":["../images/gry_blk.png","../images/blu_wht.png","../images/ylw_slt.png","../images/pnk_blu.png","../images/cyn_red.png","../images/org_blu.png"],"mutagen_generator_assignment":[0,1],"goal":1,"start":0,"action_noise":0,"location_history":"[0,5,4,0,1]","action_history":"[0,0,0,1]","mutagen_history":"[0,0,0,1]","location_rts":"[500,471,615,461]","trial_type":"fractal-mutation","trial_index":65,"time_elapsed":2479873,"internal_node_id":"0.0-5.0-11.0"},{"group":"hexagon_tri","fractal_assignment":["../images/gry_blk.png","../images/blu_wht.png","../images/ylw_slt.png","../images/pnk_blu.png","../images/cyn_red.png","../images/org_blu.png"],"mutagen_generator_assignment":[0,1],"goal":3,"start":1,"action_noise":0,"location_history":"[1,5,4,0,1,3]","action_history":"[1,0,0,1,0]","mutagen_history":"[1,0,0,1,0]","location_rts":"[489,516,2335,592,481]","trial_type":"fractal-mutation","trial_index":66,"time_elapsed":2498322,"internal_node_id":"0.0-5.0-12.0"},{"group":"hexagon_tri","fractal_assignment":["../images/gry_blk.png","../images/blu_wht.png","../images/ylw_slt.png","../images/pnk_blu.png","../images/cyn_red.png","../images/org_blu.png"],"mutagen_generator_assignment":[0,1],"goal":5,"start":3,"action_noise":0,"location_history":"[3,2,3,4,0,5]","action_history":"[0,1,1,0,0]","mutagen_history":"[0,1,1,0,0]","location_rts":"[1673,878,2346,732,1492]","trial_type":"fractal-mutation","trial_index":67,"time_elapsed":2519933,"internal_node_id":"0.0-5.0-13.0"},{"group":"hexagon_tri","fractal_assignment":["../images/gry_blk.png","../images/blu_wht.png","../images/ylw_slt.png","../images/pnk_blu.png","../images/cyn_red.png","../images/org_blu.png"],"mutagen_generator_assignment":[0,1],"goal":4,"start":5,"action_noise":0,"location_history":"[5,4]","action_history":"[0]","mutagen_history":"[0]","location_rts":"[13090]","trial_type":"fractal-mutation","trial_index":68,"time_elapsed":2539460,"internal_node_id":"0.0-5.0-14.0"},{"group":"hexagon_tri","fractal_assignment":["../images/gry_blk.png","../images/blu_wht.png","../images/ylw_slt.png","../images/pnk_blu.png","../images/cyn_red.png","../images/org_blu.png"],"mutagen_generator_assignment":[0,1],"goal":0,"start":4,"action_noise":0,"location_history":"[4,2,1,5,0]","action_history":"[1,0,1,1]","mutagen_history":"[1,0,1,1]","location_rts":"[118230,852,732,773]","trial_type":"fractal-mutation","trial_index":69,"time_elapsed":2673214,"internal_node_id":"0.0-5.0-15.0"},{"group":"hexagon_tri","fractal_assignment":["../images/gry_blk.png","../images/blu_wht.png","../images/ylw_slt.png","../images/pnk_blu.png","../images/cyn_red.png","../images/org_blu.png"],"mutagen_generator_assignment":[0,1],"goal":3,"start":0,"action_noise":0,"location_history":"[0,5,4,2,3]","action_history":"[0,0,1,1]","mutagen_history":"[0,0,1,1]","location_rts":"[1460,2872,2109,1087]","trial_type":"fractal-mutation","trial_index":70,"time_elapsed":2693985,"internal_node_id":"0.0-5.0-16.0"},{"group":"hexagon_tri","fractal_assignment":["../images/gry_blk.png","../images/blu_wht.png","../images/ylw_slt.png","../images/pnk_blu.png","../images/cyn_red.png","../images/org_blu.png"],"mutagen_generator_assignment":[0,1],"goal":1,"start":3,"action_noise":0,"location_history":"[3,2,1]","action_history":"[0,0]","mutagen_history":"[0,0]","location_rts":"[2008,1632]","trial_type":"fractal-mutation","trial_index":71,"time_elapsed":2707111,"internal_node_id":"0.0-5.0-17.0"},{"group":"hexagon_tri","fractal_assignment":["../images/gry_blk.png","../images/blu_wht.png","../images/ylw_slt.png","../images/pnk_blu.png","../images/cyn_red.png","../images/org_blu.png"],"mutagen_generator_assignment":[0,1],"goal":5,"start":1,"action_noise":0,"location_history":"[1,3,4,0,5]","action_history":"[0,1,0,0]","mutagen_history":"[0,1,0,0]","location_rts":"[3319,1909,1124,1015]","trial_type":"fractal-mutation","trial_index":72,"time_elapsed":2728059,"internal_node_id":"0.0-5.0-18.0"},{"group":"hexagon_tri","fractal_assignment":["../images/gry_blk.png","../images/blu_wht.png","../images/ylw_slt.png","../images/pnk_blu.png","../images/cyn_red.png","../images/org_blu.png"],"mutagen_generator_assignment":[0,1],"goal":2,"start":5,"action_noise":0,"location_history":"[5,0,1,3,2]","action_history":"[1,1,0,0]","mutagen_history":"[1,1,0,0]","location_rts":"[655,2477,1924,3815]","trial_type":"fractal-mutation","trial_index":73,"time_elapsed":2749461,"internal_node_id":"0.0-5.0-19.0"},{"group":"hexagon_tri","fractal_assignment":["../images/gry_blk.png","../images/blu_wht.png","../images/ylw_slt.png","../images/pnk_blu.png","../images/cyn_red.png","../images/org_blu.png"],"mutagen_generator_assignment":[0,1],"goal":4,"start":2,"action_noise":0,"location_history":"[2,1,5,4]","action_history":"[0,1,0]","mutagen_history":"[0,1,0]","location_rts":"[730,2395,1226]","trial_type":"fractal-mutation","trial_index":74,"time_elapsed":2764920,"internal_node_id":"0.0-5.0-20.0"},{"group":"hexagon_tri","fractal_assignment":["../images/gry_blk.png","../images/blu_wht.png","../images/ylw_slt.png","../images/pnk_blu.png","../images/cyn_red.png","../images/org_blu.png"],"mutagen_generator_assignment":[0,1],"goal":1,"start":4,"action_noise":0,"location_history":"[4,2,3,2,1]","action_history":"[1,1,0,0]","mutagen_history":"[1,1,0,0]","location_rts":"[378,636,822,601]","trial_type":"fractal-mutation","trial_index":75,"time_elapsed":2778988,"internal_node_id":"0.0-5.0-21.0"},{"group":"hexagon_tri","fractal_assignment":["../images/gry_blk.png","../images/blu_wht.png","../images/ylw_slt.png","../images/pnk_blu.png","../images/cyn_red.png","../images/org_blu.png"],"mutagen_generator_assignment":[0,1],"goal":3,"start":1,"action_noise":0,"location_history":"[1,3]","action_history":"[0]","mutagen_history":"[0]","location_rts":"[1251]","trial_type":"fractal-mutation","trial_index":76,"time_elapsed":2786399,"internal_node_id":"0.0-5.0-22.0"},{"group":"hexagon_tri","fractal_assignment":["../images/gry_blk.png","../images/blu_wht.png","../images/ylw_slt.png","../images/pnk_blu.png","../images/cyn_red.png","../images/org_blu.png"],"mutagen_generator_assignment":[0,1],"goal":2,"start":3,"action_noise":0,"location_history":"[3,2]","action_history":"[0]","mutagen_history":"[0]","location_rts":"[1097]","trial_type":"fractal-mutation","trial_index":77,"time_elapsed":2793459,"internal_node_id":"0.0-5.0-23.0"},{"group":"hexagon_tri","fractal_assignment":["../images/gry_blk.png","../images/blu_wht.png","../images/ylw_slt.png","../images/pnk_blu.png","../images/cyn_red.png","../images/org_blu.png"],"mutagen_generator_assignment":[0,1],"goal":0,"start":2,"action_noise":0,"location_history":"[2,3,2,1,5,4,0]","action_history":"[1,0,0,1,0,0]","mutagen_history":"[1,0,0,1,0,0]","location_rts":"[2083,790,808,804,440,489]","trial_type":"fractal-mutation","trial_index":78,"time_elapsed":2816497,"internal_node_id":"0.0-5.0-24.0"},{"group":"hexagon_tri","fractal_assignment":["../images/gry_blk.png","../images/blu_wht.png","../images/ylw_slt.png","../images/pnk_blu.png","../images/cyn_red.png","../images/org_blu.png"],"mutagen_generator_assignment":[0,1],"goal":5,"start":0,"action_noise":0,"location_history":"[0,5]","action_history":"[0]","mutagen_history":"[0]","location_rts":"[1179]","trial_type":"fractal-mutation","trial_index":79,"time_elapsed":2823476,"internal_node_id":"0.0-5.0-25.0"},{"group":"hexagon_tri","fractal_assignment":["../images/gry_blk.png","../images/blu_wht.png","../images/ylw_slt.png","../images/pnk_blu.png","../images/cyn_red.png","../images/org_blu.png"],"mutagen_generator_assignment":[0,1],"goal":2,"start":5,"action_noise":0,"location_history":"[5,0,1,3,2]","action_history":"[1,1,0,0]","mutagen_history":"[1,1,0,0]","location_rts":"[1842,1248,691,566]","trial_type":"fractal-mutation","trial_index":80,"time_elapsed":2840616,"internal_node_id":"0.0-5.0-26.0"},{"group":"hexagon_tri","fractal_assignment":["../images/gry_blk.png","../images/blu_wht.png","../images/ylw_slt.png","../images/pnk_blu.png","../images/cyn_red.png","../images/org_blu.png"],"mutagen_generator_assignment":[0,1],"goal":3,"start":2,"action_noise":0,"location_history":"[2,1,5,0,1,3]","action_history":"[0,1,1,1,0]","mutagen_history":"[0,1,1,1,0]","location_rts":"[1577,1581,445,981,616]","trial_type":"fractal-mutation","trial_index":81,"time_elapsed":2859623,"internal_node_id":"0.0-5.0-27.0"},{"group":"hexagon_tri","fractal_assignment":["../images/gry_blk.png","../images/blu_wht.png","../images/ylw_slt.png","../images/pnk_blu.png","../images/cyn_red.png","../images/org_blu.png"],"mutagen_generator_assignment":[0,1],"goal":0,"start":3,"action_noise":0,"location_history":"[3,2,3,4,0]","action_history":"[0,1,1,0]","mutagen_history":"[0,1,1,0]","location_rts":"[1082,650,525,1437]","trial_type":"fractal-mutation","trial_index":82,"time_elapsed":2875520,"internal_node_id":"0.0-5.0-28.0"},{"group":"hexagon_tri","fractal_assignment":["../images/gry_blk.png","../images/blu_wht.png","../images/ylw_slt.png","../images/pnk_blu.png","../images/cyn_red.png","../images/org_blu.png"],"mutagen_generator_assignment":[0,1],"goal":1,"start":0,"action_noise":0,"location_history":"[0,1]","action_history":"[1]","mutagen_history":"[1]","location_rts":"[2567]","trial_type":"fractal-mutation","trial_index":83,"time_elapsed":2884101,"internal_node_id":"0.0-5.0-29.0"},{"group":"hexagon_tri","fractal_assignment":["../images/gry_blk.png","../images/blu_wht.png","../images/ylw_slt.png","../images/pnk_blu.png","../images/cyn_red.png","../images/org_blu.png"],"mutagen_generator_assignment":[0,1],"goal":4,"start":1,"action_noise":0,"location_history":"[1,5,4]","action_history":"[1,0]","mutagen_history":"[1,0]","location_rts":"[670,939]","trial_type":"fractal-mutation","trial_index":84,"time_elapsed":2894644,"internal_node_id":"0.0-5.0-30.0"},{"group":"hexagon_tri","fractal_assignment":["../images/gry_blk.png","../images/blu_wht.png","../images/ylw_slt.png","../images/pnk_blu.png","../images/cyn_red.png","../images/org_blu.png"],"mutagen_generator_assignment":[0,1],"goal":5,"start":4,"action_noise":0,"location_history":"[4,0,5]","action_history":"[0,0]","mutagen_history":"[0,0]","location_rts":"[2503,502]","trial_type":"fractal-mutation","trial_index":85,"time_elapsed":2905726,"internal_node_id":"0.0-5.0-31.0"},{"group":"hexagon_tri","fractal_assignment":["../images/gry_blk.png","../images/blu_wht.png","../images/ylw_slt.png","../images/pnk_blu.png","../images/cyn_red.png","../images/org_blu.png"],"mutagen_generator_assignment":[0,1],"goal":0,"start":5,"action_noise":0,"location_history":"[5,4,0]","action_history":"[0,0]","mutagen_history":"[0,0]","location_rts":"[1980,413]","trial_type":"fractal-mutation","trial_index":86,"time_elapsed":2915537,"internal_node_id":"0.0-5.0-32.0"},{"group":"hexagon_tri","fractal_assignment":["../images/gry_blk.png","../images/blu_wht.png","../images/ylw_slt.png","../images/pnk_blu.png","../images/cyn_red.png","../images/org_blu.png"],"mutagen_generator_assignment":[0,1],"goal":3,"start":0,"action_noise":0,"location_history":"[0,1,3]","action_history":"[1,0]","mutagen_history":"[1,0]","location_rts":"[1495,1494]","trial_type":"fractal-mutation","trial_index":87,"time_elapsed":2928173,"internal_node_id":"0.0-5.0-33.0"},{"group":"hexagon_tri","fractal_assignment":["../images/gry_blk.png","../images/blu_wht.png","../images/ylw_slt.png","../images/pnk_blu.png","../images/cyn_red.png","../images/org_blu.png"],"mutagen_generator_assignment":[0,1],"goal":1,"start":3,"action_noise":0,"location_history":"[3,2,1]","action_history":"[0,0]","mutagen_history":"[0,0]","location_rts":"[1687,399]","trial_type":"fractal-mutation","trial_index":88,"time_elapsed":2937875,"internal_node_id":"0.0-5.0-34.0"},{"group":"hexagon_tri","fractal_assignment":["../images/gry_blk.png","../images/blu_wht.png","../images/ylw_slt.png","../images/pnk_blu.png","../images/cyn_red.png","../images/org_blu.png"],"mutagen_generator_assignment":[0,1],"goal":2,"start":1,"action_noise":0,"location_history":"[1,3,2]","action_history":"[0,0]","mutagen_history":"[0,0]","location_rts":"[1514,403]","trial_type":"fractal-mutation","trial_index":89,"time_elapsed":2948540,"internal_node_id":"0.0-5.0-35.0"},{"group":"hexagon_tri","fractal_assignment":["../images/gry_blk.png","../images/blu_wht.png","../images/ylw_slt.png","../images/pnk_blu.png","../images/cyn_red.png","../images/org_blu.png"],"mutagen_generator_assignment":[0,1],"goal":4,"start":2,"action_noise":0,"location_history":"[2,3,4]","action_history":"[1,1]","mutagen_history":"[1,1]","location_rts":"[1901,1628]","trial_type":"fractal-mutation","trial_index":90,"time_elapsed":2960775,"internal_node_id":"0.0-5.0-36.0"},{"group":"hexagon_tri","fractal_assignment":["../images/gry_blk.png","../images/blu_wht.png","../images/ylw_slt.png","../images/pnk_blu.png","../images/cyn_red.png","../images/org_blu.png"],"mutagen_generator_assignment":[0,1],"goal":5,"start":4,"action_noise":0,"location_history":"[4,0,5]","action_history":"[0,0]","mutagen_history":"[0,0]","location_rts":"[1292,414]","trial_type":"fractal-mutation","trial_index":91,"time_elapsed":2969779,"internal_node_id":"0.0-5.0-37.0"},{"group":"hexagon_tri","fractal_assignment":["../images/gry_blk.png","../images/blu_wht.png","../images/ylw_slt.png","../images/pnk_blu.png","../images/cyn_red.png","../images/org_blu.png"],"mutagen_generator_assignment":[0,1],"goal":1,"start":5,"action_noise":0,"location_history":"[5,4,2,1]","action_history":"[0,1,0]","mutagen_history":"[0,1,0]","location_rts":"[2053,1973,1270]","trial_type":"fractal-mutation","trial_index":92,"time_elapsed":2985796,"internal_node_id":"0.0-5.0-38.0"},{"group":"hexagon_tri","fractal_assignment":["../images/gry_blk.png","../images/blu_wht.png","../images/ylw_slt.png","../images/pnk_blu.png","../images/cyn_red.png","../images/org_blu.png"],"mutagen_generator_assignment":[0,1],"goal":4,"start":1,"action_noise":0,"location_history":"[1,5,4]","action_history":"[1,0]","mutagen_history":"[1,0]","location_rts":"[1950,759]","trial_type":"fractal-mutation","trial_index":93,"time_elapsed":2996443,"internal_node_id":"0.0-5.0-39.0"},{"group":"hexagon_tri","fractal_assignment":["../images/gry_blk.png","../images/blu_wht.png","../images/ylw_slt.png","../images/pnk_blu.png","../images/cyn_red.png","../images/org_blu.png"],"mutagen_generator_assignment":[0,1],"goal":3,"start":4,"action_noise":0,"location_history":"[4,2,1,3]","action_history":"[1,0,0]","mutagen_history":"[1,0,0]","location_rts":"[268808,1022,528]","trial_type":"fractal-mutation","trial_index":94,"time_elapsed":3276824,"internal_node_id":"0.0-5.0-40.0"},{"group":"hexagon_tri","fractal_assignment":["../images/gry_blk.png","../images/blu_wht.png","../images/ylw_slt.png","../images/pnk_blu.png","../images/cyn_red.png","../images/org_blu.png"],"mutagen_generator_assignment":[0,1],"goal":2,"start":3,"action_noise":0,"location_history":"[3,2]","action_history":"[0]","mutagen_history":"[0]","location_rts":"[4927]","trial_type":"fractal-mutation","trial_index":95,"time_elapsed":3288016,"internal_node_id":"0.0-5.0-41.0"},{"group":"hexagon_tri","fractal_assignment":["../images/gry_blk.png","../images/blu_wht.png","../images/ylw_slt.png","../images/pnk_blu.png","../images/cyn_red.png","../images/org_blu.png"],"mutagen_generator_assignment":[0,1],"goal":0,"start":2,"action_noise":0,"location_history":"[2,1,5,4,0]","action_history":"[0,1,0,0]","mutagen_history":"[0,1,0,0]","location_rts":"[16064,3823,2744,2587]","trial_type":"fractal-mutation","trial_index":96,"time_elapsed":3325495,"internal_node_id":"0.0-5.0-42.0"},{"group":"hexagon_tri","fractal_assignment":["../images/gry_blk.png","../images/blu_wht.png","../images/ylw_slt.png","../images/pnk_blu.png","../images/cyn_red.png","../images/org_blu.png"],"mutagen_generator_assignment":[0,1],"goal":5,"start":0,"action_noise":0,"location_history":"[0,5]","action_history":"[0]","mutagen_history":"[0]","location_rts":"[2115]","trial_type":"fractal-mutation","trial_index":97,"time_elapsed":3333188,"internal_node_id":"0.0-5.0-43.0"},{"group":"hexagon_tri","fractal_assignment":["../images/gry_blk.png","../images/blu_wht.png","../images/ylw_slt.png","../images/pnk_blu.png","../images/cyn_red.png","../images/org_blu.png"],"mutagen_generator_assignment":[0,1],"goal":0,"start":5,"action_noise":0,"location_history":"[5,4,0]","action_history":"[0,0]","mutagen_history":"[0,0]","location_rts":"[3736,2389]","trial_type":"fractal-mutation","trial_index":98,"time_elapsed":3347192,"internal_node_id":"0.0-5.0-44.0"},{"group":"hexagon_tri","fractal_assignment":["../images/gry_blk.png","../images/blu_wht.png","../images/ylw_slt.png","../images/pnk_blu.png","../images/cyn_red.png","../images/org_blu.png"],"mutagen_generator_assignment":[0,1],"goal":2,"start":0,"action_noise":0,"location_history":"[0,1,3,2]","action_history":"[1,0,0]","mutagen_history":"[1,0,0]","location_rts":"[148945,760,486]","trial_type":"fractal-mutation","trial_index":99,"time_elapsed":3509032,"internal_node_id":"0.0-5.0-45.0"},{"group":"hexagon_tri","fractal_assignment":["../images/gry_blk.png","../images/blu_wht.png","../images/ylw_slt.png","../images/pnk_blu.png","../images/cyn_red.png","../images/org_blu.png"],"mutagen_generator_assignment":[0,1],"goal":4,"start":2,"action_noise":0,"location_history":"[2,3,2,1,5,4]","action_history":"[1,0,0,1,0]","mutagen_history":"[1,0,0,1,0]","location_rts":"[48542,1186,2805,2914,1194]","trial_type":"fractal-mutation","trial_index":100,"time_elapsed":3580833,"internal_node_id":"0.0-5.0-46.0"},{"group":"hexagon_tri","fractal_assignment":["../images/gry_blk.png","../images/blu_wht.png","../images/ylw_slt.png","../images/pnk_blu.png","../images/cyn_red.png","../images/org_blu.png"],"mutagen_generator_assignment":[0,1],"goal":1,"start":4,"action_noise":0,"location_history":"[4,2,1]","action_history":"[1,0]","mutagen_history":"[1,0]","location_rts":"[2980,3396]","trial_type":"fractal-mutation","trial_index":101,"time_elapsed":3595605,"internal_node_id":"0.0-5.0-47.0"},{"group":"hexagon_tri","fractal_assignment":["../images/gry_blk.png","../images/blu_wht.png","../images/ylw_slt.png","../images/pnk_blu.png","../images/cyn_red.png","../images/org_blu.png"],"mutagen_generator_assignment":[0,1],"goal":5,"start":1,"action_noise":0,"location_history":"[1,5]","action_history":"[1]","mutagen_history":"[1]","location_rts":"[2801]","trial_type":"fractal-mutation","trial_index":102,"time_elapsed":3604959,"internal_node_id":"0.0-5.0-48.0"},{"group":"hexagon_tri","fractal_assignment":["../images/gry_blk.png","../images/blu_wht.png","../images/ylw_slt.png","../images/pnk_blu.png","../images/cyn_red.png","../images/org_blu.png"],"mutagen_generator_assignment":[0,1],"goal":3,"start":5,"action_noise":0,"location_history":"[5,0,1,3]","action_history":"[1,1,0]","mutagen_history":"[1,1,0]","location_rts":"[10693,2489,1213]","trial_type":"fractal-mutation","trial_index":103,"time_elapsed":3629680,"internal_node_id":"0.0-5.0-49.0"},{"view_history":"[{\"page_index\":0,\"viewing_time\":2184}]","rt":2188,"trial_type":"instructions","trial_index":104,"time_elapsed":3632872,"internal_node_id":"0.0-6.0"},{"rt":1941,"responses":"{\"Q0\":\"\"}","trial_type":"survey-text","trial_index":105,"time_elapsed":3635868,"internal_node_id":"0.0-7.0"}]