[{"view_history":"[{\"page_index\":0,\"viewing_time\":1233},{\"page_index\":1,\"viewing_time\":5399}]","rt":6633,"trial_type":"instructions","trial_index":0,"time_elapsed":6634,"internal_node_id":"0.0-0.0"},{"view_history":"[{\"page_index\":0,\"viewing_time\":1133},{\"page_index\":1,\"viewing_time\":5328}]","rt":6461,"trial_type":"instructions","trial_index":1,"time_elapsed":14096,"internal_node_id":"0.0-1.0"},{"group":"hexagon_bi","room_assignment":["blue","purple","green","grey","red","yellow"],"door_color_assignment":["black","white"],"door_generator_assignment":[0,1],"goal":3,"start":5,"action_noise":0,"location_history":"[5,0,1,0,1,2,3]","action_history":"[0,1,1,1,0,1]","door_history":"[0,1,1,1,0,1]","location_rts":"[3053,779,467,485,757,562]","trial_type":"two-door-navigation","trial_index":2,"time_elapsed":30369,"internal_node_id":"0.0-2.0-0.0"},{"group":"hexagon_bi","room_assignment":["blue","purple","green","grey","red","yellow"],"door_color_assignment":["black","white"],"door_generator_assignment":[0,1],"goal":1,"start":3,"action_noise":0,"location_history":"[3,4,5,0,5,4,3,2,1]","action_history":"[0,1,0,0,1,0,1,0]","door_history":"[0,1,0,0,1,0,1,0]","location_rts":"[768,548,423,107,161,332,548,691]","trial_type":"two-door-navigation","trial_index":3,"time_elapsed":46141,"internal_node_id":"0.0-2.0-1.0"},{"group":"hexagon_bi","room_assignment":["blue","purple","green","grey","red","yellow"],"door_color_assignment":["black","white"],"door_generator_assignment":[0,1],"goal":0,"start":1,"action_noise":0,"location_history":"[1,0]","action_history":"[1]","door_history":"[1]","location_rts":"[604]","trial_type":"two-door-navigation","trial_index":4,"time_elapsed":51802,"internal_node_id":"0.0-2.0-2.0"},{"group":"hexagon_bi","room_assignment":["blue","purple","green","grey","red","yellow"],"door_color_assignment":["black","white"],"door_generator_assignment":[0,1],"goal":3,"start":0,"action_noise":0,"location_history":"[0,5,4,5,0,1,2,3]","action_history":"[0,1,1,0,1,0,1]","door_history":"[0,1,1,0,1,0,1]","location_rts":"[749,404,292,860,745,694,836]","trial_type":"two-door-navigation","trial_index":5,"time_elapsed":67565,"internal_node_id":"0.0-2.0-3.0"},{"group":"hexagon_bi","room_assignment":["blue","purple","green","grey","red","yellow"],"door_color_assignment":["black","white"],"door_generator_assignment":[0,1],"goal":4,"start":3,"action_noise":0,"location_history":"[3,2,3,2,1,0,1,0,5,4]","action_history":"[1,1,1,0,1,1,1,0,1]","door_history":"[1,1,1,0,1,1,1,0,1]","location_rts":"[382,310,589,83,453,675,549,483,635]","trial_type":"two-door-navigation","trial_index":6,"time_elapsed":85029,"internal_node_id":"0.0-2.0-4.0"},{"group":"hexagon_bi","room_assignment":["blue","purple","green","grey","red","yellow"],"door_color_assignment":["black","white"],"door_generator_assignment":[0,1],"goal":2,"start":4,"action_noise":0,"location_history":"[4,3,4,5,0,1,2]","action_history":"[0,0,1,0,1,0]","door_history":"[0,0,1,0,1,0]","location_rts":"[1723,235,342,514,536,604]","trial_type":"two-door-navigation","trial_index":7,"time_elapsed":99249,"internal_node_id":"0.0-2.0-5.0"},{"group":"hexagon_bi","room_assignment":["blue","purple","green","grey","red","yellow"],"door_color_assignment":["black","white"],"door_generator_assignment":[0,1],"goal":1,"start":2,"action_noise":0,"location_history":"[2,3,4,3,2,1]","action_history":"[1,0,0,1,0]","door_history":"[1,0,0,1,0]","location_rts":"[4144,9609,2682,5129,10577]","trial_type":"two-door-navigation","trial_index":8,"time_elapsed":140683,"internal_node_id":"0.0-2.0-6.0"},{"group":"hexagon_bi","room_assignment":["blue","purple","green","grey","red","yellow"],"door_color_assignment":["black","white"],"door_generator_assignment":[0,1],"goal":5,"start":1,"action_noise":0,"location_history":"[1,0,5]","action_history":"[1,0]","door_history":"[1,0]","location_rts":"[998,3210]","trial_type":"two-door-navigation","trial_index":9,"time_elapsed":150946,"internal_node_id":"0.0-2.0-7.0"},{"group":"hexagon_bi","room_assignment":["blue","purple","green","grey","red","yellow"],"door_color_assignment":["black","white"],"door_generator_assignment":[0,1],"goal":4,"start":5,"action_noise":0,"location_history":"[5,4]","action_history":"[1]","door_history":"[1]","location_rts":"[3206]","trial_type":"two-door-navigation","trial_index":10,"time_elapsed":159193,"internal_node_id":"0.0-2.0-8.0"},{"group":"hexagon_bi","room_assignment":["blue","purple","green","grey","red","yellow"],"door_color_assignment":["black","white"],"door_generator_assignment":[0,1],"goal":2,"start":4,"action_noise":0,"location_history":"[4,5,0,5,4,3,4,3,2]","action_history":"[1,0,0,1,0,0,0,1]","door_history":"[1,0,0,1,0,0,0,1]","location_rts":"[2567,4141,15384,3809,3508,9120,5522,997]","trial_type":"two-door-navigation","trial_index":11,"time_elapsed":216456,"internal_node_id":"0.0-2.0-9.0"},{"group":"hexagon_bi","room_assignment":["blue","purple","green","grey","red","yellow"],"door_color_assignment":["black","white"],"door_generator_assignment":[0,1],"goal":0,"start":2,"action_noise":0,"location_history":"[2,3,2,1,2,1,0]","action_history":"[1,1,0,0,0,1]","door_history":"[1,1,0,0,0,1]","location_rts":"[33538,3719,272,5700,2191,251]","trial_type":"two-door-navigation","trial_index":12,"time_elapsed":272320,"internal_node_id":"0.0-2.0-10.0"},{"group":"hexagon_bi","room_assignment":["blue","purple","green","grey","red","yellow"],"door_color_assignment":["black","white"],"door_generator_assignment":[0,1],"goal":1,"start":0,"action_noise":0,"location_history":"[0,1]","action_history":"[1]","door_history":"[1]","location_rts":"[472]","trial_type":"two-door-navigation","trial_index":13,"time_elapsed":277820,"internal_node_id":"0.0-2.0-11.0"},{"group":"hexagon_bi","room_assignment":["blue","purple","green","grey","red","yellow"],"door_color_assignment":["black","white"],"door_generator_assignment":[0,1],"goal":3,"start":1,"action_noise":0,"location_history":"[1,2,3]","action_history":"[0,1]","door_history":"[0,1]","location_rts":"[6227,77]","trial_type":"two-door-navigation","trial_index":14,"time_elapsed":290194,"internal_node_id":"0.0-2.0-12.0"},{"group":"hexagon_bi","room_assignment":["blue","purple","green","grey","red","yellow"],"door_color_assignment":["black","white"],"door_generator_assignment":[0,1],"goal":5,"start":3,"action_noise":0,"location_history":"[3,4,5]","action_history":"[0,1]","door_history":"[0,1]","location_rts":"[6774,257]","trial_type":"two-door-navigation","trial_index":15,"time_elapsed":303273,"internal_node_id":"0.0-2.0-13.0"},{"group":"hexagon_bi","room_assignment":["blue","purple","green","grey","red","yellow"],"door_color_assignment":["black","white"],"door_generator_assignment":[0,1],"goal":4,"start":5,"action_noise":0,"location_history":"[5,4]","action_history":"[1]","door_history":"[1]","location_rts":"[4109]","trial_type":"two-door-navigation","trial_index":16,"time_elapsed":312405,"internal_node_id":"0.0-2.0-14.0"},{"group":"hexagon_bi","room_assignment":["blue","purple","green","grey","red","yellow"],"door_color_assignment":["black","white"],"door_generator_assignment":[0,1],"goal":0,"start":4,"action_noise":0,"location_history":"[4,5,0]","action_history":"[1,0]","door_history":"[1,0]","location_rts":"[8034,12]","trial_type":"two-door-navigation","trial_index":17,"time_elapsed":326527,"internal_node_id":"0.0-2.0-15.0"},{"group":"hexagon_bi","room_assignment":["blue","purple","green","grey","red","yellow"],"door_color_assignment":["black","white"],"door_generator_assignment":[0,1],"goal":3,"start":0,"action_noise":0,"location_history":"[0,1,2,3]","action_history":"[1,0,1]","door_history":"[1,0,1]","location_rts":"[14083,311,485]","trial_type":"two-door-navigation","trial_index":18,"time_elapsed":348546,"internal_node_id":"0.0-2.0-16.0"},{"group":"hexagon_bi","room_assignment":["blue","purple","green","grey","red","yellow"],"door_color_assignment":["black","white"],"door_generator_assignment":[0,1],"goal":1,"start":3,"action_noise":0,"location_history":"[3,2,1]","action_history":"[1,0]","door_history":"[1,0]","location_rts":"[16459,48]","trial_type":"two-door-navigation","trial_index":19,"time_elapsed":371096,"internal_node_id":"0.0-2.0-17.0"},{"group":"hexagon_bi","room_assignment":["blue","purple","green","grey","red","yellow"],"door_color_assignment":["black","white"],"door_generator_assignment":[0,1],"goal":5,"start":1,"action_noise":0,"location_history":"[1,2,3,2,1,2,3,4,5]","action_history":"[0,1,1,0,0,1,0,1]","door_history":"[0,1,1,0,0,1,0,1]","location_rts":"[4759,653,297,582,769,492,156,866]","trial_type":"two-door-navigation","trial_index":20,"time_elapsed":391917,"internal_node_id":"0.0-2.0-18.0"},{"group":"hexagon_bi","room_assignment":["blue","purple","green","grey","red","yellow"],"door_color_assignment":["black","white"],"door_generator_assignment":[0,1],"goal":2,"start":5,"action_noise":0,"location_history":"[5,4,5,0,1,2]","action_history":"[1,1,0,1,0]","door_history":"[1,1,0,1,0]","location_rts":"[35729,413,275,476,731]","trial_type":"two-door-navigation","trial_index":21,"time_elapsed":438644,"internal_node_id":"0.0-2.0-19.0"},{"group":"hexagon_bi","room_assignment":["blue","purple","green","grey","red","yellow"],"door_color_assignment":["black","white"],"door_generator_assignment":[0,1],"goal":4,"start":2,"action_noise":0,"location_history":"[2,3,4]","action_history":"[1,0]","door_history":"[1,0]","location_rts":"[268,109]","trial_type":"two-door-navigation","trial_index":22,"time_elapsed":445076,"internal_node_id":"0.0-2.0-20.0"},{"group":"hexagon_bi","room_assignment":["blue","purple","green","grey","red","yellow"],"door_color_assignment":["black","white"],"door_generator_assignment":[0,1],"goal":1,"start":4,"action_noise":0,"location_history":"[4,3,2,1]","action_history":"[0,1,0]","door_history":"[0,1,0]","location_rts":"[235,50,418]","trial_type":"two-door-navigation","trial_index":23,"time_elapsed":452847,"internal_node_id":"0.0-2.0-21.0"},{"group":"hexagon_bi","room_assignment":["blue","purple","green","grey","red","yellow"],"door_color_assignment":["black","white"],"door_generator_assignment":[0,1],"goal":3,"start":1,"action_noise":0,"location_history":"[1,0,5,4,3]","action_history":"[1,0,1,0]","door_history":"[1,0,1,0]","location_rts":"[473,372,435,709]","trial_type":"two-door-navigation","trial_index":24,"time_elapsed":463011,"internal_node_id":"0.0-2.0-22.0"},{"group":"hexagon_bi","room_assignment":["blue","purple","green","grey","red","yellow"],"door_color_assignment":["black","white"],"door_generator_assignment":[0,1],"goal":2,"start":3,"action_noise":0,"location_history":"[3,4,5,0,1,0,5,4,3,2]","action_history":"[0,1,0,1,1,0,1,0,1]","door_history":"[0,1,0,1,1,0,1,0,1]","location_rts":"[355,409,722,640,557,712,395,500,743]","trial_type":"two-door-navigation","trial_index":25,"time_elapsed":481248,"internal_node_id":"0.0-2.0-23.0"},{"group":"hexagon_bi","room_assignment":["blue","purple","green","grey","red","yellow"],"door_color_assignment":["black","white"],"door_generator_assignment":[0,1],"goal":0,"start":2,"action_noise":0,"location_history":"[2,3,4,5,4,3,2,1,0]","action_history":"[1,0,1,1,0,1,0,1]","door_history":"[1,0,1,1,0,1,0,1]","location_rts":"[256,4,44,554,258,314,324,364]","trial_type":"two-door-navigation","trial_index":26,"time_elapsed":495583,"internal_node_id":"0.0-2.0-24.0"},{"group":"hexagon_bi","room_assignment":["blue","purple","green","grey","red","yellow"],"door_color_assignment":["black","white"],"door_generator_assignment":[0,1],"goal":5,"start":0,"action_noise":0,"location_history":"[0,1,2,3,4,5]","action_history":"[1,0,1,0,1]","door_history":"[1,0,1,0,1]","location_rts":"[272,322,133,308,1041]","trial_type":"two-door-navigation","trial_index":27,"time_elapsed":506804,"internal_node_id":"0.0-2.0-25.0"},{"group":"hexagon_bi","room_assignment":["blue","purple","green","grey","red","yellow"],"door_color_assignment":["black","white"],"door_generator_assignment":[0,1],"goal":2,"start":5,"action_noise":0,"location_history":"[5,0,5,4,3,2]","action_history":"[0,0,1,0,1]","door_history":"[0,0,1,0,1]","location_rts":"[237,1180,141,371,1788]","trial_type":"two-door-navigation","trial_index":28,"time_elapsed":519651,"internal_node_id":"0.0-2.0-26.0"},{"group":"hexagon_bi","room_assignment":["blue","purple","green","grey","red","yellow"],"door_color_assignment":["black","white"],"door_generator_assignment":[0,1],"goal":3,"start":2,"action_noise":0,"location_history":"[2,3]","action_history":"[1]","door_history":"[1]","location_rts":"[398]","trial_type":"two-door-navigation","trial_index":29,"time_elapsed":525123,"internal_node_id":"0.0-2.0-27.0"},{"group":"hexagon_bi","room_assignment":["blue","purple","green","grey","red","yellow"],"door_color_assignment":["black","white"],"door_generator_assignment":[0,1],"goal":0,"start":3,"action_noise":0,"location_history":"[3,4,5,0]","action_history":"[0,1,0]","door_history":"[0,1,0]","location_rts":"[323,152,213]","trial_type":"two-door-navigation","trial_index":30,"time_elapsed":533871,"internal_node_id":"0.0-2.0-28.0"},{"group":"hexagon_bi","room_assignment":["blue","purple","green","grey","red","yellow"],"door_color_assignment":["black","white"],"door_generator_assignment":[0,1],"goal":1,"start":0,"action_noise":0,"location_history":"[0,5,0,1]","action_history":"[0,0,1]","door_history":"[0,0,1]","location_rts":"[11345,261,436]","trial_type":"two-door-navigation","trial_index":31,"time_elapsed":553978,"internal_node_id":"0.0-2.0-29.0"},{"group":"hexagon_bi","room_assignment":["blue","purple","green","grey","red","yellow"],"door_color_assignment":["black","white"],"door_generator_assignment":[0,1],"goal":4,"start":1,"action_noise":0,"location_history":"[1,0,5,0,1,2,3,2,1,0,5,4]","action_history":"[1,0,0,1,0,1,1,0,1,0,1]","door_history":"[1,0,0,1,0,1,1,0,1,0,1]","location_rts":"[357,370,282,215,107,372,150,304,378,372,626]","trial_type":"two-door-navigation","trial_index":32,"time_elapsed":572784,"internal_node_id":"0.0-2.0-30.0"},{"group":"hexagon_bi","room_assignment":["blue","purple","green","grey","red","yellow"],"door_color_assignment":["black","white"],"door_generator_assignment":[0,1],"goal":5,"start":4,"action_noise":0,"location_history":"[4,5]","action_history":"[1]","door_history":"[1]","location_rts":"[344]","trial_type":"two-door-navigation","trial_index":33,"time_elapsed":578151,"internal_node_id":"0.0-2.0-31.0"},{"group":"hexagon_bi","room_assignment":["blue","purple","green","grey","red","yellow"],"door_color_assignment":["black","white"],"door_generator_assignment":[0,1],"goal":0,"start":5,"action_noise":0,"location_history":"[5,4,3,2,1,0]","action_history":"[1,0,1,0,1]","door_history":"[1,0,1,0,1]","location_rts":"[1216,161,1352,892,1048]","trial_type":"two-door-navigation","trial_index":34,"time_elapsed":596056,"internal_node_id":"0.0-2.0-32.0"},{"group":"hexagon_bi","room_assignment":["blue","purple","green","grey","red","yellow"],"door_color_assignment":["black","white"],"door_generator_assignment":[0,1],"goal":3,"start":0,"action_noise":0,"location_history":"[0,1,2,3]","action_history":"[1,0,1]","door_history":"[1,0,1]","location_rts":"[1059,619,366]","trial_type":"two-door-navigation","trial_index":35,"time_elapsed":605175,"internal_node_id":"0.0-2.0-33.0"},{"group":"hexagon_bi","room_assignment":["blue","purple","green","grey","red","yellow"],"door_color_assignment":["black","white"],"door_generator_assignment":[0,1],"goal":1,"start":3,"action_noise":0,"location_history":"[3,4,5,0,1]","action_history":"[0,1,0,1]","door_history":"[0,1,0,1]","location_rts":"[1326,691,172,691]","trial_type":"two-door-navigation","trial_index":36,"time_elapsed":616154,"internal_node_id":"0.0-2.0-34.0"},{"group":"hexagon_bi","room_assignment":["blue","purple","green","grey","red","yellow"],"door_color_assignment":["black","white"],"door_generator_assignment":[0,1],"goal":2,"start":1,"action_noise":0,"location_history":"[1,0,5,4,3,2]","action_history":"[1,0,1,0,1]","door_history":"[1,0,1,0,1]","location_rts":"[412,7,293,268,362]","trial_type":"two-door-navigation","trial_index":37,"time_elapsed":626684,"internal_node_id":"0.0-2.0-35.0"},{"group":"hexagon_bi","room_assignment":["blue","purple","green","grey","red","yellow"],"door_color_assignment":["black","white"],"door_generator_assignment":[0,1],"goal":4,"start":2,"action_noise":0,"location_history":"[2,3,4]","action_history":"[1,0]","door_history":"[1,0]","location_rts":"[384012,436]","trial_type":"two-door-navigation","trial_index":38,"time_elapsed":1017176,"internal_node_id":"0.0-2.0-36.0"},{"group":"hexagon_bi","room_assignment":["blue","purple","green","grey","red","yellow"],"door_color_assignment":["black","white"],"door_generator_assignment":[0,1],"goal":5,"start":4,"action_noise":0,"location_history":"[4,3,2,3,2,1,0,1,0,5]","action_history":"[0,1,1,1,0,1,1,1,0]","door_history":"[0,1,1,1,0,1,1,1,0]","location_rts":"[329,62,623,414,51,477,878,264,10]","trial_type":"two-door-navigation","trial_index":39,"time_elapsed":1033522,"internal_node_id":"0.0-2.0-37.0"},{"group":"hexagon_bi","room_assignment":["blue","purple","green","grey","red","yellow"],"door_color_assignment":["black","white"],"door_generator_assignment":[0,1],"goal":1,"start":5,"action_noise":0,"location_history":"[5,4,3,4,5,0,1]","action_history":"[1,0,0,1,0,1]","door_history":"[1,0,0,1,0,1]","location_rts":"[572,383,1011,397,421,698]","trial_type":"two-door-navigation","trial_index":40,"time_elapsed":1047877,"internal_node_id":"0.0-2.0-38.0"},{"group":"hexagon_bi","room_assignment":["blue","purple","green","grey","red","yellow"],"door_color_assignment":["black","white"],"door_generator_assignment":[0,1],"goal":4,"start":1,"action_noise":0,"location_history":"[1,0,5,4]","action_history":"[1,0,1]","door_history":"[1,0,1]","location_rts":"[32315,469,885]","trial_type":"two-door-navigation","trial_index":41,"time_elapsed":1089609,"internal_node_id":"0.0-2.0-39.0"},{"group":"hexagon_bi","room_assignment":["blue","purple","green","grey","red","yellow"],"door_color_assignment":["black","white"],"door_generator_assignment":[0,1],"goal":3,"start":4,"action_noise":0,"location_history":"[4,5,0,1,2,3]","action_history":"[1,0,1,0,1]","door_history":"[1,0,1,0,1]","location_rts":"[654,652,49,875,427]","trial_type":"two-door-navigation","trial_index":42,"time_elapsed":1101377,"internal_node_id":"0.0-2.0-40.0"},{"group":"hexagon_bi","room_assignment":["blue","purple","green","grey","red","yellow"],"door_color_assignment":["black","white"],"door_generator_assignment":[0,1],"goal":2,"start":3,"action_noise":0,"location_history":"[3,2]","action_history":"[1]","door_history":"[1]","location_rts":"[358]","trial_type":"two-door-navigation","trial_index":43,"time_elapsed":1106775,"internal_node_id":"0.0-2.0-41.0"},{"group":"hexagon_bi","room_assignment":["blue","purple","green","grey","red","yellow"],"door_color_assignment":["black","white"],"door_generator_assignment":[0,1],"goal":0,"start":2,"action_noise":0,"location_history":"[2,1,2,3,4,5,0]","action_history":"[0,0,1,0,1,0]","door_history":"[0,0,1,0,1,0]","location_rts":"[269,117,122,95,225,63]","trial_type":"two-door-navigation","trial_index":44,"time_elapsed":1117817,"internal_node_id":"0.0-2.0-42.0"},{"group":"hexagon_bi","room_assignment":["blue","purple","green","grey","red","yellow"],"door_color_assignment":["black","white"],"door_generator_assignment":[0,1],"goal":5,"start":0,"action_noise":0,"location_history":"[0,5]","action_history":"[0]","door_history":"[0]","location_rts":"[286]","trial_type":"two-door-navigation","trial_index":45,"time_elapsed":1123124,"internal_node_id":"0.0-2.0-43.0"},{"group":"hexagon_bi","room_assignment":["blue","purple","green","grey","red","yellow"],"door_color_assignment":["black","white"],"door_generator_assignment":[0,1],"goal":0,"start":5,"action_noise":0,"location_history":"[5,0]","action_history":"[0]","door_history":"[0]","location_rts":"[1587]","trial_type":"two-door-navigation","trial_index":46,"time_elapsed":1129766,"internal_node_id":"0.0-2.0-44.0"},{"group":"hexagon_bi","room_assignment":["blue","purple","green","grey","red","yellow"],"door_color_assignment":["black","white"],"door_generator_assignment":[0,1],"goal":2,"start":0,"action_noise":0,"location_history":"[0,1,2]","action_history":"[1,0]","door_history":"[1,0]","location_rts":"[1979,476]","trial_type":"two-door-navigation","trial_index":47,"time_elapsed":1138264,"internal_node_id":"0.0-2.0-45.0"},{"group":"hexagon_bi","room_assignment":["blue","purple","green","grey","red","yellow"],"door_color_assignment":["black","white"],"door_generator_assignment":[0,1],"goal":4,"start":2,"action_noise":0,"location_history":"[2,3,4]","action_history":"[1,0]","door_history":"[1,0]","location_rts":"[1313,1104]","trial_type":"two-door-navigation","trial_index":48,"time_elapsed":1146737,"internal_node_id":"0.0-2.0-46.0"},{"group":"hexagon_bi","room_assignment":["blue","purple","green","grey","red","yellow"],"door_color_assignment":["black","white"],"door_generator_assignment":[0,1],"goal":1,"start":4,"action_noise":0,"location_history":"[4,3,2,1]","action_history":"[0,1,0]","door_history":"[0,1,0]","location_rts":"[1537,424,433]","trial_type":"two-door-navigation","trial_index":49,"time_elapsed":1156234,"internal_node_id":"0.0-2.0-47.0"},{"group":"hexagon_bi","room_assignment":["blue","purple","green","grey","red","yellow"],"door_color_assignment":["black","white"],"door_generator_assignment":[0,1],"goal":5,"start":1,"action_noise":0,"location_history":"[1,0,5]","action_history":"[1,0]","door_history":"[1,0]","location_rts":"[1541,1024]","trial_type":"two-door-navigation","trial_index":50,"time_elapsed":1164871,"internal_node_id":"0.0-2.0-48.0"},{"group":"hexagon_bi","room_assignment":["blue","purple","green","grey","red","yellow"],"door_color_assignment":["black","white"],"door_generator_assignment":[0,1],"goal":3,"start":5,"action_noise":0,"location_history":"[5,4,3]","action_history":"[1,0]","door_history":"[1,0]","location_rts":"[1144,99]","trial_type":"two-door-navigation","trial_index":51,"time_elapsed":1172194,"internal_node_id":"0.0-2.0-49.0"},{"view_history":"[{\"page_index\":0,\"viewing_time\":1078}]","rt":1078,"trial_type":"instructions","trial_index":52,"time_elapsed":1174274,"internal_node_id":"0.0-3.0"},{"view_history":"[{\"page_index\":0,\"viewing_time\":1272},{\"page_index\":1,\"viewing_time\":38039}]","rt":39312,"trial_type":"instructions","trial_index":53,"time_elapsed":1214586,"internal_node_id":"0.0-4.0"},{"group":"hexagon_bi","fractal_assignment":["../images/blu_wht.png","../images/gry_blk.png","../images/pnk_blu.png","../images/org_blu.png","../images/ylw_slt.png","../images/cyn_red.png"],"mutagen_generator_assignment":[1,0],"goal":3,"start":5,"action_noise":0,"location_history":"[5,4,3]","action_history":"[1,0]","mutagen_history":"[0,1]","location_rts":"[2022,191]","trial_type":"fractal-mutation","trial_index":54,"time_elapsed":1222889,"internal_node_id":"0.0-5.0-0.0"},{"group":"hexagon_bi","fractal_assignment":["../images/blu_wht.png","../images/gry_blk.png","../images/pnk_blu.png","../images/org_blu.png","../images/ylw_slt.png","../images/cyn_red.png"],"mutagen_generator_assignment":[1,0],"goal":1,"start":3,"action_noise":0,"location_history":"[3,4,3,4,5,0,1]","action_history":"[0,0,0,1,0,1]","mutagen_history":"[1,1,1,0,1,0]","location_rts":"[266,207,201,198,220,215]","trial_type":"fractal-mutation","trial_index":55,"time_elapsed":1234425,"internal_node_id":"0.0-5.0-1.0"},{"group":"hexagon_bi","fractal_assignment":["../images/blu_wht.png","../images/gry_blk.png","../images/pnk_blu.png","../images/org_blu.png","../images/ylw_slt.png","../images/cyn_red.png"],"mutagen_generator_assignment":[1,0],"goal":0,"start":1,"action_noise":0,"location_history":"[1,0]","action_history":"[1]","mutagen_history":"[0]","location_rts":"[269]","trial_type":"fractal-mutation","trial_index":56,"time_elapsed":1239722,"internal_node_id":"0.0-5.0-2.0"},{"group":"hexagon_bi","fractal_assignment":["../images/blu_wht.png","../images/gry_blk.png","../images/pnk_blu.png","../images/org_blu.png","../images/ylw_slt.png","../images/cyn_red.png"],"mutagen_generator_assignment":[1,0],"goal":3,"start":0,"action_noise":0,"location_history":"[0,1,2,3]","action_history":"[1,0,1]","mutagen_history":"[0,1,0]","location_rts":"[278,225,216]","trial_type":"fractal-mutation","trial_index":57,"time_elapsed":1247560,"internal_node_id":"0.0-5.0-3.0"},{"group":"hexagon_bi","fractal_assignment":["../images/blu_wht.png","../images/gry_blk.png","../images/pnk_blu.png","../images/org_blu.png","../images/ylw_slt.png","../images/cyn_red.png"],"mutagen_generator_assignment":[1,0],"goal":4,"start":3,"action_noise":0,"location_history":"[3,4]","action_history":"[0]","mutagen_history":"[1]","location_rts":"[239]","trial_type":"fractal-mutation","trial_index":58,"time_elapsed":1252835,"internal_node_id":"0.0-5.0-4.0"},{"group":"hexagon_bi","fractal_assignment":["../images/blu_wht.png","../images/gry_blk.png","../images/pnk_blu.png","../images/org_blu.png","../images/ylw_slt.png","../images/cyn_red.png"],"mutagen_generator_assignment":[1,0],"goal":2,"start":4,"action_noise":0,"location_history":"[4,5,0,5,4,3,2]","action_history":"[1,0,0,1,0,1]","mutagen_history":"[0,1,1,0,1,0]","location_rts":"[267,185,206,208,223,200]","trial_type":"fractal-mutation","trial_index":59,"time_elapsed":1264401,"internal_node_id":"0.0-5.0-5.0"},{"group":"hexagon_bi","fractal_assignment":["../images/blu_wht.png","../images/gry_blk.png","../images/pnk_blu.png","../images/org_blu.png","../images/ylw_slt.png","../images/cyn_red.png"],"mutagen_generator_assignment":[1,0],"goal":1,"start":2,"action_noise":0,"location_history":"[2,1]","action_history":"[0]","mutagen_history":"[1]","location_rts":"[247]","trial_type":"fractal-mutation","trial_index":60,"time_elapsed":1269708,"internal_node_id":"0.0-5.0-6.0"},{"group":"hexagon_bi","fractal_assignment":["../images/blu_wht.png","../images/gry_blk.png","../images/pnk_blu.png","../images/org_blu.png","../images/ylw_slt.png","../images/cyn_red.png"],"mutagen_generator_assignment":[1,0],"goal":5,"start":1,"action_noise":0,"location_history":"[1,2,1,2,1,2,3,4,5]","action_history":"[0,0,0,0,0,1,0,1]","mutagen_history":"[1,1,1,1,1,0,1,0]","location_rts":"[245,222,214,221,204,224,225,191]","trial_type":"fractal-mutation","trial_index":61,"time_elapsed":1283716,"internal_node_id":"0.0-5.0-7.0"},{"group":"hexagon_bi","fractal_assignment":["../images/blu_wht.png","../images/gry_blk.png","../images/pnk_blu.png","../images/org_blu.png","../images/ylw_slt.png","../images/cyn_red.png"],"mutagen_generator_assignment":[1,0],"goal":4,"start":5,"action_noise":0,"location_history":"[5,4]","action_history":"[1]","mutagen_history":"[0]","location_rts":"[275]","trial_type":"fractal-mutation","trial_index":62,"time_elapsed":1289016,"internal_node_id":"0.0-5.0-8.0"},{"group":"hexagon_bi","fractal_assignment":["../images/blu_wht.png","../images/gry_blk.png","../images/pnk_blu.png","../images/org_blu.png","../images/ylw_slt.png","../images/cyn_red.png"],"mutagen_generator_assignment":[1,0],"goal":2,"start":4,"action_noise":0,"location_history":"[4,3,2]","action_history":"[0,1]","mutagen_history":"[1,0]","location_rts":"[281,212]","trial_type":"fractal-mutation","trial_index":63,"time_elapsed":1295571,"internal_node_id":"0.0-5.0-9.0"},{"group":"hexagon_bi","fractal_assignment":["../images/blu_wht.png","../images/gry_blk.png","../images/pnk_blu.png","../images/org_blu.png","../images/ylw_slt.png","../images/cyn_red.png"],"mutagen_generator_assignment":[1,0],"goal":0,"start":2,"action_noise":0,"location_history":"[2,1,0]","action_history":"[0,1]","mutagen_history":"[1,0]","location_rts":"[274,209]","trial_type":"fractal-mutation","trial_index":64,"time_elapsed":1302162,"internal_node_id":"0.0-5.0-10.0"},{"group":"hexagon_bi","fractal_assignment":["../images/blu_wht.png","../images/gry_blk.png","../images/pnk_blu.png","../images/org_blu.png","../images/ylw_slt.png","../images/cyn_red.png"],"mutagen_generator_assignment":[1,0],"goal":1,"start":0,"action_noise":0,"location_history":"[0,1]","action_history":"[1]","mutagen_history":"[0]","location_rts":"[238]","trial_type":"fractal-mutation","trial_index":65,"time_elapsed":1307452,"internal_node_id":"0.0-5.0-11.0"},{"group":"hexagon_bi","fractal_assignment":["../images/blu_wht.png","../images/gry_blk.png","../images/pnk_blu.png","../images/org_blu.png","../images/ylw_slt.png","../images/cyn_red.png"],"mutagen_generator_assignment":[1,0],"goal":3,"start":1,"action_noise":0,"location_history":"[1,2,3]","action_history":"[0,1]","mutagen_history":"[1,0]","location_rts":"[251,221]","trial_type":"fractal-mutation","trial_index":66,"time_elapsed":1313981,"internal_node_id":"0.0-5.0-12.0"},{"group":"hexagon_bi","fractal_assignment":["../images/blu_wht.png","../images/gry_blk.png","../images/pnk_blu.png","../images/org_blu.png","../images/ylw_slt.png","../images/cyn_red.png"],"mutagen_generator_assignment":[1,0],"goal":5,"start":3,"action_noise":0,"location_history":"[3,4,5]","action_history":"[0,1]","mutagen_history":"[1,0]","location_rts":"[273,207]","trial_type":"fractal-mutation","trial_index":67,"time_elapsed":1320528,"internal_node_id":"0.0-5.0-13.0"},{"group":"hexagon_bi","fractal_assignment":["../images/blu_wht.png","../images/gry_blk.png","../images/pnk_blu.png","../images/org_blu.png","../images/ylw_slt.png","../images/cyn_red.png"],"mutagen_generator_assignment":[1,0],"goal":4,"start":5,"action_noise":0,"location_history":"[5,4]","action_history":"[1]","mutagen_history":"[0]","location_rts":"[277]","trial_type":"fractal-mutation","trial_index":68,"time_elapsed":1325836,"internal_node_id":"0.0-5.0-14.0"},{"group":"hexagon_bi","fractal_assignment":["../images/blu_wht.png","../images/gry_blk.png","../images/pnk_blu.png","../images/org_blu.png","../images/ylw_slt.png","../images/cyn_red.png"],"mutagen_generator_assignment":[1,0],"goal":0,"start":4,"action_noise":0,"location_history":"[4,5,0]","action_history":"[1,0]","mutagen_history":"[0,1]","location_rts":"[274,225]","trial_type":"fractal-mutation","trial_index":69,"time_elapsed":1332387,"internal_node_id":"0.0-5.0-15.0"},{"group":"hexagon_bi","fractal_assignment":["../images/blu_wht.png","../images/gry_blk.png","../images/pnk_blu.png","../images/org_blu.png","../images/ylw_slt.png","../images/cyn_red.png"],"mutagen_generator_assignment":[1,0],"goal":3,"start":0,"action_noise":0,"location_history":"[0,5,0,1,0,5,4,5,4,3]","action_history":"[0,0,1,1,0,1,1,1,0]","mutagen_history":"[1,1,0,0,1,0,0,0,1]","location_rts":"[277,216,222,228,201,185,218,226,224]","trial_type":"fractal-mutation","trial_index":70,"time_elapsed":1347703,"internal_node_id":"0.0-5.0-16.0"},{"group":"hexagon_bi","fractal_assignment":["../images/blu_wht.png","../images/gry_blk.png","../images/pnk_blu.png","../images/org_blu.png","../images/ylw_slt.png","../images/cyn_red.png"],"mutagen_generator_assignment":[1,0],"goal":1,"start":3,"action_noise":0,"location_history":"[3,2,3,4,5,0,1]","action_history":"[1,1,0,1,0,1]","mutagen_history":"[0,0,1,0,1,0]","location_rts":"[250,224,228,187,222,219]","trial_type":"fractal-mutation","trial_index":71,"time_elapsed":1359238,"internal_node_id":"0.0-5.0-17.0"},{"group":"hexagon_bi","fractal_assignment":["../images/blu_wht.png","../images/gry_blk.png","../images/pnk_blu.png","../images/org_blu.png","../images/ylw_slt.png","../images/cyn_red.png"],"mutagen_generator_assignment":[1,0],"goal":5,"start":1,"action_noise":0,"location_history":"[1,2,1,0,1,0,5]","action_history":"[0,0,1,1,1,0]","mutagen_history":"[1,1,0,0,0,1]","location_rts":"[253,191,203,189,227,224]","trial_type":"fractal-mutation","trial_index":72,"time_elapsed":1370773,"internal_node_id":"0.0-5.0-18.0"},{"group":"hexagon_bi","fractal_assignment":["../images/blu_wht.png","../images/gry_blk.png","../images/pnk_blu.png","../images/org_blu.png","../images/ylw_slt.png","../images/cyn_red.png"],"mutagen_generator_assignment":[1,0],"goal":2,"start":5,"action_noise":0,"location_history":"[5,0,1,0,5,4,5,0,1,2]","action_history":"[0,1,1,0,1,1,0,1,0]","mutagen_history":"[1,0,0,1,0,0,1,0,1]","location_rts":"[272,212,225,231,210,222,225,216,215]","trial_type":"fractal-mutation","trial_index":73,"time_elapsed":1386052,"internal_node_id":"0.0-5.0-19.0"},{"group":"hexagon_bi","fractal_assignment":["../images/blu_wht.png","../images/gry_blk.png","../images/pnk_blu.png","../images/org_blu.png","../images/ylw_slt.png","../images/cyn_red.png"],"mutagen_generator_assignment":[1,0],"goal":4,"start":2,"action_noise":0,"location_history":"[2,3,2,3,2,3,4]","action_history":"[1,1,1,1,1,0]","mutagen_history":"[0,0,0,0,0,1]","location_rts":"[275,221,229,210,205,205]","trial_type":"fractal-mutation","trial_index":74,"time_elapsed":1397670,"internal_node_id":"0.0-5.0-20.0"},{"group":"hexagon_bi","fractal_assignment":["../images/blu_wht.png","../images/gry_blk.png","../images/pnk_blu.png","../images/org_blu.png","../images/ylw_slt.png","../images/cyn_red.png"],"mutagen_generator_assignment":[1,0],"goal":1,"start":4,"action_noise":0,"location_history":"[4,5,4,5,4,3,4,3,4,5,4,5,0,1]","action_history":"[1,1,1,1,0,0,0,0,1,1,1,0,1]","mutagen_history":"[0,0,0,0,1,1,1,1,0,0,0,1,0]","location_rts":"[203,212,199,203,197,200,223,214,220,228,220,228,216]","trial_type":"fractal-mutation","trial_index":75,"time_elapsed":1417881,"internal_node_id":"0.0-5.0-21.0"},{"group":"hexagon_bi","fractal_assignment":["../images/blu_wht.png","../images/gry_blk.png","../images/pnk_blu.png","../images/org_blu.png","../images/ylw_slt.png","../images/cyn_red.png"],"mutagen_generator_assignment":[1,0],"goal":3,"start":1,"action_noise":0,"location_history":"[1,2,3]","action_history":"[0,1]","mutagen_history":"[1,0]","location_rts":"[270,228]","trial_type":"fractal-mutation","trial_index":76,"time_elapsed":1424459,"internal_node_id":"0.0-5.0-22.0"},{"group":"hexagon_bi","fractal_assignment":["../images/blu_wht.png","../images/gry_blk.png","../images/pnk_blu.png","../images/org_blu.png","../images/ylw_slt.png","../images/cyn_red.png"],"mutagen_generator_assignment":[1,0],"goal":2,"start":3,"action_noise":0,"location_history":"[3,4,3,4,3,2]","action_history":"[0,0,0,0,1]","mutagen_history":"[1,1,1,1,0]","location_rts":"[245,222,219,224,220]","trial_type":"fractal-mutation","trial_index":77,"time_elapsed":1434740,"internal_node_id":"0.0-5.0-23.0"},{"group":"hexagon_bi","fractal_assignment":["../images/blu_wht.png","../images/gry_blk.png","../images/pnk_blu.png","../images/org_blu.png","../images/ylw_slt.png","../images/cyn_red.png"],"mutagen_generator_assignment":[1,0],"goal":0,"start":2,"action_noise":0,"location_history":"[2,1,2,3,4,3,4,5,0]","action_history":"[0,0,1,0,0,0,1,0]","mutagen_history":"[1,1,0,1,1,1,0,1]","location_rts":"[259,218,180,227,221,219,192,206]","trial_type":"fractal-mutation","trial_index":78,"time_elapsed":1448771,"internal_node_id":"0.0-5.0-24.0"},{"group":"hexagon_bi","fractal_assignment":["../images/blu_wht.png","../images/gry_blk.png","../images/pnk_blu.png","../images/org_blu.png","../images/ylw_slt.png","../images/cyn_red.png"],"mutagen_generator_assignment":[1,0],"goal":5,"start":0,"action_noise":0,"location_history":"[0,1,2,3,2,1,2,1,0,5]","action_history":"[1,0,1,1,0,0,0,1,0]","mutagen_history":"[0,1,0,0,1,1,1,0,1]","location_rts":"[270,207,225,221,226,216,213,227,216]","trial_type":"fractal-mutation","trial_index":79,"time_elapsed":1464061,"internal_node_id":"0.0-5.0-25.0"},{"group":"hexagon_bi","fractal_assignment":["../images/blu_wht.png","../images/gry_blk.png","../images/pnk_blu.png","../images/org_blu.png","../images/ylw_slt.png","../images/cyn_red.png"],"mutagen_generator_assignment":[1,0],"goal":2,"start":5,"action_noise":0,"location_history":"[5,4,3,2]","action_history":"[1,0,1]","mutagen_history":"[0,1,0]","location_rts":"[243,239,208]","trial_type":"fractal-mutation","trial_index":80,"time_elapsed":1471859,"internal_node_id":"0.0-5.0-26.0"},{"group":"hexagon_bi","fractal_assignment":["../images/blu_wht.png","../images/gry_blk.png","../images/pnk_blu.png","../images/org_blu.png","../images/ylw_slt.png","../images/cyn_red.png"],"mutagen_generator_assignment":[1,0],"goal":3,"start":2,"action_noise":0,"location_history":"[2,3]","action_history":"[1]","mutagen_history":"[0]","location_rts":"[270]","trial_type":"fractal-mutation","trial_index":81,"time_elapsed":1477157,"internal_node_id":"0.0-5.0-27.0"},{"group":"hexagon_bi","fractal_assignment":["../images/blu_wht.png","../images/gry_blk.png","../images/pnk_blu.png","../images/org_blu.png","../images/ylw_slt.png","../images/cyn_red.png"],"mutagen_generator_assignment":[1,0],"goal":0,"start":3,"action_noise":0,"location_history":"[3,2,3,4,5,4,5,0]","action_history":"[1,1,0,1,1,1,0]","mutagen_history":"[0,0,1,0,0,0,1]","location_rts":"[36780,222,227,223,207,226,229]","trial_type":"fractal-mutation","trial_index":82,"time_elapsed":1526456,"internal_node_id":"0.0-5.0-28.0"},{"group":"hexagon_bi","fractal_assignment":["../images/blu_wht.png","../images/gry_blk.png","../images/pnk_blu.png","../images/org_blu.png","../images/ylw_slt.png","../images/cyn_red.png"],"mutagen_generator_assignment":[1,0],"goal":1,"start":0,"action_noise":0,"location_history":"[0,1]","action_history":"[1]","mutagen_history":"[0]","location_rts":"[273]","trial_type":"fractal-mutation","trial_index":83,"time_elapsed":1531761,"internal_node_id":"0.0-5.0-29.0"},{"group":"hexagon_bi","fractal_assignment":["../images/blu_wht.png","../images/gry_blk.png","../images/pnk_blu.png","../images/org_blu.png","../images/ylw_slt.png","../images/cyn_red.png"],"mutagen_generator_assignment":[1,0],"goal":4,"start":1,"action_noise":0,"location_history":"[1,2,3,2,1,2,3,2,3,4]","action_history":"[0,1,1,0,0,1,1,1,0]","mutagen_history":"[1,0,0,1,1,0,0,0,1]","location_rts":"[272,210,223,199,218,224,210,218,194]","trial_type":"fractal-mutation","trial_index":84,"time_elapsed":1547053,"internal_node_id":"0.0-5.0-30.0"},{"group":"hexagon_bi","fractal_assignment":["../images/blu_wht.png","../images/gry_blk.png","../images/pnk_blu.png","../images/org_blu.png","../images/ylw_slt.png","../images/cyn_red.png"],"mutagen_generator_assignment":[1,0],"goal":5,"start":4,"action_noise":0,"location_history":"[4,5]","action_history":"[1]","mutagen_history":"[0]","location_rts":"[267]","trial_type":"fractal-mutation","trial_index":85,"time_elapsed":1552348,"internal_node_id":"0.0-5.0-31.0"},{"group":"hexagon_bi","fractal_assignment":["../images/blu_wht.png","../images/gry_blk.png","../images/pnk_blu.png","../images/org_blu.png","../images/ylw_slt.png","../images/cyn_red.png"],"mutagen_generator_assignment":[1,0],"goal":0,"start":5,"action_noise":0,"location_history":"[5,0]","action_history":"[0]","mutagen_history":"[1]","location_rts":"[276]","trial_type":"fractal-mutation","trial_index":86,"time_elapsed":1557659,"internal_node_id":"0.0-5.0-32.0"},{"group":"hexagon_bi","fractal_assignment":["../images/blu_wht.png","../images/gry_blk.png","../images/pnk_blu.png","../images/org_blu.png","../images/ylw_slt.png","../images/cyn_red.png"],"mutagen_generator_assignment":[1,0],"goal":3,"start":0,"action_noise":0,"location_history":"[0,1,2,3]","action_history":"[1,0,1]","mutagen_history":"[0,1,0]","location_rts":"[269,206,216]","trial_type":"fractal-mutation","trial_index":87,"time_elapsed":1565487,"internal_node_id":"0.0-5.0-33.0"},{"group":"hexagon_bi","fractal_assignment":["../images/blu_wht.png","../images/gry_blk.png","../images/pnk_blu.png","../images/org_blu.png","../images/ylw_slt.png","../images/cyn_red.png"],"mutagen_generator_assignment":[1,0],"goal":1,"start":3,"action_noise":0,"location_history":"[3,2,1]","action_history":"[1,0]","mutagen_history":"[0,1]","location_rts":"[235,225]","trial_type":"fractal-mutation","trial_index":88,"time_elapsed":1572024,"internal_node_id":"0.0-5.0-34.0"},{"group":"hexagon_bi","fractal_assignment":["../images/blu_wht.png","../images/gry_blk.png","../images/pnk_blu.png","../images/org_blu.png","../images/ylw_slt.png","../images/cyn_red.png"],"mutagen_generator_assignment":[1,0],"goal":2,"start":1,"action_noise":0,"location_history":"[1,0,5,0,1,0,5,4,3,4,3,2]","action_history":"[1,0,0,1,1,0,1,0,0,0,1]","mutagen_history":"[0,1,1,0,0,1,0,1,1,1,0]","location_rts":"[256,204,210,221,219,227,218,223,219,226,223]","trial_type":"fractal-mutation","trial_index":89,"time_elapsed":1589787,"internal_node_id":"0.0-5.0-35.0"},{"group":"hexagon_bi","fractal_assignment":["../images/blu_wht.png","../images/gry_blk.png","../images/pnk_blu.png","../images/org_blu.png","../images/ylw_slt.png","../images/cyn_red.png"],"mutagen_generator_assignment":[1,0],"goal":4,"start":2,"action_noise":0,"location_history":"[2,1,2,1,2,3,2,3,2,1,2,1,2,3,4]","action_history":"[0,0,0,0,1,1,1,1,0,0,0,0,1,0]","mutagen_history":"[1,1,1,1,0,0,0,0,1,1,1,1,0,1]","location_rts":"[278,226,225,216,207,210,219,222,221,224,237,210,193,176]","trial_type":"fractal-mutation","trial_index":90,"time_elapsed":1611328,"internal_node_id":"0.0-5.0-36.0"},{"group":"hexagon_bi","fractal_assignment":["../images/blu_wht.png","../images/gry_blk.png","../images/pnk_blu.png","../images/org_blu.png","../images/ylw_slt.png","../images/cyn_red.png"],"mutagen_generator_assignment":[1,0],"goal":5,"start":4,"action_noise":0,"location_history":"[4,3,2,3,2,3,2,1,0,5]","action_history":"[0,1,1,1,1,1,0,1,0]","mutagen_history":"[1,0,0,0,0,0,1,0,1]","location_rts":"[264,195,218,223,226,229,226,221,230]","trial_type":"fractal-mutation","trial_index":91,"time_elapsed":1626643,"internal_node_id":"0.0-5.0-37.0"},{"group":"hexagon_bi","fractal_assignment":["../images/blu_wht.png","../images/gry_blk.png","../images/pnk_blu.png","../images/org_blu.png","../images/ylw_slt.png","../images/cyn_red.png"],"mutagen_generator_assignment":[1,0],"goal":1,"start":5,"action_noise":0,"location_history":"[5,0,1]","action_history":"[0,1]","mutagen_history":"[1,0]","location_rts":"[239,193]","trial_type":"fractal-mutation","trial_index":92,"time_elapsed":1633163,"internal_node_id":"0.0-5.0-38.0"},{"group":"hexagon_bi","fractal_assignment":["../images/blu_wht.png","../images/gry_blk.png","../images/pnk_blu.png","../images/org_blu.png","../images/ylw_slt.png","../images/cyn_red.png"],"mutagen_generator_assignment":[1,0],"goal":4,"start":1,"action_noise":0,"location_history":"[1,2,3,2,1,0,1,0,5,4]","action_history":"[0,1,1,0,1,1,1,0,1]","mutagen_history":"[1,0,0,1,0,0,0,1,0]","location_rts":"[268,223,226,225,222,224,206,221,221]","trial_type":"fractal-mutation","trial_index":93,"time_elapsed":1648446,"internal_node_id":"0.0-5.0-39.0"},{"group":"hexagon_bi","fractal_assignment":["../images/blu_wht.png","../images/gry_blk.png","../images/pnk_blu.png","../images/org_blu.png","../images/ylw_slt.png","../images/cyn_red.png"],"mutagen_generator_assignment":[1,0],"goal":3,"start":4,"action_noise":0,"location_history":"[4,5,4,5,0,1,2,3]","action_history":"[1,1,1,0,1,0,1]","mutagen_history":"[0,0,0,1,0,1,0]","location_rts":"[276,228,226,229,213,228,222]","trial_type":"fractal-mutation","trial_index":94,"time_elapsed":1661242,"internal_node_id":"0.0-5.0-40.0"},{"group":"hexagon_bi","fractal_assignment":["../images/blu_wht.png","../images/gry_blk.png","../images/pnk_blu.png","../images/org_blu.png","../images/ylw_slt.png","../images/cyn_red.png"],"mutagen_generator_assignment":[1,0],"goal":2,"start":3,"action_noise":0,"location_history":"[3,4,3,2]","action_history":"[0,0,1]","mutagen_history":"[1,1,0]","location_rts":"[272,218,223]","trial_type":"fractal-mutation","trial_index":95,"time_elapsed":1669035,"internal_node_id":"0.0-5.0-41.0"},{"group":"hexagon_bi","fractal_assignment":["../images/blu_wht.png","../images/gry_blk.png","../images/pnk_blu.png","../images/org_blu.png","../images/ylw_slt.png","../images/cyn_red.png"],"mutagen_generator_assignment":[1,0],"goal":0,"start":2,"action_noise":0,"location_history":"[2,1,0]","action_history":"[0,1]","mutagen_history":"[1,0]","location_rts":"[278,193]","trial_type":"fractal-mutation","trial_index":96,"time_elapsed":1675591,"internal_node_id":"0.0-5.0-42.0"},{"group":"hexagon_bi","fractal_assignment":["../images/blu_wht.png","../images/gry_blk.png","../images/pnk_blu.png","../images/org_blu.png","../images/ylw_slt.png","../images/cyn_red.png"],"mutagen_generator_assignment":[1,0],"goal":5,"start":0,"action_noise":0,"location_history":"[0,5]","action_history":"[0]","mutagen_history":"[1]","location_rts":"[292]","trial_type":"fractal-mutation","trial_index":97,"time_elapsed":1680911,"internal_node_id":"0.0-5.0-43.0"},{"group":"hexagon_bi","fractal_assignment":["../images/blu_wht.png","../images/gry_blk.png","../images/pnk_blu.png","../images/org_blu.png","../images/ylw_slt.png","../images/cyn_red.png"],"mutagen_generator_assignment":[1,0],"goal":0,"start":5,"action_noise":0,"location_history":"[5,0]","action_history":"[0]","mutagen_history":"[1]","location_rts":"[259]","trial_type":"fractal-mutation","trial_index":98,"time_elapsed":1686202,"internal_node_id":"0.0-5.0-44.0"},{"group":"hexagon_bi","fractal_assignment":["../images/blu_wht.png","../images/gry_blk.png","../images/pnk_blu.png","../images/org_blu.png","../images/ylw_slt.png","../images/cyn_red.png"],"mutagen_generator_assignment":[1,0],"goal":2,"start":0,"action_noise":0,"location_history":"[0,1,0,5,4,5,0,1,0,1,0,5,4,3,2]","action_history":"[1,1,0,1,1,0,1,1,1,1,0,1,0,1]","mutagen_history":"[0,0,1,0,0,1,0,0,0,0,1,0,1,0]","location_rts":"[273,220,227,217,203,226,215,206,192,227,221,234,204,181]","trial_type":"fractal-mutation","trial_index":99,"time_elapsed":1707723,"internal_node_id":"0.0-5.0-45.0"},{"group":"hexagon_bi","fractal_assignment":["../images/blu_wht.png","../images/gry_blk.png","../images/pnk_blu.png","../images/org_blu.png","../images/ylw_slt.png","../images/cyn_red.png"],"mutagen_generator_assignment":[1,0],"goal":4,"start":2,"action_noise":0,"location_history":"[2,1,0,5,4]","action_history":"[0,1,0,1]","mutagen_history":"[1,0,1,0]","location_rts":"[279,224,226,215]","trial_type":"fractal-mutation","trial_index":100,"time_elapsed":1716775,"internal_node_id":"0.0-5.0-46.0"},{"group":"hexagon_bi","fractal_assignment":["../images/blu_wht.png","../images/gry_blk.png","../images/pnk_blu.png","../images/org_blu.png","../images/ylw_slt.png","../images/cyn_red.png"],"mutagen_generator_assignment":[1,0],"goal":1,"start":4,"action_noise":0,"location_history":"[4,5,4,3,4,3,4,3,4,5,0,1]","action_history":"[1,1,0,0,0,0,0,0,1,0,1]","mutagen_history":"[0,0,1,1,1,1,1,1,0,1,0]","location_rts":"[278,200,224,224,217,223,222,192,213,228,222]","trial_type":"fractal-mutation","trial_index":101,"time_elapsed":1734560,"internal_node_id":"0.0-5.0-47.0"},{"group":"hexagon_bi","fractal_assignment":["../images/blu_wht.png","../images/gry_blk.png","../images/pnk_blu.png","../images/org_blu.png","../images/ylw_slt.png","../images/cyn_red.png"],"mutagen_generator_assignment":[1,0],"goal":5,"start":1,"action_noise":0,"location_history":"[1,0,5]","action_history":"[1,0]","mutagen_history":"[0,1]","location_rts":"[277,223]","trial_type":"fractal-mutation","trial_index":102,"time_elapsed":1741112,"internal_node_id":"0.0-5.0-48.0"},{"group":"hexagon_bi","fractal_assignment":["../images/blu_wht.png","../images/gry_blk.png","../images/pnk_blu.png","../images/org_blu.png","../images/ylw_slt.png","../images/cyn_red.png"],"mutagen_generator_assignment":[1,0],"goal":3,"start":5,"action_noise":0,"location_history":"[5,4,3]","action_history":"[1,0]","mutagen_history":"[0,1]","location_rts":"[267,213]","trial_type":"fractal-mutation","trial_index":103,"time_elapsed":1747667,"internal_node_id":"0.0-5.0-49.0"},{"view_history":"[{\"page_index\":0,\"viewing_time\":5864}]","rt":5864,"trial_type":"instructions","trial_index":104,"time_elapsed":1754531,"internal_node_id":"0.0-6.0"},{"rt":1305,"responses":"{\"Q0\":\"\"}","trial_type":"survey-text","trial_index":105,"time_elapsed":1756846,"internal_node_id":"0.0-7.0"}]