[{"view_history":"[{\"page_index\":0,\"viewing_time\":2447},{\"page_index\":1,\"viewing_time\":9056}]","rt":11503,"trial_type":"instructions","trial_index":0,"time_elapsed":11505,"internal_node_id":"0.0-0.0"},{"view_history":"[{\"page_index\":0,\"viewing_time\":2044},{\"page_index\":1,\"viewing_time\":4183}]","rt":6227,"trial_type":"instructions","trial_index":1,"time_elapsed":18733,"internal_node_id":"0.0-1.0"},{"group":"hexagon_tri","room_assignment":["grey","red","purple","yellow","green","blue"],"door_color_assignment":["white","black"],"door_generator_assignment":[1,0],"goal":3,"start":5,"action_noise":0,"location_history":"[5,0,5,4,2,3]","action_history":"[1,0,0,1,1]","door_history":"[0,1,1,0,0]","location_rts":"[2561,886,1294,867,555]","trial_type":"two-door-navigation","trial_index":2,"time_elapsed":33974,"internal_node_id":"0.0-2.0-0.0"},{"group":"hexagon_tri","room_assignment":["grey","red","purple","yellow","green","blue"],"door_color_assignment":["white","black"],"door_generator_assignment":[1,0],"goal":1,"start":3,"action_noise":0,"location_history":"[3,4,2,1]","action_history":"[1,1,0]","door_history":"[0,0,1]","location_rts":"[2958,626,977]","trial_type":"two-door-navigation","trial_index":3,"time_elapsed":45555,"internal_node_id":"0.0-2.0-1.0"},{"group":"hexagon_tri","room_assignment":["grey","red","purple","yellow","green","blue"],"door_color_assignment":["white","black"],"door_generator_assignment":[1,0],"goal":0,"start":1,"action_noise":0,"location_history":"[1,3,4,2,1,3,4,2,3,2,1,5,0]","action_history":"[0,1,1,0,0,1,1,1,0,0,1,1]","door_history":"[1,0,0,1,1,0,0,0,1,1,0,0]","location_rts":"[2809,646,1038,520,817,694,565,332,265,583,430,597]","trial_type":"two-door-navigation","trial_index":4,"time_elapsed":70927,"internal_node_id":"0.0-2.0-2.0"},{"group":"hexagon_tri","room_assignment":["grey","red","purple","yellow","green","blue"],"door_color_assignment":["white","black"],"door_generator_assignment":[1,0],"goal":3,"start":0,"action_noise":0,"location_history":"[0,1,3]","action_history":"[1,0]","door_history":"[0,1]","location_rts":"[4160,873]","trial_type":"two-door-navigation","trial_index":5,"time_elapsed":81983,"internal_node_id":"0.0-2.0-3.0"},{"group":"hexagon_tri","room_assignment":["grey","red","purple","yellow","green","blue"],"door_color_assignment":["white","black"],"door_generator_assignment":[1,0],"goal":4,"start":3,"action_noise":0,"location_history":"[3,2,1,5,0,5,0,1,3,2,1,3,4]","action_history":"[0,0,1,1,0,1,1,0,0,0,0,1]","door_history":"[1,1,0,0,1,0,0,1,1,1,1,0]","location_rts":"[2616,5815,507,576,560,1586,1217,591,1159,361,670,381]","trial_type":"two-door-navigation","trial_index":6,"time_elapsed":114121,"internal_node_id":"0.0-2.0-4.0"},{"group":"hexagon_tri","room_assignment":["grey","red","purple","yellow","green","blue"],"door_color_assignment":["white","black"],"door_generator_assignment":[1,0],"goal":2,"start":4,"action_noise":0,"location_history":"[4,2]","action_history":"[1]","door_history":"[0]","location_rts":"[1924]","trial_type":"two-door-navigation","trial_index":7,"time_elapsed":121052,"internal_node_id":"0.0-2.0-5.0"},{"group":"hexagon_tri","room_assignment":["grey","red","purple","yellow","green","blue"],"door_color_assignment":["white","black"],"door_generator_assignment":[1,0],"goal":1,"start":2,"action_noise":0,"location_history":"[2,1]","action_history":"[0]","door_history":"[1]","location_rts":"[1806]","trial_type":"two-door-navigation","trial_index":8,"time_elapsed":127865,"internal_node_id":"0.0-2.0-6.0"},{"group":"hexagon_tri","room_assignment":["grey","red","purple","yellow","green","blue"],"door_color_assignment":["white","black"],"door_generator_assignment":[1,0],"goal":5,"start":1,"action_noise":0,"location_history":"[1,5]","action_history":"[1]","door_history":"[0]","location_rts":"[2902]","trial_type":"two-door-navigation","trial_index":9,"time_elapsed":135775,"internal_node_id":"0.0-2.0-7.0"},{"group":"hexagon_tri","room_assignment":["grey","red","purple","yellow","green","blue"],"door_color_assignment":["white","black"],"door_generator_assignment":[1,0],"goal":4,"start":5,"action_noise":0,"location_history":"[5,0,5,4]","action_history":"[1,0,0]","door_history":"[0,1,1]","location_rts":"[2934,1011,859]","trial_type":"two-door-navigation","trial_index":10,"time_elapsed":147595,"internal_node_id":"0.0-2.0-8.0"},{"group":"hexagon_tri","room_assignment":["grey","red","purple","yellow","green","blue"],"door_color_assignment":["white","black"],"door_generator_assignment":[1,0],"goal":2,"start":4,"action_noise":0,"location_history":"[4,2]","action_history":"[1]","door_history":"[0]","location_rts":"[2854]","trial_type":"two-door-navigation","trial_index":11,"time_elapsed":155457,"internal_node_id":"0.0-2.0-9.0"},{"group":"hexagon_tri","room_assignment":["grey","red","purple","yellow","green","blue"],"door_color_assignment":["white","black"],"door_generator_assignment":[1,0],"goal":0,"start":2,"action_noise":0,"location_history":"[2,3,4,0]","action_history":"[1,1,0]","door_history":"[0,0,1]","location_rts":"[1553,605,629]","trial_type":"two-door-navigation","trial_index":12,"time_elapsed":165267,"internal_node_id":"0.0-2.0-10.0"},{"group":"hexagon_tri","room_assignment":["grey","red","purple","yellow","green","blue"],"door_color_assignment":["white","black"],"door_generator_assignment":[1,0],"goal":1,"start":0,"action_noise":0,"location_history":"[0,1]","action_history":"[1]","door_history":"[0]","location_rts":"[5530]","trial_type":"two-door-navigation","trial_index":13,"time_elapsed":175805,"internal_node_id":"0.0-2.0-11.0"},{"group":"hexagon_tri","room_assignment":["grey","red","purple","yellow","green","blue"],"door_color_assignment":["white","black"],"door_generator_assignment":[1,0],"goal":3,"start":1,"action_noise":0,"location_history":"[1,3]","action_history":"[0]","door_history":"[1]","location_rts":"[2934]","trial_type":"two-door-navigation","trial_index":14,"time_elapsed":183747,"internal_node_id":"0.0-2.0-12.0"},{"group":"hexagon_tri","room_assignment":["grey","red","purple","yellow","green","blue"],"door_color_assignment":["white","black"],"door_generator_assignment":[1,0],"goal":5,"start":3,"action_noise":0,"location_history":"[3,2,3,4,2,1,3,2,1,3,4,2,3,4,2,1,3,4,2,1,3,2,3,4,0,5]","action_history":"[0,1,1,1,0,0,0,0,0,1,1,1,1,1,0,0,1,1,0,0,0,1,1,0,0]","door_history":"[1,0,0,0,1,1,1,1,1,0,0,0,0,0,1,1,0,0,1,1,1,0,0,1,1]","location_rts":"[2157,1202,677,354,475,396,360,399,1251,718,768,327,461,545,564,852,894,550,638,487,286,412,477,532,842]","trial_type":"two-door-navigation","trial_index":15,"time_elapsed":229533,"internal_node_id":"0.0-2.0-13.0"},{"group":"hexagon_tri","room_assignment":["grey","red","purple","yellow","green","blue"],"door_color_assignment":["white","black"],"door_generator_assignment":[1,0],"goal":4,"start":5,"action_noise":0,"location_history":"[5,4]","action_history":"[0]","door_history":"[1]","location_rts":"[8415]","trial_type":"two-door-navigation","trial_index":16,"time_elapsed":242953,"internal_node_id":"0.0-2.0-14.0"},{"group":"hexagon_tri","room_assignment":["grey","red","purple","yellow","green","blue"],"door_color_assignment":["white","black"],"door_generator_assignment":[1,0],"goal":0,"start":4,"action_noise":0,"location_history":"[4,2,1,3,4,0]","action_history":"[1,0,0,1,0]","door_history":"[0,1,1,0,1]","location_rts":"[2332,873,546,466,5697]","trial_type":"two-door-navigation","trial_index":17,"time_elapsed":261913,"internal_node_id":"0.0-2.0-15.0"},{"group":"hexagon_tri","room_assignment":["grey","red","purple","yellow","green","blue"],"door_color_assignment":["white","black"],"door_generator_assignment":[1,0],"goal":3,"start":0,"action_noise":0,"location_history":"[0,5,0,1,5,0,1,3]","action_history":"[0,1,1,1,1,1,0]","door_history":"[1,0,0,0,0,0,1]","location_rts":"[4418,958,605,780,284,769,1064]","trial_type":"two-door-navigation","trial_index":18,"time_elapsed":281831,"internal_node_id":"0.0-2.0-16.0"},{"group":"hexagon_tri","room_assignment":["grey","red","purple","yellow","green","blue"],"door_color_assignment":["white","black"],"door_generator_assignment":[1,0],"goal":1,"start":3,"action_noise":0,"location_history":"[3,4,2,3,2,1]","action_history":"[1,1,1,0,0]","door_history":"[0,0,0,1,1]","location_rts":"[1799,745,384,922,459]","trial_type":"two-door-navigation","trial_index":19,"time_elapsed":295175,"internal_node_id":"0.0-2.0-17.0"},{"group":"hexagon_tri","room_assignment":["grey","red","purple","yellow","green","blue"],"door_color_assignment":["white","black"],"door_generator_assignment":[1,0],"goal":5,"start":1,"action_noise":0,"location_history":"[1,5]","action_history":"[1]","door_history":"[0]","location_rts":"[15440]","trial_type":"two-door-navigation","trial_index":20,"time_elapsed":315630,"internal_node_id":"0.0-2.0-18.0"},{"group":"hexagon_tri","room_assignment":["grey","red","purple","yellow","green","blue"],"door_color_assignment":["white","black"],"door_generator_assignment":[1,0],"goal":2,"start":5,"action_noise":0,"location_history":"[5,4,0,1,5,0,5,4,2]","action_history":"[0,0,1,1,1,0,0,1]","door_history":"[1,1,0,0,0,1,1,0]","location_rts":"[1620,432,714,497,679,899,427,892]","trial_type":"two-door-navigation","trial_index":21,"time_elapsed":333848,"internal_node_id":"0.0-2.0-19.0"},{"group":"hexagon_tri","room_assignment":["grey","red","purple","yellow","green","blue"],"door_color_assignment":["white","black"],"door_generator_assignment":[1,0],"goal":4,"start":2,"action_noise":0,"location_history":"[2,3,2,1,5,0,5,4]","action_history":"[1,0,0,1,1,0,0]","door_history":"[0,1,1,0,0,1,1]","location_rts":"[20134,870,1633,1318,1432,769,1334]","trial_type":"two-door-navigation","trial_index":22,"time_elapsed":372382,"internal_node_id":"0.0-2.0-20.0"},{"group":"hexagon_tri","room_assignment":["grey","red","purple","yellow","green","blue"],"door_color_assignment":["white","black"],"door_generator_assignment":[1,0],"goal":1,"start":4,"action_noise":0,"location_history":"[4,2,1]","action_history":"[1,0]","door_history":"[0,1]","location_rts":"[2017,4874]","trial_type":"two-door-navigation","trial_index":23,"time_elapsed":385297,"internal_node_id":"0.0-2.0-21.0"},{"group":"hexagon_tri","room_assignment":["grey","red","purple","yellow","green","blue"],"door_color_assignment":["white","black"],"door_generator_assignment":[1,0],"goal":3,"start":1,"action_noise":0,"location_history":"[1,3]","action_history":"[0]","door_history":"[1]","location_rts":"[3822]","trial_type":"two-door-navigation","trial_index":24,"time_elapsed":394126,"internal_node_id":"0.0-2.0-22.0"},{"group":"hexagon_tri","room_assignment":["grey","red","purple","yellow","green","blue"],"door_color_assignment":["white","black"],"door_generator_assignment":[1,0],"goal":2,"start":3,"action_noise":0,"location_history":"[3,2]","action_history":"[0]","door_history":"[1]","location_rts":"[2501]","trial_type":"two-door-navigation","trial_index":25,"time_elapsed":401637,"internal_node_id":"0.0-2.0-23.0"},{"group":"hexagon_tri","room_assignment":["grey","red","purple","yellow","green","blue"],"door_color_assignment":["white","black"],"door_generator_assignment":[1,0],"goal":0,"start":2,"action_noise":0,"location_history":"[2,1,5,0]","action_history":"[0,1,1]","door_history":"[1,0,0]","location_rts":"[1930,754,431]","trial_type":"two-door-navigation","trial_index":26,"time_elapsed":411771,"internal_node_id":"0.0-2.0-24.0"},{"group":"hexagon_tri","room_assignment":["grey","red","purple","yellow","green","blue"],"door_color_assignment":["white","black"],"door_generator_assignment":[1,0],"goal":5,"start":0,"action_noise":0,"location_history":"[0,1,5]","action_history":"[1,1]","door_history":"[0,0]","location_rts":"[3485,741]","trial_type":"two-door-navigation","trial_index":27,"time_elapsed":422012,"internal_node_id":"0.0-2.0-25.0"},{"group":"hexagon_tri","room_assignment":["grey","red","purple","yellow","green","blue"],"door_color_assignment":["white","black"],"door_generator_assignment":[1,0],"goal":2,"start":5,"action_noise":0,"location_history":"[5,0,5,4,2]","action_history":"[1,0,0,1]","door_history":"[0,1,1,0]","location_rts":"[14056,976,438,862]","trial_type":"two-door-navigation","trial_index":28,"time_elapsed":446373,"internal_node_id":"0.0-2.0-26.0"},{"group":"hexagon_tri","room_assignment":["grey","red","purple","yellow","green","blue"],"door_color_assignment":["white","black"],"door_generator_assignment":[1,0],"goal":3,"start":2,"action_noise":0,"location_history":"[2,3]","action_history":"[1]","door_history":"[0]","location_rts":"[1611]","trial_type":"two-door-navigation","trial_index":29,"time_elapsed":452992,"internal_node_id":"0.0-2.0-27.0"},{"group":"hexagon_tri","room_assignment":["grey","red","purple","yellow","green","blue"],"door_color_assignment":["white","black"],"door_generator_assignment":[1,0],"goal":0,"start":3,"action_noise":0,"location_history":"[3,2,3,4,2,3,2,1,5,4,2,1,5,0]","action_history":"[0,1,1,1,1,0,0,1,0,1,0,1,1]","door_history":"[1,0,0,0,0,1,1,0,1,0,1,0,0]","location_rts":"[6891,1509,704,366,370,716,299,733,1843,699,657,555,313]","trial_type":"two-door-navigation","trial_index":30,"time_elapsed":485747,"internal_node_id":"0.0-2.0-28.0"},{"group":"hexagon_tri","room_assignment":["grey","red","purple","yellow","green","blue"],"door_color_assignment":["white","black"],"door_generator_assignment":[1,0],"goal":1,"start":0,"action_noise":0,"location_history":"[0,5,0,1]","action_history":"[0,1,1]","door_history":"[1,0,0]","location_rts":"[1693,699,429]","trial_type":"two-door-navigation","trial_index":31,"time_elapsed":495593,"internal_node_id":"0.0-2.0-29.0"},{"group":"hexagon_tri","room_assignment":["grey","red","purple","yellow","green","blue"],"door_color_assignment":["white","black"],"door_generator_assignment":[1,0],"goal":4,"start":1,"action_noise":0,"location_history":"[1,5,0,5,4]","action_history":"[1,1,0,0]","door_history":"[0,0,1,1]","location_rts":"[2720,1044,1039,409]","trial_type":"two-door-navigation","trial_index":32,"time_elapsed":508840,"internal_node_id":"0.0-2.0-30.0"},{"group":"hexagon_tri","room_assignment":["grey","red","purple","yellow","green","blue"],"door_color_assignment":["white","black"],"door_generator_assignment":[1,0],"goal":5,"start":4,"action_noise":0,"location_history":"[4,0,5]","action_history":"[0,0]","door_history":"[1,1]","location_rts":"[3234,514]","trial_type":"two-door-navigation","trial_index":33,"time_elapsed":518607,"internal_node_id":"0.0-2.0-31.0"},{"group":"hexagon_tri","room_assignment":["grey","red","purple","yellow","green","blue"],"door_color_assignment":["white","black"],"door_generator_assignment":[1,0],"goal":0,"start":5,"action_noise":0,"location_history":"[5,0]","action_history":"[1]","door_history":"[0]","location_rts":"[1903]","trial_type":"two-door-navigation","trial_index":34,"time_elapsed":525519,"internal_node_id":"0.0-2.0-32.0"},{"group":"hexagon_tri","room_assignment":["grey","red","purple","yellow","green","blue"],"door_color_assignment":["white","black"],"door_generator_assignment":[1,0],"goal":3,"start":0,"action_noise":0,"location_history":"[0,5,0,5,4,2,3]","action_history":"[0,1,0,0,1,1]","door_history":"[1,0,1,1,0,0]","location_rts":"[3771,1375,5642,324,623,354]","trial_type":"two-door-navigation","trial_index":35,"time_elapsed":547659,"internal_node_id":"0.0-2.0-33.0"},{"group":"hexagon_tri","room_assignment":["grey","red","purple","yellow","green","blue"],"door_color_assignment":["white","black"],"door_generator_assignment":[1,0],"goal":1,"start":3,"action_noise":0,"location_history":"[3,4,2,1]","action_history":"[1,1,0]","door_history":"[0,0,1]","location_rts":"[1493,573,547]","trial_type":"two-door-navigation","trial_index":36,"time_elapsed":557302,"internal_node_id":"0.0-2.0-34.0"},{"group":"hexagon_tri","room_assignment":["grey","red","purple","yellow","green","blue"],"door_color_assignment":["white","black"],"door_generator_assignment":[1,0],"goal":2,"start":1,"action_noise":0,"location_history":"[1,3,2]","action_history":"[0,0]","door_history":"[1,1]","location_rts":"[2186,568]","trial_type":"two-door-navigation","trial_index":37,"time_elapsed":566077,"internal_node_id":"0.0-2.0-35.0"},{"group":"hexagon_tri","room_assignment":["grey","red","purple","yellow","green","blue"],"door_color_assignment":["white","black"],"door_generator_assignment":[1,0],"goal":4,"start":2,"action_noise":0,"location_history":"[2,1,3,4]","action_history":"[0,0,1]","door_history":"[1,1,0]","location_rts":"[2906,552,909]","trial_type":"two-door-navigation","trial_index":38,"time_elapsed":577468,"internal_node_id":"0.0-2.0-36.0"},{"group":"hexagon_tri","room_assignment":["grey","red","purple","yellow","green","blue"],"door_color_assignment":["white","black"],"door_generator_assignment":[1,0],"goal":5,"start":4,"action_noise":0,"location_history":"[4,2,3,2,1,3,4,2,1,3,4,2,3,4,0,5]","action_history":"[1,1,0,0,0,1,1,0,0,1,1,1,1,0,0]","door_history":"[0,0,1,1,1,0,0,1,1,0,0,0,0,1,1]","location_rts":"[1890,790,598,432,436,271,382,288,389,229,384,357,280,424,333]","trial_type":"two-door-navigation","trial_index":39,"time_elapsed":604077,"internal_node_id":"0.0-2.0-37.0"},{"group":"hexagon_tri","room_assignment":["grey","red","purple","yellow","green","blue"],"door_color_assignment":["white","black"],"door_generator_assignment":[1,0],"goal":1,"start":5,"action_noise":0,"location_history":"[5,4,2,3,4,2,3,2,1]","action_history":"[0,1,1,1,1,1,0,0]","door_history":"[1,0,0,0,0,0,1,1]","location_rts":"[1697,1289,358,349,665,760,773,339]","trial_type":"two-door-navigation","trial_index":40,"time_elapsed":622372,"internal_node_id":"0.0-2.0-38.0"},{"group":"hexagon_tri","room_assignment":["grey","red","purple","yellow","green","blue"],"door_color_assignment":["white","black"],"door_generator_assignment":[1,0],"goal":4,"start":1,"action_noise":0,"location_history":"[1,3,2,3,2,3,4]","action_history":"[0,0,1,0,1,1]","door_history":"[1,1,0,1,0,0]","location_rts":"[1632,612,276,1214,1133,435]","trial_type":"two-door-navigation","trial_index":41,"time_elapsed":637715,"internal_node_id":"0.0-2.0-39.0"},{"group":"hexagon_tri","room_assignment":["grey","red","purple","yellow","green","blue"],"door_color_assignment":["white","black"],"door_generator_assignment":[1,0],"goal":3,"start":4,"action_noise":0,"location_history":"[4,2,3]","action_history":"[1,1]","door_history":"[0,0]","location_rts":"[4858,1727]","trial_type":"two-door-navigation","trial_index":42,"time_elapsed":650317,"internal_node_id":"0.0-2.0-40.0"},{"group":"hexagon_tri","room_assignment":["grey","red","purple","yellow","green","blue"],"door_color_assignment":["white","black"],"door_generator_assignment":[1,0],"goal":2,"start":3,"action_noise":0,"location_history":"[3,2]","action_history":"[0]","door_history":"[1]","location_rts":"[2070]","trial_type":"two-door-navigation","trial_index":43,"time_elapsed":657395,"internal_node_id":"0.0-2.0-41.0"},{"group":"hexagon_tri","room_assignment":["grey","red","purple","yellow","green","blue"],"door_color_assignment":["white","black"],"door_generator_assignment":[1,0],"goal":0,"start":2,"action_noise":0,"location_history":"[2,1,5,0]","action_history":"[0,1,1]","door_history":"[1,0,0]","location_rts":"[8478,1036,358]","trial_type":"two-door-navigation","trial_index":44,"time_elapsed":674288,"internal_node_id":"0.0-2.0-42.0"},{"group":"hexagon_tri","room_assignment":["grey","red","purple","yellow","green","blue"],"door_color_assignment":["white","black"],"door_generator_assignment":[1,0],"goal":5,"start":0,"action_noise":0,"location_history":"[0,1,5]","action_history":"[1,1]","door_history":"[0,0]","location_rts":"[1798,775]","trial_type":"two-door-navigation","trial_index":45,"time_elapsed":682896,"internal_node_id":"0.0-2.0-43.0"},{"group":"hexagon_tri","room_assignment":["grey","red","purple","yellow","green","blue"],"door_color_assignment":["white","black"],"door_generator_assignment":[1,0],"goal":0,"start":5,"action_noise":0,"location_history":"[5,4,0]","action_history":"[0,0]","door_history":"[1,1]","location_rts":"[1017,441]","trial_type":"two-door-navigation","trial_index":46,"time_elapsed":690371,"internal_node_id":"0.0-2.0-44.0"},{"group":"hexagon_tri","room_assignment":["grey","red","purple","yellow","green","blue"],"door_color_assignment":["white","black"],"door_generator_assignment":[1,0],"goal":2,"start":0,"action_noise":0,"location_history":"[0,5,0,1,3,2]","action_history":"[0,1,1,0,0]","door_history":"[1,0,0,1,1]","location_rts":"[1169,324,393,359,348]","trial_type":"two-door-navigation","trial_index":47,"time_elapsed":702007,"internal_node_id":"0.0-2.0-45.0"},{"group":"hexagon_tri","room_assignment":["grey","red","purple","yellow","green","blue"],"door_color_assignment":["white","black"],"door_generator_assignment":[1,0],"goal":4,"start":2,"action_noise":0,"location_history":"[2,3,4]","action_history":"[1,1]","door_history":"[0,0]","location_rts":"[1136,430]","trial_type":"two-door-navigation","trial_index":48,"time_elapsed":709592,"internal_node_id":"0.0-2.0-46.0"},{"group":"hexagon_tri","room_assignment":["grey","red","purple","yellow","green","blue"],"door_color_assignment":["white","black"],"door_generator_assignment":[1,0],"goal":1,"start":4,"action_noise":0,"location_history":"[4,0,5,4,2,3,4,2,3,4,2,1]","action_history":"[0,0,0,1,1,1,1,1,1,1,0]","door_history":"[1,1,1,0,0,0,0,0,0,0,1]","location_rts":"[1185,700,403,1211,566,356,325,367,532,499,571]","trial_type":"two-door-navigation","trial_index":49,"time_elapsed":731364,"internal_node_id":"0.0-2.0-47.0"},{"group":"hexagon_tri","room_assignment":["grey","red","purple","yellow","green","blue"],"door_color_assignment":["white","black"],"door_generator_assignment":[1,0],"goal":5,"start":1,"action_noise":0,"location_history":"[1,3,2,3,4,0,5]","action_history":"[0,0,1,1,0,0]","door_history":"[1,1,0,0,1,1]","location_rts":"[1444,394,345,387,573,464]","trial_type":"two-door-navigation","trial_index":50,"time_elapsed":745014,"internal_node_id":"0.0-2.0-48.0"},{"group":"hexagon_tri","room_assignment":["grey","red","purple","yellow","green","blue"],"door_color_assignment":["white","black"],"door_generator_assignment":[1,0],"goal":3,"start":5,"action_noise":0,"location_history":"[5,4,0,1,5,0,1,3]","action_history":"[0,0,1,1,1,1,0]","door_history":"[1,1,0,0,0,0,1]","location_rts":"[1075,447,389,336,338,1850,604]","trial_type":"two-door-navigation","trial_index":51,"time_elapsed":761102,"internal_node_id":"0.0-2.0-49.0"},{"view_history":"[{\"page_index\":0,\"viewing_time\":2701}]","rt":2701,"trial_type":"instructions","trial_index":52,"time_elapsed":764804,"internal_node_id":"0.0-3.0"},{"view_history":"[{\"page_index\":0,\"viewing_time\":1062},{\"page_index\":1,\"viewing_time\":3133}]","rt":4197,"trial_type":"instructions","trial_index":53,"time_elapsed":770003,"internal_node_id":"0.0-4.0"},{"group":"hexagon_tri","fractal_assignment":["../images/pnk_blu.png","../images/gry_blk.png","../images/org_blu.png","../images/cyn_red.png","../images/blu_wht.png","../images/ylw_slt.png"],"mutagen_generator_assignment":[1,0],"goal":3,"start":5,"action_noise":0,"location_history":"[5,4,2,1,3]","action_history":"[0,1,0,0]","mutagen_history":"[1,0,1,1]","location_rts":"[5518,920,1218,550]","trial_type":"fractal-mutation","trial_index":54,"time_elapsed":786337,"internal_node_id":"0.0-5.0-0.0"},{"group":"hexagon_tri","fractal_assignment":["../images/pnk_blu.png","../images/gry_blk.png","../images/org_blu.png","../images/cyn_red.png","../images/blu_wht.png","../images/ylw_slt.png"],"mutagen_generator_assignment":[1,0],"goal":1,"start":3,"action_noise":0,"location_history":"[3,4,2,1]","action_history":"[1,1,0]","mutagen_history":"[0,0,1]","location_rts":"[1353,1093,815]","trial_type":"fractal-mutation","trial_index":55,"time_elapsed":796649,"internal_node_id":"0.0-5.0-1.0"},{"group":"hexagon_tri","fractal_assignment":["../images/pnk_blu.png","../images/gry_blk.png","../images/org_blu.png","../images/cyn_red.png","../images/blu_wht.png","../images/ylw_slt.png"],"mutagen_generator_assignment":[1,0],"goal":0,"start":1,"action_noise":0,"location_history":"[1,5,4,2,3,4,0]","action_history":"[1,0,1,1,1,0]","mutagen_history":"[0,1,0,0,0,1]","location_rts":"[3898,2495,1100,545,546,409]","trial_type":"fractal-mutation","trial_index":56,"time_elapsed":815733,"internal_node_id":"0.0-5.0-2.0"},{"group":"hexagon_tri","fractal_assignment":["../images/pnk_blu.png","../images/gry_blk.png","../images/org_blu.png","../images/cyn_red.png","../images/blu_wht.png","../images/ylw_slt.png"],"mutagen_generator_assignment":[1,0],"goal":3,"start":0,"action_noise":0,"location_history":"[0,5,4,2,3]","action_history":"[0,0,1,1]","mutagen_history":"[1,1,0,0]","location_rts":"[1628,674,623,766]","trial_type":"fractal-mutation","trial_index":57,"time_elapsed":827505,"internal_node_id":"0.0-5.0-3.0"},{"group":"hexagon_tri","fractal_assignment":["../images/pnk_blu.png","../images/gry_blk.png","../images/org_blu.png","../images/cyn_red.png","../images/blu_wht.png","../images/ylw_slt.png"],"mutagen_generator_assignment":[1,0],"goal":4,"start":3,"action_noise":0,"location_history":"[3,2,3,4]","action_history":"[0,1,1]","mutagen_history":"[1,0,0]","location_rts":"[1584,1416,797]","trial_type":"fractal-mutation","trial_index":58,"time_elapsed":838349,"internal_node_id":"0.0-5.0-4.0"},{"group":"hexagon_tri","fractal_assignment":["../images/pnk_blu.png","../images/gry_blk.png","../images/org_blu.png","../images/cyn_red.png","../images/blu_wht.png","../images/ylw_slt.png"],"mutagen_generator_assignment":[1,0],"goal":2,"start":4,"action_noise":0,"location_history":"[4,2]","action_history":"[1]","mutagen_history":"[0]","location_rts":"[1965]","trial_type":"fractal-mutation","trial_index":59,"time_elapsed":845328,"internal_node_id":"0.0-5.0-5.0"},{"group":"hexagon_tri","fractal_assignment":["../images/pnk_blu.png","../images/gry_blk.png","../images/org_blu.png","../images/cyn_red.png","../images/blu_wht.png","../images/ylw_slt.png"],"mutagen_generator_assignment":[1,0],"goal":1,"start":2,"action_noise":0,"location_history":"[2,1]","action_history":"[0]","mutagen_history":"[1]","location_rts":"[2681]","trial_type":"fractal-mutation","trial_index":60,"time_elapsed":853034,"internal_node_id":"0.0-5.0-6.0"},{"group":"hexagon_tri","fractal_assignment":["../images/pnk_blu.png","../images/gry_blk.png","../images/org_blu.png","../images/cyn_red.png","../images/blu_wht.png","../images/ylw_slt.png"],"mutagen_generator_assignment":[1,0],"goal":5,"start":1,"action_noise":0,"location_history":"[1,3,4,0,5]","action_history":"[0,1,0,0]","mutagen_history":"[1,0,1,1]","location_rts":"[1704,2284,1662,884]","trial_type":"fractal-mutation","trial_index":61,"time_elapsed":867653,"internal_node_id":"0.0-5.0-7.0"},{"group":"hexagon_tri","fractal_assignment":["../images/pnk_blu.png","../images/gry_blk.png","../images/org_blu.png","../images/cyn_red.png","../images/blu_wht.png","../images/ylw_slt.png"],"mutagen_generator_assignment":[1,0],"goal":4,"start":5,"action_noise":0,"location_history":"[5,0,1,3,2,1,5,0,1,5,4]","action_history":"[1,1,0,0,0,1,1,1,1,0]","mutagen_history":"[0,0,1,1,1,0,0,0,0,1]","location_rts":"[2646,1878,817,558,414,441,769,939,1057,472]","trial_type":"fractal-mutation","trial_index":62,"time_elapsed":891799,"internal_node_id":"0.0-5.0-8.0"},{"group":"hexagon_tri","fractal_assignment":["../images/pnk_blu.png","../images/gry_blk.png","../images/org_blu.png","../images/cyn_red.png","../images/blu_wht.png","../images/ylw_slt.png"],"mutagen_generator_assignment":[1,0],"goal":2,"start":4,"action_noise":0,"location_history":"[4,2]","action_history":"[1]","mutagen_history":"[0]","location_rts":"[1212]","trial_type":"fractal-mutation","trial_index":63,"time_elapsed":898021,"internal_node_id":"0.0-5.0-9.0"},{"group":"hexagon_tri","fractal_assignment":["../images/pnk_blu.png","../images/gry_blk.png","../images/org_blu.png","../images/cyn_red.png","../images/blu_wht.png","../images/ylw_slt.png"],"mutagen_generator_assignment":[1,0],"goal":0,"start":2,"action_noise":0,"location_history":"[2,3,4,0]","action_history":"[1,1,0]","mutagen_history":"[0,0,1]","location_rts":"[1964,653,299]","trial_type":"fractal-mutation","trial_index":64,"time_elapsed":907992,"internal_node_id":"0.0-5.0-10.0"},{"group":"hexagon_tri","fractal_assignment":["../images/pnk_blu.png","../images/gry_blk.png","../images/org_blu.png","../images/cyn_red.png","../images/blu_wht.png","../images/ylw_slt.png"],"mutagen_generator_assignment":[1,0],"goal":1,"start":0,"action_noise":0,"location_history":"[0,1]","action_history":"[1]","mutagen_history":"[0]","location_rts":"[1364]","trial_type":"fractal-mutation","trial_index":65,"time_elapsed":914367,"internal_node_id":"0.0-5.0-11.0"},{"group":"hexagon_tri","fractal_assignment":["../images/pnk_blu.png","../images/gry_blk.png","../images/org_blu.png","../images/cyn_red.png","../images/blu_wht.png","../images/ylw_slt.png"],"mutagen_generator_assignment":[1,0],"goal":3,"start":1,"action_noise":0,"location_history":"[1,5,0,1,3]","action_history":"[1,1,1,0]","mutagen_history":"[0,0,0,1]","location_rts":"[3323,1259,819,721]","trial_type":"fractal-mutation","trial_index":66,"time_elapsed":928544,"internal_node_id":"0.0-5.0-12.0"},{"group":"hexagon_tri","fractal_assignment":["../images/pnk_blu.png","../images/gry_blk.png","../images/org_blu.png","../images/cyn_red.png","../images/blu_wht.png","../images/ylw_slt.png"],"mutagen_generator_assignment":[1,0],"goal":5,"start":3,"action_noise":0,"location_history":"[3,4,0,5]","action_history":"[1,0,0]","mutagen_history":"[0,1,1]","location_rts":"[1563,911,962]","trial_type":"fractal-mutation","trial_index":67,"time_elapsed":939041,"internal_node_id":"0.0-5.0-13.0"},{"group":"hexagon_tri","fractal_assignment":["../images/pnk_blu.png","../images/gry_blk.png","../images/org_blu.png","../images/cyn_red.png","../images/blu_wht.png","../images/ylw_slt.png"],"mutagen_generator_assignment":[1,0],"goal":4,"start":5,"action_noise":0,"location_history":"[5,4]","action_history":"[0]","mutagen_history":"[1]","location_rts":"[2441]","trial_type":"fractal-mutation","trial_index":68,"time_elapsed":946510,"internal_node_id":"0.0-5.0-14.0"},{"group":"hexagon_tri","fractal_assignment":["../images/pnk_blu.png","../images/gry_blk.png","../images/org_blu.png","../images/cyn_red.png","../images/blu_wht.png","../images/ylw_slt.png"],"mutagen_generator_assignment":[1,0],"goal":0,"start":4,"action_noise":0,"location_history":"[4,0]","action_history":"[0]","mutagen_history":"[1]","location_rts":"[2798]","trial_type":"fractal-mutation","trial_index":69,"time_elapsed":954336,"internal_node_id":"0.0-5.0-15.0"},{"group":"hexagon_tri","fractal_assignment":["../images/pnk_blu.png","../images/gry_blk.png","../images/org_blu.png","../images/cyn_red.png","../images/blu_wht.png","../images/ylw_slt.png"],"mutagen_generator_assignment":[1,0],"goal":3,"start":0,"action_noise":0,"location_history":"[0,1,5,0,1,3]","action_history":"[1,1,1,1,0]","mutagen_history":"[0,0,0,0,1]","location_rts":"[1570,1703,733,700,588]","trial_type":"fractal-mutation","trial_index":70,"time_elapsed":968729,"internal_node_id":"0.0-5.0-16.0"},{"group":"hexagon_tri","fractal_assignment":["../images/pnk_blu.png","../images/gry_blk.png","../images/org_blu.png","../images/cyn_red.png","../images/blu_wht.png","../images/ylw_slt.png"],"mutagen_generator_assignment":[1,0],"goal":1,"start":3,"action_noise":0,"location_history":"[3,4,2,1]","action_history":"[1,1,0]","mutagen_history":"[0,0,1]","location_rts":"[1411,1526,647]","trial_type":"fractal-mutation","trial_index":71,"time_elapsed":979358,"internal_node_id":"0.0-5.0-17.0"},{"group":"hexagon_tri","fractal_assignment":["../images/pnk_blu.png","../images/gry_blk.png","../images/org_blu.png","../images/cyn_red.png","../images/blu_wht.png","../images/ylw_slt.png"],"mutagen_generator_assignment":[1,0],"goal":5,"start":1,"action_noise":0,"location_history":"[1,3,4,0,5]","action_history":"[0,1,0,0]","mutagen_history":"[1,0,1,1]","location_rts":"[2572,782,676,632]","trial_type":"fractal-mutation","trial_index":72,"time_elapsed":992103,"internal_node_id":"0.0-5.0-18.0"},{"group":"hexagon_tri","fractal_assignment":["../images/pnk_blu.png","../images/gry_blk.png","../images/org_blu.png","../images/cyn_red.png","../images/blu_wht.png","../images/ylw_slt.png"],"mutagen_generator_assignment":[1,0],"goal":2,"start":5,"action_noise":0,"location_history":"[5,0,1,3,2]","action_history":"[1,1,0,0]","mutagen_history":"[0,0,1,1]","location_rts":"[2393,887,580,721]","trial_type":"fractal-mutation","trial_index":73,"time_elapsed":1004762,"internal_node_id":"0.0-5.0-19.0"},{"group":"hexagon_tri","fractal_assignment":["../images/pnk_blu.png","../images/gry_blk.png","../images/org_blu.png","../images/cyn_red.png","../images/blu_wht.png","../images/ylw_slt.png"],"mutagen_generator_assignment":[1,0],"goal":4,"start":2,"action_noise":0,"location_history":"[2,1,5,4]","action_history":"[0,1,0]","mutagen_history":"[1,0,1]","location_rts":"[1209,643,574]","trial_type":"fractal-mutation","trial_index":74,"time_elapsed":1014254,"internal_node_id":"0.0-5.0-20.0"},{"group":"hexagon_tri","fractal_assignment":["../images/pnk_blu.png","../images/gry_blk.png","../images/org_blu.png","../images/cyn_red.png","../images/blu_wht.png","../images/ylw_slt.png"],"mutagen_generator_assignment":[1,0],"goal":1,"start":4,"action_noise":0,"location_history":"[4,2,1]","action_history":"[1,0]","mutagen_history":"[0,1]","location_rts":"[2078,492]","trial_type":"fractal-mutation","trial_index":75,"time_elapsed":1022866,"internal_node_id":"0.0-5.0-21.0"},{"group":"hexagon_tri","fractal_assignment":["../images/pnk_blu.png","../images/gry_blk.png","../images/org_blu.png","../images/cyn_red.png","../images/blu_wht.png","../images/ylw_slt.png"],"mutagen_generator_assignment":[1,0],"goal":3,"start":1,"action_noise":0,"location_history":"[1,5,0,5,4,0,1,3]","action_history":"[1,1,0,0,0,1,0]","mutagen_history":"[0,0,1,1,1,0,1]","location_rts":"[9839,1405,2690,387,502,330,336]","trial_type":"fractal-mutation","trial_index":76,"time_elapsed":1049496,"internal_node_id":"0.0-5.0-22.0"},{"group":"hexagon_tri","fractal_assignment":["../images/pnk_blu.png","../images/gry_blk.png","../images/org_blu.png","../images/cyn_red.png","../images/blu_wht.png","../images/ylw_slt.png"],"mutagen_generator_assignment":[1,0],"goal":2,"start":3,"action_noise":0,"location_history":"[3,2]","action_history":"[0]","mutagen_history":"[1]","location_rts":"[8718]","trial_type":"fractal-mutation","trial_index":77,"time_elapsed":1063243,"internal_node_id":"0.0-5.0-23.0"},{"group":"hexagon_tri","fractal_assignment":["../images/pnk_blu.png","../images/gry_blk.png","../images/org_blu.png","../images/cyn_red.png","../images/blu_wht.png","../images/ylw_slt.png"],"mutagen_generator_assignment":[1,0],"goal":0,"start":2,"action_noise":0,"location_history":"[2,3,4,0]","action_history":"[1,1,0]","mutagen_history":"[0,0,1]","location_rts":"[1191,1782,572]","trial_type":"fractal-mutation","trial_index":78,"time_elapsed":1073832,"internal_node_id":"0.0-5.0-24.0"},{"group":"hexagon_tri","fractal_assignment":["../images/pnk_blu.png","../images/gry_blk.png","../images/org_blu.png","../images/cyn_red.png","../images/blu_wht.png","../images/ylw_slt.png"],"mutagen_generator_assignment":[1,0],"goal":5,"start":0,"action_noise":0,"location_history":"[0,5]","action_history":"[0]","mutagen_history":"[1]","location_rts":"[1818]","trial_type":"fractal-mutation","trial_index":79,"time_elapsed":1080677,"internal_node_id":"0.0-5.0-25.0"},{"group":"hexagon_tri","fractal_assignment":["../images/pnk_blu.png","../images/gry_blk.png","../images/org_blu.png","../images/cyn_red.png","../images/blu_wht.png","../images/ylw_slt.png"],"mutagen_generator_assignment":[1,0],"goal":2,"start":5,"action_noise":0,"location_history":"[5,0,5,4,2]","action_history":"[1,0,0,1]","mutagen_history":"[0,1,1,0]","location_rts":"[1277,961,609,508]","trial_type":"fractal-mutation","trial_index":80,"time_elapsed":1092108,"internal_node_id":"0.0-5.0-26.0"},{"group":"hexagon_tri","fractal_assignment":["../images/pnk_blu.png","../images/gry_blk.png","../images/org_blu.png","../images/cyn_red.png","../images/blu_wht.png","../images/ylw_slt.png"],"mutagen_generator_assignment":[1,0],"goal":3,"start":2,"action_noise":0,"location_history":"[2,1,3]","action_history":"[0,0]","mutagen_history":"[1,1]","location_rts":"[1449,852]","trial_type":"fractal-mutation","trial_index":81,"time_elapsed":1100461,"internal_node_id":"0.0-5.0-27.0"},{"group":"hexagon_tri","fractal_assignment":["../images/pnk_blu.png","../images/gry_blk.png","../images/org_blu.png","../images/cyn_red.png","../images/blu_wht.png","../images/ylw_slt.png"],"mutagen_generator_assignment":[1,0],"goal":0,"start":3,"action_noise":0,"location_history":"[3,4,0]","action_history":"[1,0]","mutagen_history":"[0,1]","location_rts":"[5359,982]","trial_type":"fractal-mutation","trial_index":82,"time_elapsed":1112837,"internal_node_id":"0.0-5.0-28.0"},{"group":"hexagon_tri","fractal_assignment":["../images/pnk_blu.png","../images/gry_blk.png","../images/org_blu.png","../images/cyn_red.png","../images/blu_wht.png","../images/ylw_slt.png"],"mutagen_generator_assignment":[1,0],"goal":1,"start":0,"action_noise":0,"location_history":"[0,1]","action_history":"[1]","mutagen_history":"[0]","location_rts":"[1174]","trial_type":"fractal-mutation","trial_index":83,"time_elapsed":1119025,"internal_node_id":"0.0-5.0-29.0"},{"group":"hexagon_tri","fractal_assignment":["../images/pnk_blu.png","../images/gry_blk.png","../images/org_blu.png","../images/cyn_red.png","../images/blu_wht.png","../images/ylw_slt.png"],"mutagen_generator_assignment":[1,0],"goal":4,"start":1,"action_noise":0,"location_history":"[1,3,4]","action_history":"[0,1]","mutagen_history":"[1,0]","location_rts":"[1184,483]","trial_type":"fractal-mutation","trial_index":84,"time_elapsed":1126733,"internal_node_id":"0.0-5.0-30.0"},{"group":"hexagon_tri","fractal_assignment":["../images/pnk_blu.png","../images/gry_blk.png","../images/org_blu.png","../images/cyn_red.png","../images/blu_wht.png","../images/ylw_slt.png"],"mutagen_generator_assignment":[1,0],"goal":5,"start":4,"action_noise":0,"location_history":"[4,0,1,5]","action_history":"[0,1,1]","mutagen_history":"[1,0,0]","location_rts":"[1182,508,859]","trial_type":"fractal-mutation","trial_index":85,"time_elapsed":1136326,"internal_node_id":"0.0-5.0-31.0"},{"group":"hexagon_tri","fractal_assignment":["../images/pnk_blu.png","../images/gry_blk.png","../images/org_blu.png","../images/cyn_red.png","../images/blu_wht.png","../images/ylw_slt.png"],"mutagen_generator_assignment":[1,0],"goal":0,"start":5,"action_noise":0,"location_history":"[5,0]","action_history":"[1]","mutagen_history":"[0]","location_rts":"[7803]","trial_type":"fractal-mutation","trial_index":86,"time_elapsed":1149141,"internal_node_id":"0.0-5.0-32.0"},{"group":"hexagon_tri","fractal_assignment":["../images/pnk_blu.png","../images/gry_blk.png","../images/org_blu.png","../images/cyn_red.png","../images/blu_wht.png","../images/ylw_slt.png"],"mutagen_generator_assignment":[1,0],"goal":3,"start":0,"action_noise":0,"location_history":"[0,5,4,2,3]","action_history":"[0,0,1,1]","mutagen_history":"[1,1,0,0]","location_rts":"[1013,703,424,706]","trial_type":"fractal-mutation","trial_index":87,"time_elapsed":1160051,"internal_node_id":"0.0-5.0-33.0"},{"group":"hexagon_tri","fractal_assignment":["../images/pnk_blu.png","../images/gry_blk.png","../images/org_blu.png","../images/cyn_red.png","../images/blu_wht.png","../images/ylw_slt.png"],"mutagen_generator_assignment":[1,0],"goal":1,"start":3,"action_noise":0,"location_history":"[3,4,2,1]","action_history":"[1,1,0]","mutagen_history":"[0,0,1]","location_rts":"[1871,856,382]","trial_type":"fractal-mutation","trial_index":88,"time_elapsed":1170203,"internal_node_id":"0.0-5.0-34.0"},{"group":"hexagon_tri","fractal_assignment":["../images/pnk_blu.png","../images/gry_blk.png","../images/org_blu.png","../images/cyn_red.png","../images/blu_wht.png","../images/ylw_slt.png"],"mutagen_generator_assignment":[1,0],"goal":2,"start":1,"action_noise":0,"location_history":"[1,3,4,2]","action_history":"[0,1,1]","mutagen_history":"[1,0,0]","location_rts":"[1072,766,506]","trial_type":"fractal-mutation","trial_index":89,"time_elapsed":1179600,"internal_node_id":"0.0-5.0-35.0"},{"group":"hexagon_tri","fractal_assignment":["../images/pnk_blu.png","../images/gry_blk.png","../images/org_blu.png","../images/cyn_red.png","../images/blu_wht.png","../images/ylw_slt.png"],"mutagen_generator_assignment":[1,0],"goal":4,"start":2,"action_noise":0,"location_history":"[2,3,2,3,4]","action_history":"[1,0,1,1]","mutagen_history":"[0,1,0,0]","location_rts":"[2634,449,1804,608]","trial_type":"fractal-mutation","trial_index":90,"time_elapsed":1193148,"internal_node_id":"0.0-5.0-36.0"},{"group":"hexagon_tri","fractal_assignment":["../images/pnk_blu.png","../images/gry_blk.png","../images/org_blu.png","../images/cyn_red.png","../images/blu_wht.png","../images/ylw_slt.png"],"mutagen_generator_assignment":[1,0],"goal":5,"start":4,"action_noise":0,"location_history":"[4,0,1,3,2,1,5]","action_history":"[0,1,0,0,0,1]","mutagen_history":"[1,0,1,1,1,0]","location_rts":"[1550,611,1041,512,369,671]","trial_type":"fractal-mutation","trial_index":91,"time_elapsed":1208023,"internal_node_id":"0.0-5.0-37.0"},{"group":"hexagon_tri","fractal_assignment":["../images/pnk_blu.png","../images/gry_blk.png","../images/org_blu.png","../images/cyn_red.png","../images/blu_wht.png","../images/ylw_slt.png"],"mutagen_generator_assignment":[1,0],"goal":1,"start":5,"action_noise":0,"location_history":"[5,4,0,1]","action_history":"[0,0,1]","mutagen_history":"[1,1,0]","location_rts":"[2883,916,542]","trial_type":"fractal-mutation","trial_index":92,"time_elapsed":1219444,"internal_node_id":"0.0-5.0-38.0"},{"group":"hexagon_tri","fractal_assignment":["../images/pnk_blu.png","../images/gry_blk.png","../images/org_blu.png","../images/cyn_red.png","../images/blu_wht.png","../images/ylw_slt.png"],"mutagen_generator_assignment":[1,0],"goal":4,"start":1,"action_noise":0,"location_history":"[1,5,4]","action_history":"[1,0]","mutagen_history":"[0,1]","location_rts":"[2064,864]","trial_type":"fractal-mutation","trial_index":93,"time_elapsed":1228412,"internal_node_id":"0.0-5.0-39.0"},{"group":"hexagon_tri","fractal_assignment":["../images/pnk_blu.png","../images/gry_blk.png","../images/org_blu.png","../images/cyn_red.png","../images/blu_wht.png","../images/ylw_slt.png"],"mutagen_generator_assignment":[1,0],"goal":3,"start":4,"action_noise":0,"location_history":"[4,2,1,3]","action_history":"[1,0,0]","mutagen_history":"[0,1,1]","location_rts":"[3229,724,530]","trial_type":"fractal-mutation","trial_index":94,"time_elapsed":1239960,"internal_node_id":"0.0-5.0-40.0"},{"group":"hexagon_tri","fractal_assignment":["../images/pnk_blu.png","../images/gry_blk.png","../images/org_blu.png","../images/cyn_red.png","../images/blu_wht.png","../images/ylw_slt.png"],"mutagen_generator_assignment":[1,0],"goal":2,"start":3,"action_noise":0,"location_history":"[3,4,2]","action_history":"[1,1]","mutagen_history":"[0,0]","location_rts":"[1194,1267]","trial_type":"fractal-mutation","trial_index":95,"time_elapsed":1248439,"internal_node_id":"0.0-5.0-41.0"},{"group":"hexagon_tri","fractal_assignment":["../images/pnk_blu.png","../images/gry_blk.png","../images/org_blu.png","../images/cyn_red.png","../images/blu_wht.png","../images/ylw_slt.png"],"mutagen_generator_assignment":[1,0],"goal":0,"start":2,"action_noise":0,"location_history":"[2,1,5,4,2,3,2,1,3,4,2,3,2,3,4,0]","action_history":"[0,1,0,1,1,0,0,0,1,1,1,0,1,1,0]","mutagen_history":"[1,0,1,0,0,1,1,1,0,0,0,1,0,0,1]","location_rts":"[1188,483,903,561,887,739,412,387,391,827,661,687,574,746,301]","trial_type":"fractal-mutation","trial_index":96,"time_elapsed":1277462,"internal_node_id":"0.0-5.0-42.0"},{"group":"hexagon_tri","fractal_assignment":["../images/pnk_blu.png","../images/gry_blk.png","../images/org_blu.png","../images/cyn_red.png","../images/blu_wht.png","../images/ylw_slt.png"],"mutagen_generator_assignment":[1,0],"goal":5,"start":0,"action_noise":0,"location_history":"[0,5]","action_history":"[0]","mutagen_history":"[1]","location_rts":"[1163]","trial_type":"fractal-mutation","trial_index":97,"time_elapsed":1283647,"internal_node_id":"0.0-5.0-43.0"},{"group":"hexagon_tri","fractal_assignment":["../images/pnk_blu.png","../images/gry_blk.png","../images/org_blu.png","../images/cyn_red.png","../images/blu_wht.png","../images/ylw_slt.png"],"mutagen_generator_assignment":[1,0],"goal":0,"start":5,"action_noise":0,"location_history":"[5,4,2,3,4,0]","action_history":"[0,1,1,1,0]","mutagen_history":"[1,0,0,0,1]","location_rts":"[1291,624,398,449,474]","trial_type":"fractal-mutation","trial_index":98,"time_elapsed":1295956,"internal_node_id":"0.0-5.0-44.0"},{"group":"hexagon_tri","fractal_assignment":["../images/pnk_blu.png","../images/gry_blk.png","../images/org_blu.png","../images/cyn_red.png","../images/blu_wht.png","../images/ylw_slt.png"],"mutagen_generator_assignment":[1,0],"goal":2,"start":0,"action_noise":0,"location_history":"[0,1,3,2]","action_history":"[1,0,0]","mutagen_history":"[0,1,1]","location_rts":"[1375,790,651]","trial_type":"fractal-mutation","trial_index":99,"time_elapsed":1305846,"internal_node_id":"0.0-5.0-45.0"},{"group":"hexagon_tri","fractal_assignment":["../images/pnk_blu.png","../images/gry_blk.png","../images/org_blu.png","../images/cyn_red.png","../images/blu_wht.png","../images/ylw_slt.png"],"mutagen_generator_assignment":[1,0],"goal":4,"start":2,"action_noise":0,"location_history":"[2,3,4]","action_history":"[1,1]","mutagen_history":"[0,0]","location_rts":"[1612,1094]","trial_type":"fractal-mutation","trial_index":100,"time_elapsed":1314574,"internal_node_id":"0.0-5.0-46.0"},{"group":"hexagon_tri","fractal_assignment":["../images/pnk_blu.png","../images/gry_blk.png","../images/org_blu.png","../images/cyn_red.png","../images/blu_wht.png","../images/ylw_slt.png"],"mutagen_generator_assignment":[1,0],"goal":1,"start":4,"action_noise":0,"location_history":"[4,2,1]","action_history":"[1,0]","mutagen_history":"[0,1]","location_rts":"[981,578]","trial_type":"fractal-mutation","trial_index":101,"time_elapsed":1322182,"internal_node_id":"0.0-5.0-47.0"},{"group":"hexagon_tri","fractal_assignment":["../images/pnk_blu.png","../images/gry_blk.png","../images/org_blu.png","../images/cyn_red.png","../images/blu_wht.png","../images/ylw_slt.png"],"mutagen_generator_assignment":[1,0],"goal":5,"start":1,"action_noise":0,"location_history":"[1,3,4,2,1,3,4,2,3,2,1,5]","action_history":"[0,1,1,0,0,1,1,1,0,0,1]","mutagen_history":"[1,0,0,1,1,0,0,0,1,1,0]","location_rts":"[965,630,946,605,695,598,418,1227,362,487,589]","trial_type":"fractal-mutation","trial_index":102,"time_elapsed":1344912,"internal_node_id":"0.0-5.0-48.0"},{"group":"hexagon_tri","fractal_assignment":["../images/pnk_blu.png","../images/gry_blk.png","../images/org_blu.png","../images/cyn_red.png","../images/blu_wht.png","../images/ylw_slt.png"],"mutagen_generator_assignment":[1,0],"goal":3,"start":5,"action_noise":0,"location_history":"[5,0,1,5,4,0,5,4,2,3]","action_history":"[1,1,1,0,0,0,0,1,1]","mutagen_history":"[0,0,0,1,1,1,1,0,0]","location_rts":"[1587,792,582,357,361,649,624,376,552]","trial_type":"fractal-mutation","trial_index":103,"time_elapsed":1363944,"internal_node_id":"0.0-5.0-49.0"},{"view_history":"[{\"page_index\":0,\"viewing_time\":5654}]","rt":5654,"trial_type":"instructions","trial_index":104,"time_elapsed":1370599,"internal_node_id":"0.0-6.0"},{"rt":1413,"responses":"{\"Q0\":\"\"}","trial_type":"survey-text","trial_index":105,"time_elapsed":1373016,"internal_node_id":"0.0-7.0"}]