[{"view_history":"[{\"page_index\":0,\"viewing_time\":2282},{\"page_index\":1,\"viewing_time\":1016929}]","rt":1019211,"trial_type":"instructions","trial_index":0,"time_elapsed":1019211,"internal_node_id":"0.0-0.0"},{"view_history":"[{\"page_index\":0,\"viewing_time\":16807},{\"page_index\":1,\"viewing_time\":2182}]","rt":18989,"trial_type":"instructions","trial_index":1,"time_elapsed":1039202,"internal_node_id":"0.0-1.0"},{"group":"hexagon_tri","room_assignment":["red","grey","green","purple","yellow","blue"],"door_color_assignment":["white","black"],"door_generator_assignment":[0,1],"goal":3,"start":5,"action_noise":0,"location_history":"[5,0,5,0,5,4,0,5,4,2,3]","action_history":"[1,0,1,0,0,0,0,0,1,1]","door_history":"[1,0,1,0,0,0,0,0,1,1]","location_rts":"[4533,394,988,572,1610,3198,731,429,1720,631]","trial_type":"two-door-navigation","trial_index":2,"time_elapsed":1068659,"internal_node_id":"0.0-2.0-0.0"},{"group":"hexagon_tri","room_assignment":["red","grey","green","purple","yellow","blue"],"door_color_assignment":["white","black"],"door_generator_assignment":[0,1],"goal":1,"start":3,"action_noise":0,"location_history":"[3,4,0,5,4,2,3,4,0,5,0,1]","action_history":"[1,0,0,0,1,1,1,0,0,1,1]","door_history":"[1,0,0,0,1,1,1,0,0,1,1]","location_rts":"[26130,408,380,419,342,576,332,474,648,428,702]","trial_type":"two-door-navigation","trial_index":3,"time_elapsed":1115182,"internal_node_id":"0.0-2.0-1.0"},{"group":"hexagon_tri","room_assignment":["red","grey","green","purple","yellow","blue"],"door_color_assignment":["white","black"],"door_generator_assignment":[0,1],"goal":0,"start":1,"action_noise":0,"location_history":"[1,5,4,0]","action_history":"[1,0,0]","door_history":"[1,0,0]","location_rts":"[6657,255,270]","trial_type":"two-door-navigation","trial_index":4,"time_elapsed":1129537,"internal_node_id":"0.0-2.0-2.0"},{"group":"hexagon_tri","room_assignment":["red","grey","green","purple","yellow","blue"],"door_color_assignment":["white","black"],"door_generator_assignment":[0,1],"goal":3,"start":0,"action_noise":0,"location_history":"[0,1,3]","action_history":"[1,0]","door_history":"[1,0]","location_rts":"[15035,395]","trial_type":"two-door-navigation","trial_index":5,"time_elapsed":1151096,"internal_node_id":"0.0-2.0-3.0"},{"group":"hexagon_tri","room_assignment":["red","grey","green","purple","yellow","blue"],"door_color_assignment":["white","black"],"door_generator_assignment":[0,1],"goal":4,"start":3,"action_noise":0,"location_history":"[3,4]","action_history":"[1]","door_history":"[1]","location_rts":"[4038]","trial_type":"two-door-navigation","trial_index":6,"time_elapsed":1160199,"internal_node_id":"0.0-2.0-4.0"},{"group":"hexagon_tri","room_assignment":["red","grey","green","purple","yellow","blue"],"door_color_assignment":["white","black"],"door_generator_assignment":[0,1],"goal":2,"start":4,"action_noise":0,"location_history":"[4,0,1,3,4,0,5,0,1,5,4,2]","action_history":"[0,1,0,1,0,0,1,1,1,0,1]","door_history":"[0,1,0,1,0,0,1,1,1,0,1]","location_rts":"[1320,380,355,260,490,365,281,348,370,408,608]","trial_type":"two-door-navigation","trial_index":7,"time_elapsed":1181079,"internal_node_id":"0.0-2.0-5.0"},{"group":"hexagon_tri","room_assignment":["red","grey","green","purple","yellow","blue"],"door_color_assignment":["white","black"],"door_generator_assignment":[0,1],"goal":1,"start":2,"action_noise":0,"location_history":"[2,1]","action_history":"[0]","door_history":"[0]","location_rts":"[12604]","trial_type":"two-door-navigation","trial_index":8,"time_elapsed":1198759,"internal_node_id":"0.0-2.0-6.0"},{"group":"hexagon_tri","room_assignment":["red","grey","green","purple","yellow","blue"],"door_color_assignment":["white","black"],"door_generator_assignment":[0,1],"goal":5,"start":1,"action_noise":0,"location_history":"[1,5]","action_history":"[1]","door_history":"[1]","location_rts":"[13269]","trial_type":"two-door-navigation","trial_index":9,"time_elapsed":1217093,"internal_node_id":"0.0-2.0-7.0"},{"group":"hexagon_tri","room_assignment":["red","grey","green","purple","yellow","blue"],"door_color_assignment":["white","black"],"door_generator_assignment":[0,1],"goal":4,"start":5,"action_noise":0,"location_history":"[5,0,5,0,1,5,4]","action_history":"[1,0,1,1,1,0]","door_history":"[1,0,1,1,1,0]","location_rts":"[16035,708,312,325,480,1333]","trial_type":"two-door-navigation","trial_index":10,"time_elapsed":1246639,"internal_node_id":"0.0-2.0-8.0"},{"group":"hexagon_tri","room_assignment":["red","grey","green","purple","yellow","blue"],"door_color_assignment":["white","black"],"door_generator_assignment":[0,1],"goal":2,"start":4,"action_noise":0,"location_history":"[4,0,5,0,5,0,1,3,4,0,1,5,4,0,1,3,2]","action_history":"[0,0,1,0,1,1,0,1,0,1,1,0,0,1,0,0]","door_history":"[0,0,1,0,1,1,0,1,0,1,1,0,0,1,0,0]","location_rts":"[10461,1688,616,379,507,1354,657,1337,609,1494,1241,854,813,389,356,360]","trial_type":"two-door-navigation","trial_index":11,"time_elapsed":1290687,"internal_node_id":"0.0-2.0-9.0"},{"group":"hexagon_tri","room_assignment":["red","grey","green","purple","yellow","blue"],"door_color_assignment":["white","black"],"door_generator_assignment":[0,1],"goal":0,"start":2,"action_noise":0,"location_history":"[2,3,2,1,5,4,2,3,2,3,2,1,3,4,0]","action_history":"[1,0,0,1,0,1,1,0,1,0,0,0,1,0]","door_history":"[1,0,0,1,0,1,1,0,1,0,0,0,1,0]","location_rts":"[7044,470,1281,666,580,464,1329,325,291,338,863,483,388,419]","trial_type":"two-door-navigation","trial_index":12,"time_elapsed":1324451,"internal_node_id":"0.0-2.0-10.0"},{"group":"hexagon_tri","room_assignment":["red","grey","green","purple","yellow","blue"],"door_color_assignment":["white","black"],"door_generator_assignment":[0,1],"goal":1,"start":0,"action_noise":0,"location_history":"[0,1]","action_history":"[1]","door_history":"[1]","location_rts":"[3789]","trial_type":"two-door-navigation","trial_index":13,"time_elapsed":1333304,"internal_node_id":"0.0-2.0-11.0"},{"group":"hexagon_tri","room_assignment":["red","grey","green","purple","yellow","blue"],"door_color_assignment":["white","black"],"door_generator_assignment":[0,1],"goal":3,"start":1,"action_noise":0,"location_history":"[1,3]","action_history":"[0]","door_history":"[0]","location_rts":"[14854]","trial_type":"two-door-navigation","trial_index":14,"time_elapsed":1353217,"internal_node_id":"0.0-2.0-12.0"},{"group":"hexagon_tri","room_assignment":["red","grey","green","purple","yellow","blue"],"door_color_assignment":["white","black"],"door_generator_assignment":[0,1],"goal":5,"start":3,"action_noise":0,"location_history":"[3,4,0,5]","action_history":"[1,0,0]","door_history":"[1,0,0]","location_rts":"[19338,616,1701]","trial_type":"two-door-navigation","trial_index":15,"time_elapsed":1382052,"internal_node_id":"0.0-2.0-13.0"},{"group":"hexagon_tri","room_assignment":["red","grey","green","purple","yellow","blue"],"door_color_assignment":["white","black"],"door_generator_assignment":[0,1],"goal":4,"start":5,"action_noise":0,"location_history":"[5,4]","action_history":"[0]","door_history":"[0]","location_rts":"[16693]","trial_type":"two-door-navigation","trial_index":16,"time_elapsed":1403812,"internal_node_id":"0.0-2.0-14.0"},{"group":"hexagon_tri","room_assignment":["red","grey","green","purple","yellow","blue"],"door_color_assignment":["white","black"],"door_generator_assignment":[0,1],"goal":0,"start":4,"action_noise":0,"location_history":"[4,2,1,5,4,2,3,2,1,5,4,2,3,4,0]","action_history":"[1,0,1,0,1,1,0,0,1,0,1,1,1,0]","door_history":"[1,0,1,0,1,1,0,0,1,0,1,1,1,0]","location_rts":"[11282,350,324,336,371,308,243,388,410,353,256,522,314,232]","trial_type":"two-door-navigation","trial_index":17,"time_elapsed":1438310,"internal_node_id":"0.0-2.0-15.0"},{"group":"hexagon_tri","room_assignment":["red","grey","green","purple","yellow","blue"],"door_color_assignment":["white","black"],"door_generator_assignment":[0,1],"goal":3,"start":0,"action_noise":0,"location_history":"[0,1,3]","action_history":"[1,0]","door_history":"[1,0]","location_rts":"[6918,307]","trial_type":"two-door-navigation","trial_index":18,"time_elapsed":1451659,"internal_node_id":"0.0-2.0-16.0"},{"group":"hexagon_tri","room_assignment":["red","grey","green","purple","yellow","blue"],"door_color_assignment":["white","black"],"door_generator_assignment":[0,1],"goal":1,"start":3,"action_noise":0,"location_history":"[3,4,0,1]","action_history":"[1,0,1]","door_history":"[1,0,1]","location_rts":"[7240,366,383]","trial_type":"two-door-navigation","trial_index":19,"time_elapsed":1466847,"internal_node_id":"0.0-2.0-17.0"},{"group":"hexagon_tri","room_assignment":["red","grey","green","purple","yellow","blue"],"door_color_assignment":["white","black"],"door_generator_assignment":[0,1],"goal":5,"start":1,"action_noise":0,"location_history":"[1,5]","action_history":"[1]","door_history":"[1]","location_rts":"[15259]","trial_type":"two-door-navigation","trial_index":20,"time_elapsed":1487170,"internal_node_id":"0.0-2.0-18.0"},{"group":"hexagon_tri","room_assignment":["red","grey","green","purple","yellow","blue"],"door_color_assignment":["white","black"],"door_generator_assignment":[0,1],"goal":2,"start":5,"action_noise":0,"location_history":"[5,4,2]","action_history":"[0,1]","door_history":"[0,1]","location_rts":"[35204,247]","trial_type":"two-door-navigation","trial_index":21,"time_elapsed":1528744,"internal_node_id":"0.0-2.0-19.0"},{"group":"hexagon_tri","room_assignment":["red","grey","green","purple","yellow","blue"],"door_color_assignment":["white","black"],"door_generator_assignment":[0,1],"goal":4,"start":2,"action_noise":0,"location_history":"[2,1,5,4]","action_history":"[0,1,0]","door_history":"[0,1,0]","location_rts":"[8198,372,632]","trial_type":"two-door-navigation","trial_index":22,"time_elapsed":1545130,"internal_node_id":"0.0-2.0-20.0"},{"group":"hexagon_tri","room_assignment":["red","grey","green","purple","yellow","blue"],"door_color_assignment":["white","black"],"door_generator_assignment":[0,1],"goal":1,"start":4,"action_noise":0,"location_history":"[4,2,1]","action_history":"[1,0]","door_history":"[1,0]","location_rts":"[17187,379]","trial_type":"two-door-navigation","trial_index":23,"time_elapsed":1568823,"internal_node_id":"0.0-2.0-21.0"},{"group":"hexagon_tri","room_assignment":["red","grey","green","purple","yellow","blue"],"door_color_assignment":["white","black"],"door_generator_assignment":[0,1],"goal":3,"start":1,"action_noise":0,"location_history":"[1,5,4,0,1,3]","action_history":"[1,0,0,1,0]","door_history":"[1,0,0,1,0]","location_rts":"[9778,421,763,290,405]","trial_type":"two-door-navigation","trial_index":24,"time_elapsed":1589785,"internal_node_id":"0.0-2.0-22.0"},{"group":"hexagon_tri","room_assignment":["red","grey","green","purple","yellow","blue"],"door_color_assignment":["white","black"],"door_generator_assignment":[0,1],"goal":2,"start":3,"action_noise":0,"location_history":"[3,4,0,1,3,2]","action_history":"[1,0,1,0,0]","door_history":"[1,0,1,0,0]","location_rts":"[2789,545,379,390,272]","trial_type":"two-door-navigation","trial_index":25,"time_elapsed":1603475,"internal_node_id":"0.0-2.0-23.0"},{"group":"hexagon_tri","room_assignment":["red","grey","green","purple","yellow","blue"],"door_color_assignment":["white","black"],"door_generator_assignment":[0,1],"goal":0,"start":2,"action_noise":0,"location_history":"[2,3,2,3,2,3,4,0]","action_history":"[1,0,1,0,1,1,0]","door_history":"[1,0,1,0,1,1,0]","location_rts":"[27176,376,500,351,357,416,957]","trial_type":"two-door-navigation","trial_index":26,"time_elapsed":1645054,"internal_node_id":"0.0-2.0-24.0"},{"group":"hexagon_tri","room_assignment":["red","grey","green","purple","yellow","blue"],"door_color_assignment":["white","black"],"door_generator_assignment":[0,1],"goal":5,"start":0,"action_noise":0,"location_history":"[0,1,3,4,0,5]","action_history":"[1,0,1,0,0]","door_history":"[1,0,1,0,0]","location_rts":"[4076,368,298,412,1066]","trial_type":"two-door-navigation","trial_index":27,"time_elapsed":1660580,"internal_node_id":"0.0-2.0-25.0"},{"group":"hexagon_tri","room_assignment":["red","grey","green","purple","yellow","blue"],"door_color_assignment":["white","black"],"door_generator_assignment":[0,1],"goal":2,"start":5,"action_noise":0,"location_history":"[5,4,2]","action_history":"[0,1]","door_history":"[0,1]","location_rts":"[932,271]","trial_type":"two-door-navigation","trial_index":28,"time_elapsed":1667920,"internal_node_id":"0.0-2.0-26.0"},{"group":"hexagon_tri","room_assignment":["red","grey","green","purple","yellow","blue"],"door_color_assignment":["white","black"],"door_generator_assignment":[0,1],"goal":3,"start":2,"action_noise":0,"location_history":"[2,1,5,4,2,3]","action_history":"[0,1,0,1,1]","door_history":"[0,1,0,1,1]","location_rts":"[4486,336,301,429,325]","trial_type":"two-door-navigation","trial_index":29,"time_elapsed":1683097,"internal_node_id":"0.0-2.0-27.0"},{"group":"hexagon_tri","room_assignment":["red","grey","green","purple","yellow","blue"],"door_color_assignment":["white","black"],"door_generator_assignment":[0,1],"goal":0,"start":3,"action_noise":0,"location_history":"[3,4,2,1,5,4,0]","action_history":"[1,1,0,1,0,0]","door_history":"[1,1,0,1,0,0]","location_rts":"[36116,6203,756,433,336,384]","trial_type":"two-door-navigation","trial_index":30,"time_elapsed":1737685,"internal_node_id":"0.0-2.0-28.0"},{"group":"hexagon_tri","room_assignment":["red","grey","green","purple","yellow","blue"],"door_color_assignment":["white","black"],"door_generator_assignment":[0,1],"goal":1,"start":0,"action_noise":0,"location_history":"[0,5,0,1]","action_history":"[0,1,1]","door_history":"[0,1,1]","location_rts":"[6787,350,334]","trial_type":"two-door-navigation","trial_index":31,"time_elapsed":1752327,"internal_node_id":"0.0-2.0-29.0"},{"group":"hexagon_tri","room_assignment":["red","grey","green","purple","yellow","blue"],"door_color_assignment":["white","black"],"door_generator_assignment":[0,1],"goal":4,"start":1,"action_noise":0,"location_history":"[1,3,4]","action_history":"[0,1]","door_history":"[0,1]","location_rts":"[10104,389]","trial_type":"two-door-navigation","trial_index":32,"time_elapsed":1768951,"internal_node_id":"0.0-2.0-30.0"},{"group":"hexagon_tri","room_assignment":["red","grey","green","purple","yellow","blue"],"door_color_assignment":["white","black"],"door_generator_assignment":[0,1],"goal":5,"start":4,"action_noise":0,"location_history":"[4,0,1,5]","action_history":"[0,1,1]","door_history":"[0,1,1]","location_rts":"[1863,359,23340]","trial_type":"two-door-navigation","trial_index":33,"time_elapsed":1801697,"internal_node_id":"0.0-2.0-31.0"},{"group":"hexagon_tri","room_assignment":["red","grey","green","purple","yellow","blue"],"door_color_assignment":["white","black"],"door_generator_assignment":[0,1],"goal":0,"start":5,"action_noise":0,"location_history":"[5,4,2,1,5,0]","action_history":"[0,1,0,1,1]","door_history":"[0,1,0,1,1]","location_rts":"[33734,356,318,438,398]","trial_type":"two-door-navigation","trial_index":34,"time_elapsed":1846237,"internal_node_id":"0.0-2.0-32.0"},{"group":"hexagon_tri","room_assignment":["red","grey","green","purple","yellow","blue"],"door_color_assignment":["white","black"],"door_generator_assignment":[0,1],"goal":3,"start":0,"action_noise":0,"location_history":"[0,1,3]","action_history":"[1,0]","door_history":"[1,0]","location_rts":"[1638,385]","trial_type":"two-door-navigation","trial_index":35,"time_elapsed":1854375,"internal_node_id":"0.0-2.0-33.0"},{"group":"hexagon_tri","room_assignment":["red","grey","green","purple","yellow","blue"],"door_color_assignment":["white","black"],"door_generator_assignment":[0,1],"goal":1,"start":3,"action_noise":0,"location_history":"[3,4,0,1]","action_history":"[1,0,1]","door_history":"[1,0,1]","location_rts":"[5092,351,2156]","trial_type":"two-door-navigation","trial_index":36,"time_elapsed":1869162,"internal_node_id":"0.0-2.0-34.0"},{"group":"hexagon_tri","room_assignment":["red","grey","green","purple","yellow","blue"],"door_color_assignment":["white","black"],"door_generator_assignment":[0,1],"goal":2,"start":1,"action_noise":0,"location_history":"[1,3,4,2]","action_history":"[0,1,1]","door_history":"[0,1,1]","location_rts":"[5067,615,685]","trial_type":"two-door-navigation","trial_index":37,"time_elapsed":1882709,"internal_node_id":"0.0-2.0-35.0"},{"group":"hexagon_tri","room_assignment":["red","grey","green","purple","yellow","blue"],"door_color_assignment":["white","black"],"door_generator_assignment":[0,1],"goal":4,"start":2,"action_noise":0,"location_history":"[2,1,5,4]","action_history":"[0,1,0]","door_history":"[0,1,0]","location_rts":"[6190,531,391]","trial_type":"two-door-navigation","trial_index":38,"time_elapsed":1896997,"internal_node_id":"0.0-2.0-36.0"},{"group":"hexagon_tri","room_assignment":["red","grey","green","purple","yellow","blue"],"door_color_assignment":["white","black"],"door_generator_assignment":[0,1],"goal":5,"start":4,"action_noise":0,"location_history":"[4,2,1,3,4,2,1,5]","action_history":"[1,0,0,1,1,0,1]","door_history":"[1,0,0,1,1,0,1]","location_rts":"[1345,891,436,283,432,944,402]","trial_type":"two-door-navigation","trial_index":39,"time_elapsed":1913124,"internal_node_id":"0.0-2.0-37.0"},{"group":"hexagon_tri","room_assignment":["red","grey","green","purple","yellow","blue"],"door_color_assignment":["white","black"],"door_generator_assignment":[0,1],"goal":1,"start":5,"action_noise":0,"location_history":"[5,4,2,1]","action_history":"[0,1,0]","door_history":"[0,1,0]","location_rts":"[658,393,806]","trial_type":"two-door-navigation","trial_index":40,"time_elapsed":1922170,"internal_node_id":"0.0-2.0-38.0"},{"group":"hexagon_tri","room_assignment":["red","grey","green","purple","yellow","blue"],"door_color_assignment":["white","black"],"door_generator_assignment":[0,1],"goal":4,"start":1,"action_noise":0,"location_history":"[1,3,4]","action_history":"[0,1]","door_history":"[0,1]","location_rts":"[2543,628]","trial_type":"two-door-navigation","trial_index":41,"time_elapsed":1931467,"internal_node_id":"0.0-2.0-39.0"},{"group":"hexagon_tri","room_assignment":["red","grey","green","purple","yellow","blue"],"door_color_assignment":["white","black"],"door_generator_assignment":[0,1],"goal":3,"start":4,"action_noise":0,"location_history":"[4,2,1,5,0,5,4,0,1,3]","action_history":"[1,0,1,1,0,0,0,1,0]","door_history":"[1,0,1,1,0,0,0,1,0]","location_rts":"[11916,371,487,790,348,279,403,286,401]","trial_type":"two-door-navigation","trial_index":42,"time_elapsed":1960279,"internal_node_id":"0.0-2.0-40.0"},{"group":"hexagon_tri","room_assignment":["red","grey","green","purple","yellow","blue"],"door_color_assignment":["white","black"],"door_generator_assignment":[0,1],"goal":2,"start":3,"action_noise":0,"location_history":"[3,4,0,1,5,4,2]","action_history":"[1,0,1,1,0,1]","door_history":"[1,0,1,1,0,1]","location_rts":"[1365,284,389,5259,310,302]","trial_type":"two-door-navigation","trial_index":43,"time_elapsed":1978545,"internal_node_id":"0.0-2.0-41.0"},{"group":"hexagon_tri","room_assignment":["red","grey","green","purple","yellow","blue"],"door_color_assignment":["white","black"],"door_generator_assignment":[0,1],"goal":0,"start":2,"action_noise":0,"location_history":"[2,1,5,4,2,3,4,0]","action_history":"[0,1,0,1,1,1,0]","door_history":"[0,1,0,1,1,1,0]","location_rts":"[7810,329,609,346,1608,8955,683]","trial_type":"two-door-navigation","trial_index":44,"time_elapsed":2010319,"internal_node_id":"0.0-2.0-42.0"},{"group":"hexagon_tri","room_assignment":["red","grey","green","purple","yellow","blue"],"door_color_assignment":["white","black"],"door_generator_assignment":[0,1],"goal":5,"start":0,"action_noise":0,"location_history":"[0,1,3,4,0,5]","action_history":"[1,0,1,0,0]","door_history":"[1,0,1,0,0]","location_rts":"[7831,469,484,244,244]","trial_type":"two-door-navigation","trial_index":45,"time_elapsed":2028896,"internal_node_id":"0.0-2.0-43.0"},{"group":"hexagon_tri","room_assignment":["red","grey","green","purple","yellow","blue"],"door_color_assignment":["white","black"],"door_generator_assignment":[0,1],"goal":0,"start":5,"action_noise":0,"location_history":"[5,4,2,1,5,0]","action_history":"[0,1,0,1,1]","door_history":"[0,1,0,1,1]","location_rts":"[14849,293,670,326,1314]","trial_type":"two-door-navigation","trial_index":46,"time_elapsed":2055659,"internal_node_id":"0.0-2.0-44.0"},{"group":"hexagon_tri","room_assignment":["red","grey","green","purple","yellow","blue"],"door_color_assignment":["white","black"],"door_generator_assignment":[0,1],"goal":2,"start":0,"action_noise":0,"location_history":"[0,5,0,5,0,1,3,2]","action_history":"[0,1,0,1,1,0,0]","door_history":"[0,1,0,1,1,0,0]","location_rts":"[6290,2641,1112,505,1481,538,1421]","trial_type":"two-door-navigation","trial_index":47,"time_elapsed":2081057,"internal_node_id":"0.0-2.0-45.0"},{"group":"hexagon_tri","room_assignment":["red","grey","green","purple","yellow","blue"],"door_color_assignment":["white","black"],"door_generator_assignment":[0,1],"goal":4,"start":2,"action_noise":0,"location_history":"[2,1,3,2,1,3,4]","action_history":"[0,0,0,0,0,1]","door_history":"[0,0,0,0,0,1]","location_rts":"[798,4651,937,675,404,4685]","trial_type":"two-door-navigation","trial_index":48,"time_elapsed":2103579,"internal_node_id":"0.0-2.0-46.0"},{"group":"hexagon_tri","room_assignment":["red","grey","green","purple","yellow","blue"],"door_color_assignment":["white","black"],"door_generator_assignment":[0,1],"goal":1,"start":4,"action_noise":0,"location_history":"[4,2,1]","action_history":"[1,0]","door_history":"[1,0]","location_rts":"[969,1409]","trial_type":"two-door-navigation","trial_index":49,"time_elapsed":2112063,"internal_node_id":"0.0-2.0-47.0"},{"group":"hexagon_tri","room_assignment":["red","grey","green","purple","yellow","blue"],"door_color_assignment":["white","black"],"door_generator_assignment":[0,1],"goal":5,"start":1,"action_noise":0,"location_history":"[1,3,2,3,2,3,2,3,4,2,3,4,0,5]","action_history":"[0,0,1,0,1,0,1,1,1,1,1,0,0]","door_history":"[0,0,1,0,1,0,1,1,1,1,1,0,0]","location_rts":"[941,2323,10458,5285,880,4169,370,410,1322,262,405,141,906]","trial_type":"two-door-navigation","trial_index":50,"time_elapsed":2157715,"internal_node_id":"0.0-2.0-48.0"},{"group":"hexagon_tri","room_assignment":["red","grey","green","purple","yellow","blue"],"door_color_assignment":["white","black"],"door_generator_assignment":[0,1],"goal":3,"start":5,"action_noise":0,"location_history":"[5,4,0,5,4,2,1,5,4,0,1,3]","action_history":"[0,0,0,0,1,0,1,0,0,1,0]","door_history":"[0,0,0,0,1,0,1,0,0,1,0]","location_rts":"[3793,683,440,2009,484,103,3675,1442,965,774,1310]","trial_type":"two-door-navigation","trial_index":51,"time_elapsed":2189554,"internal_node_id":"0.0-2.0-49.0"},{"view_history":"[{\"page_index\":0,\"viewing_time\":3143}]","rt":3143,"trial_type":"instructions","trial_index":52,"time_elapsed":2193698,"internal_node_id":"0.0-3.0"},{"view_history":"[{\"page_index\":0,\"viewing_time\":626},{\"page_index\":1,\"viewing_time\":1281}]","rt":1911,"trial_type":"instructions","trial_index":53,"time_elapsed":2196613,"internal_node_id":"0.0-4.0"},{"group":"hexagon_tri","fractal_assignment":["../images/gry_blk.png","../images/org_blu.png","../images/ylw_slt.png","../images/pnk_blu.png","../images/blu_wht.png","../images/cyn_red.png"],"mutagen_generator_assignment":[1,0],"goal":3,"start":5,"action_noise":0,"location_history":"[5,0,1,5,0,5,4,2,1,5,0,5,0,1,3]","action_history":"[1,1,1,1,0,0,1,0,1,1,0,1,1,0]","mutagen_history":"[0,0,0,0,1,1,0,1,0,0,1,0,0,1]","location_rts":"[3005,84,0,41,12700,389,260,406,336,91,168,96,4,237]","trial_type":"fractal-mutation","trial_index":54,"time_elapsed":2233541,"internal_node_id":"0.0-5.0-0.0"},{"group":"hexagon_tri","fractal_assignment":["../images/gry_blk.png","../images/org_blu.png","../images/ylw_slt.png","../images/pnk_blu.png","../images/blu_wht.png","../images/cyn_red.png"],"mutagen_generator_assignment":[1,0],"goal":1,"start":3,"action_noise":0,"location_history":"[3,4,2,3,4,2,1]","action_history":"[1,1,1,1,1,0]","mutagen_history":"[0,0,0,0,0,1]","location_rts":"[291,81,18,15,155,48]","trial_type":"fractal-mutation","trial_index":55,"time_elapsed":2244592,"internal_node_id":"0.0-5.0-1.0"},{"group":"hexagon_tri","fractal_assignment":["../images/gry_blk.png","../images/org_blu.png","../images/ylw_slt.png","../images/pnk_blu.png","../images/blu_wht.png","../images/cyn_red.png"],"mutagen_generator_assignment":[1,0],"goal":0,"start":1,"action_noise":0,"location_history":"[1,5,0]","action_history":"[1,1]","mutagen_history":"[0,0]","location_rts":"[350,15]","trial_type":"fractal-mutation","trial_index":56,"time_elapsed":2251100,"internal_node_id":"0.0-5.0-2.0"},{"group":"hexagon_tri","fractal_assignment":["../images/gry_blk.png","../images/org_blu.png","../images/ylw_slt.png","../images/pnk_blu.png","../images/blu_wht.png","../images/cyn_red.png"],"mutagen_generator_assignment":[1,0],"goal":3,"start":0,"action_noise":0,"location_history":"[0,5,0,1,5,4,2,3]","action_history":"[0,1,1,1,0,1,1]","mutagen_history":"[1,0,0,0,1,0,0]","location_rts":"[460,68,41,48,114,24,608]","trial_type":"fractal-mutation","trial_index":57,"time_elapsed":2263972,"internal_node_id":"0.0-5.0-3.0"},{"group":"hexagon_tri","fractal_assignment":["../images/gry_blk.png","../images/org_blu.png","../images/ylw_slt.png","../images/pnk_blu.png","../images/blu_wht.png","../images/cyn_red.png"],"mutagen_generator_assignment":[1,0],"goal":4,"start":3,"action_noise":0,"location_history":"[3,2,3,4]","action_history":"[0,1,1]","mutagen_history":"[1,0,0]","location_rts":"[92,45,120]","trial_type":"fractal-mutation","trial_index":58,"time_elapsed":2271433,"internal_node_id":"0.0-5.0-4.0"},{"group":"hexagon_tri","fractal_assignment":["../images/gry_blk.png","../images/org_blu.png","../images/ylw_slt.png","../images/pnk_blu.png","../images/blu_wht.png","../images/cyn_red.png"],"mutagen_generator_assignment":[1,0],"goal":2,"start":4,"action_noise":0,"location_history":"[4,2]","action_history":"[1]","mutagen_history":"[0]","location_rts":"[468]","trial_type":"fractal-mutation","trial_index":59,"time_elapsed":2276963,"internal_node_id":"0.0-5.0-5.0"},{"group":"hexagon_tri","fractal_assignment":["../images/gry_blk.png","../images/org_blu.png","../images/ylw_slt.png","../images/pnk_blu.png","../images/blu_wht.png","../images/cyn_red.png"],"mutagen_generator_assignment":[1,0],"goal":1,"start":2,"action_noise":0,"location_history":"[2,3,4,0,1]","action_history":"[1,1,0,1]","mutagen_history":"[0,0,1,0]","location_rts":"[568,63,70,28]","trial_type":"fractal-mutation","trial_index":60,"time_elapsed":2285988,"internal_node_id":"0.0-5.0-6.0"},{"group":"hexagon_tri","fractal_assignment":["../images/gry_blk.png","../images/org_blu.png","../images/ylw_slt.png","../images/pnk_blu.png","../images/blu_wht.png","../images/cyn_red.png"],"mutagen_generator_assignment":[1,0],"goal":5,"start":1,"action_noise":0,"location_history":"[1,3,4,0,5]","action_history":"[0,1,0,0]","mutagen_history":"[1,0,1,1]","location_rts":"[655,4,102,423]","trial_type":"fractal-mutation","trial_index":61,"time_elapsed":2295483,"internal_node_id":"0.0-5.0-7.0"},{"group":"hexagon_tri","fractal_assignment":["../images/gry_blk.png","../images/org_blu.png","../images/ylw_slt.png","../images/pnk_blu.png","../images/blu_wht.png","../images/cyn_red.png"],"mutagen_generator_assignment":[1,0],"goal":4,"start":5,"action_noise":0,"location_history":"[5,0,5,4]","action_history":"[1,0,0]","mutagen_history":"[0,1,1]","location_rts":"[883,104,100]","trial_type":"fractal-mutation","trial_index":62,"time_elapsed":2303807,"internal_node_id":"0.0-5.0-8.0"},{"group":"hexagon_tri","fractal_assignment":["../images/gry_blk.png","../images/org_blu.png","../images/ylw_slt.png","../images/pnk_blu.png","../images/blu_wht.png","../images/cyn_red.png"],"mutagen_generator_assignment":[1,0],"goal":2,"start":4,"action_noise":0,"location_history":"[4,2]","action_history":"[1]","mutagen_history":"[0]","location_rts":"[95]","trial_type":"fractal-mutation","trial_index":63,"time_elapsed":2308973,"internal_node_id":"0.0-5.0-9.0"},{"group":"hexagon_tri","fractal_assignment":["../images/gry_blk.png","../images/org_blu.png","../images/ylw_slt.png","../images/pnk_blu.png","../images/blu_wht.png","../images/cyn_red.png"],"mutagen_generator_assignment":[1,0],"goal":0,"start":2,"action_noise":0,"location_history":"[2,3,4,2,3,2,1,5,4,0]","action_history":"[1,1,1,1,0,0,1,0,0]","mutagen_history":"[0,0,0,0,1,1,0,1,1]","location_rts":"[845,56,25,130,144,166,20,164,195]","trial_type":"fractal-mutation","trial_index":64,"time_elapsed":2324340,"internal_node_id":"0.0-5.0-10.0"},{"group":"hexagon_tri","fractal_assignment":["../images/gry_blk.png","../images/org_blu.png","../images/ylw_slt.png","../images/pnk_blu.png","../images/blu_wht.png","../images/cyn_red.png"],"mutagen_generator_assignment":[1,0],"goal":1,"start":0,"action_noise":0,"location_history":"[0,1]","action_history":"[1]","mutagen_history":"[0]","location_rts":"[349]","trial_type":"fractal-mutation","trial_index":65,"time_elapsed":2329772,"internal_node_id":"0.0-5.0-11.0"},{"group":"hexagon_tri","fractal_assignment":["../images/gry_blk.png","../images/org_blu.png","../images/ylw_slt.png","../images/pnk_blu.png","../images/blu_wht.png","../images/cyn_red.png"],"mutagen_generator_assignment":[1,0],"goal":3,"start":1,"action_noise":0,"location_history":"[1,3]","action_history":"[0]","mutagen_history":"[1]","location_rts":"[56]","trial_type":"fractal-mutation","trial_index":66,"time_elapsed":2334909,"internal_node_id":"0.0-5.0-12.0"},{"group":"hexagon_tri","fractal_assignment":["../images/gry_blk.png","../images/org_blu.png","../images/ylw_slt.png","../images/pnk_blu.png","../images/blu_wht.png","../images/cyn_red.png"],"mutagen_generator_assignment":[1,0],"goal":5,"start":3,"action_noise":0,"location_history":"[3,2,1,5]","action_history":"[0,0,1]","mutagen_history":"[1,1,0]","location_rts":"[302,136,91]","trial_type":"fractal-mutation","trial_index":67,"time_elapsed":2342691,"internal_node_id":"0.0-5.0-13.0"},{"group":"hexagon_tri","fractal_assignment":["../images/gry_blk.png","../images/org_blu.png","../images/ylw_slt.png","../images/pnk_blu.png","../images/blu_wht.png","../images/cyn_red.png"],"mutagen_generator_assignment":[1,0],"goal":4,"start":5,"action_noise":0,"location_history":"[5,4]","action_history":"[0]","mutagen_history":"[1]","location_rts":"[52]","trial_type":"fractal-mutation","trial_index":68,"time_elapsed":2347819,"internal_node_id":"0.0-5.0-14.0"},{"group":"hexagon_tri","fractal_assignment":["../images/gry_blk.png","../images/org_blu.png","../images/ylw_slt.png","../images/pnk_blu.png","../images/blu_wht.png","../images/cyn_red.png"],"mutagen_generator_assignment":[1,0],"goal":0,"start":4,"action_noise":0,"location_history":"[4,0]","action_history":"[0]","mutagen_history":"[1]","location_rts":"[285]","trial_type":"fractal-mutation","trial_index":69,"time_elapsed":2353193,"internal_node_id":"0.0-5.0-15.0"},{"group":"hexagon_tri","fractal_assignment":["../images/gry_blk.png","../images/org_blu.png","../images/ylw_slt.png","../images/pnk_blu.png","../images/blu_wht.png","../images/cyn_red.png"],"mutagen_generator_assignment":[1,0],"goal":3,"start":0,"action_noise":0,"location_history":"[0,1,3]","action_history":"[1,0]","mutagen_history":"[0,1]","location_rts":"[28,208]","trial_type":"fractal-mutation","trial_index":70,"time_elapsed":2359569,"internal_node_id":"0.0-5.0-16.0"},{"group":"hexagon_tri","fractal_assignment":["../images/gry_blk.png","../images/org_blu.png","../images/ylw_slt.png","../images/pnk_blu.png","../images/blu_wht.png","../images/cyn_red.png"],"mutagen_generator_assignment":[1,0],"goal":1,"start":3,"action_noise":0,"location_history":"[3,2,1]","action_history":"[0,0]","mutagen_history":"[1,1]","location_rts":"[341,239]","trial_type":"fractal-mutation","trial_index":71,"time_elapsed":2366317,"internal_node_id":"0.0-5.0-17.0"},{"group":"hexagon_tri","fractal_assignment":["../images/gry_blk.png","../images/org_blu.png","../images/ylw_slt.png","../images/pnk_blu.png","../images/blu_wht.png","../images/cyn_red.png"],"mutagen_generator_assignment":[1,0],"goal":5,"start":1,"action_noise":0,"location_history":"[1,5]","action_history":"[1]","mutagen_history":"[0]","location_rts":"[379]","trial_type":"fractal-mutation","trial_index":72,"time_elapsed":2371766,"internal_node_id":"0.0-5.0-18.0"},{"group":"hexagon_tri","fractal_assignment":["../images/gry_blk.png","../images/org_blu.png","../images/ylw_slt.png","../images/pnk_blu.png","../images/blu_wht.png","../images/cyn_red.png"],"mutagen_generator_assignment":[1,0],"goal":2,"start":5,"action_noise":0,"location_history":"[5,0,5,0,5,0,5,0,5,4,2]","action_history":"[1,0,1,0,1,0,1,0,0,1]","mutagen_history":"[0,1,0,1,0,1,0,1,1,0]","location_rts":"[504,68,28,168,48,229,36,36,24,333]","trial_type":"fractal-mutation","trial_index":73,"time_elapsed":2387920,"internal_node_id":"0.0-5.0-19.0"},{"group":"hexagon_tri","fractal_assignment":["../images/gry_blk.png","../images/org_blu.png","../images/ylw_slt.png","../images/pnk_blu.png","../images/blu_wht.png","../images/cyn_red.png"],"mutagen_generator_assignment":[1,0],"goal":4,"start":2,"action_noise":0,"location_history":"[2,3,2,3,4]","action_history":"[1,0,1,1]","mutagen_history":"[0,1,0,0]","location_rts":"[745,26,7,130]","trial_type":"fractal-mutation","trial_index":74,"time_elapsed":2397096,"internal_node_id":"0.0-5.0-20.0"},{"group":"hexagon_tri","fractal_assignment":["../images/gry_blk.png","../images/org_blu.png","../images/ylw_slt.png","../images/pnk_blu.png","../images/blu_wht.png","../images/cyn_red.png"],"mutagen_generator_assignment":[1,0],"goal":1,"start":4,"action_noise":0,"location_history":"[4,2,1]","action_history":"[1,0]","mutagen_history":"[0,1]","location_rts":"[634,101]","trial_type":"fractal-mutation","trial_index":75,"time_elapsed":2403972,"internal_node_id":"0.0-5.0-21.0"},{"group":"hexagon_tri","fractal_assignment":["../images/gry_blk.png","../images/org_blu.png","../images/ylw_slt.png","../images/pnk_blu.png","../images/blu_wht.png","../images/cyn_red.png"],"mutagen_generator_assignment":[1,0],"goal":3,"start":1,"action_noise":0,"location_history":"[1,5,0,5,0,5,0,5,4,0,5,0,5,0,1,5,4,2,1,3]","action_history":"[1,1,0,1,0,1,0,0,0,0,1,0,1,1,1,0,1,0,0]","mutagen_history":"[0,0,1,0,1,0,1,1,1,1,0,1,0,0,0,1,0,1,1]","location_rts":"[605,135,76,182,60,118,174,70,28,283,138,208,4,359,95,272,70,79,1358]","trial_type":"fractal-mutation","trial_index":76,"time_elapsed":2432609,"internal_node_id":"0.0-5.0-22.0"},{"group":"hexagon_tri","fractal_assignment":["../images/gry_blk.png","../images/org_blu.png","../images/ylw_slt.png","../images/pnk_blu.png","../images/blu_wht.png","../images/cyn_red.png"],"mutagen_generator_assignment":[1,0],"goal":2,"start":3,"action_noise":0,"location_history":"[3,2]","action_history":"[0]","mutagen_history":"[1]","location_rts":"[723]","trial_type":"fractal-mutation","trial_index":77,"time_elapsed":2438419,"internal_node_id":"0.0-5.0-23.0"},{"group":"hexagon_tri","fractal_assignment":["../images/gry_blk.png","../images/org_blu.png","../images/ylw_slt.png","../images/pnk_blu.png","../images/blu_wht.png","../images/cyn_red.png"],"mutagen_generator_assignment":[1,0],"goal":0,"start":2,"action_noise":0,"location_history":"[2,1,3,2,3,2,3,2,1,3,4,0]","action_history":"[0,0,0,1,0,1,0,0,0,1,0]","mutagen_history":"[1,1,1,0,1,0,1,1,1,0,1]","location_rts":"[390,200,349,1415,336,167,8,12,161,264,56]","trial_type":"fractal-mutation","trial_index":78,"time_elapsed":2457585,"internal_node_id":"0.0-5.0-24.0"},{"group":"hexagon_tri","fractal_assignment":["../images/gry_blk.png","../images/org_blu.png","../images/ylw_slt.png","../images/pnk_blu.png","../images/blu_wht.png","../images/cyn_red.png"],"mutagen_generator_assignment":[1,0],"goal":5,"start":0,"action_noise":0,"location_history":"[0,5]","action_history":"[0]","mutagen_history":"[1]","location_rts":"[1077]","trial_type":"fractal-mutation","trial_index":79,"time_elapsed":2463731,"internal_node_id":"0.0-5.0-25.0"},{"group":"hexagon_tri","fractal_assignment":["../images/gry_blk.png","../images/org_blu.png","../images/ylw_slt.png","../images/pnk_blu.png","../images/blu_wht.png","../images/cyn_red.png"],"mutagen_generator_assignment":[1,0],"goal":2,"start":5,"action_noise":0,"location_history":"[5,0,5,0,1,5,4,0,1,5,4,2]","action_history":"[1,0,1,1,1,0,0,1,1,0,1]","mutagen_history":"[0,1,0,0,0,1,1,0,0,1,0]","location_rts":"[505,75,184,4,193,32,19,32,86,750,189]","trial_type":"fractal-mutation","trial_index":80,"time_elapsed":2481580,"internal_node_id":"0.0-5.0-26.0"},{"group":"hexagon_tri","fractal_assignment":["../images/gry_blk.png","../images/org_blu.png","../images/ylw_slt.png","../images/pnk_blu.png","../images/blu_wht.png","../images/cyn_red.png"],"mutagen_generator_assignment":[1,0],"goal":3,"start":2,"action_noise":0,"location_history":"[2,1,5,4,2,3]","action_history":"[0,1,0,1,1]","mutagen_history":"[1,0,1,0,0]","location_rts":"[342,12,12,145,4]","trial_type":"fractal-mutation","trial_index":81,"time_elapsed":2491429,"internal_node_id":"0.0-5.0-27.0"},{"group":"hexagon_tri","fractal_assignment":["../images/gry_blk.png","../images/org_blu.png","../images/ylw_slt.png","../images/pnk_blu.png","../images/blu_wht.png","../images/cyn_red.png"],"mutagen_generator_assignment":[1,0],"goal":0,"start":3,"action_noise":0,"location_history":"[3,4,0]","action_history":"[1,0]","mutagen_history":"[0,1]","location_rts":"[746,20]","trial_type":"fractal-mutation","trial_index":82,"time_elapsed":2498328,"internal_node_id":"0.0-5.0-28.0"},{"group":"hexagon_tri","fractal_assignment":["../images/gry_blk.png","../images/org_blu.png","../images/ylw_slt.png","../images/pnk_blu.png","../images/blu_wht.png","../images/cyn_red.png"],"mutagen_generator_assignment":[1,0],"goal":1,"start":0,"action_noise":0,"location_history":"[0,1]","action_history":"[1]","mutagen_history":"[0]","location_rts":"[345]","trial_type":"fractal-mutation","trial_index":83,"time_elapsed":2503746,"internal_node_id":"0.0-5.0-29.0"},{"group":"hexagon_tri","fractal_assignment":["../images/gry_blk.png","../images/org_blu.png","../images/ylw_slt.png","../images/pnk_blu.png","../images/blu_wht.png","../images/cyn_red.png"],"mutagen_generator_assignment":[1,0],"goal":4,"start":1,"action_noise":0,"location_history":"[1,5,4]","action_history":"[1,0]","mutagen_history":"[0,1]","location_rts":"[566,97]","trial_type":"fractal-mutation","trial_index":84,"time_elapsed":2510569,"internal_node_id":"0.0-5.0-30.0"},{"group":"hexagon_tri","fractal_assignment":["../images/gry_blk.png","../images/org_blu.png","../images/ylw_slt.png","../images/pnk_blu.png","../images/blu_wht.png","../images/cyn_red.png"],"mutagen_generator_assignment":[1,0],"goal":5,"start":4,"action_noise":0,"location_history":"[4,2,3,4,2,1,5]","action_history":"[1,1,1,1,0,1]","mutagen_history":"[0,0,0,0,1,0]","location_rts":"[814,100,108,310,166,109]","trial_type":"fractal-mutation","trial_index":85,"time_elapsed":2522607,"internal_node_id":"0.0-5.0-31.0"},{"group":"hexagon_tri","fractal_assignment":["../images/gry_blk.png","../images/org_blu.png","../images/ylw_slt.png","../images/pnk_blu.png","../images/blu_wht.png","../images/cyn_red.png"],"mutagen_generator_assignment":[1,0],"goal":0,"start":5,"action_noise":0,"location_history":"[5,0]","action_history":"[1]","mutagen_history":"[0]","location_rts":"[584]","trial_type":"fractal-mutation","trial_index":86,"time_elapsed":2528261,"internal_node_id":"0.0-5.0-32.0"},{"group":"hexagon_tri","fractal_assignment":["../images/gry_blk.png","../images/org_blu.png","../images/ylw_slt.png","../images/pnk_blu.png","../images/blu_wht.png","../images/cyn_red.png"],"mutagen_generator_assignment":[1,0],"goal":3,"start":0,"action_noise":0,"location_history":"[0,5,4,0,1,5,4,0,1,5,4,0,5,4,2,3]","action_history":"[0,0,0,1,1,0,0,1,1,0,0,0,0,1,1]","mutagen_history":"[1,1,1,0,0,1,1,0,0,1,1,1,1,0,0]","location_rts":"[984,54,441,190,51,151,189,68,179,183,254,72,163,527,116]","trial_type":"fractal-mutation","trial_index":87,"time_elapsed":2551903,"internal_node_id":"0.0-5.0-33.0"},{"group":"hexagon_tri","fractal_assignment":["../images/gry_blk.png","../images/org_blu.png","../images/ylw_slt.png","../images/pnk_blu.png","../images/blu_wht.png","../images/cyn_red.png"],"mutagen_generator_assignment":[1,0],"goal":1,"start":3,"action_noise":0,"location_history":"[3,2,3,4,2,1]","action_history":"[0,1,1,1,0]","mutagen_history":"[1,0,0,0,1]","location_rts":"[4404,165,58,72,201]","trial_type":"fractal-mutation","trial_index":88,"time_elapsed":2566139,"internal_node_id":"0.0-5.0-34.0"},{"group":"hexagon_tri","fractal_assignment":["../images/gry_blk.png","../images/org_blu.png","../images/ylw_slt.png","../images/pnk_blu.png","../images/blu_wht.png","../images/cyn_red.png"],"mutagen_generator_assignment":[1,0],"goal":2,"start":1,"action_noise":0,"location_history":"[1,5,4,2]","action_history":"[1,0,1]","mutagen_history":"[0,1,0]","location_rts":"[780,24,802]","trial_type":"fractal-mutation","trial_index":89,"time_elapsed":2575164,"internal_node_id":"0.0-5.0-35.0"},{"group":"hexagon_tri","fractal_assignment":["../images/gry_blk.png","../images/org_blu.png","../images/ylw_slt.png","../images/pnk_blu.png","../images/blu_wht.png","../images/cyn_red.png"],"mutagen_generator_assignment":[1,0],"goal":4,"start":2,"action_noise":0,"location_history":"[2,3,4]","action_history":"[1,1]","mutagen_history":"[0,0]","location_rts":"[8443,28]","trial_type":"fractal-mutation","trial_index":90,"time_elapsed":2590774,"internal_node_id":"0.0-5.0-36.0"},{"group":"hexagon_tri","fractal_assignment":["../images/gry_blk.png","../images/org_blu.png","../images/ylw_slt.png","../images/pnk_blu.png","../images/blu_wht.png","../images/cyn_red.png"],"mutagen_generator_assignment":[1,0],"goal":5,"start":4,"action_noise":0,"location_history":"[4,2,1,5]","action_history":"[1,0,1]","mutagen_history":"[0,1,0]","location_rts":"[9395,104,116]","trial_type":"fractal-mutation","trial_index":91,"time_elapsed":2607591,"internal_node_id":"0.0-5.0-37.0"},{"group":"hexagon_tri","fractal_assignment":["../images/gry_blk.png","../images/org_blu.png","../images/ylw_slt.png","../images/pnk_blu.png","../images/blu_wht.png","../images/cyn_red.png"],"mutagen_generator_assignment":[1,0],"goal":1,"start":5,"action_noise":0,"location_history":"[5,0,1]","action_history":"[1,1]","mutagen_history":"[0,0]","location_rts":"[13659,84]","trial_type":"fractal-mutation","trial_index":92,"time_elapsed":2627470,"internal_node_id":"0.0-5.0-38.0"},{"group":"hexagon_tri","fractal_assignment":["../images/gry_blk.png","../images/org_blu.png","../images/ylw_slt.png","../images/pnk_blu.png","../images/blu_wht.png","../images/cyn_red.png"],"mutagen_generator_assignment":[1,0],"goal":4,"start":1,"action_noise":0,"location_history":"[1,5,4]","action_history":"[1,0]","mutagen_history":"[0,1]","location_rts":"[2135,137]","trial_type":"fractal-mutation","trial_index":93,"time_elapsed":2635887,"internal_node_id":"0.0-5.0-39.0"},{"group":"hexagon_tri","fractal_assignment":["../images/gry_blk.png","../images/org_blu.png","../images/ylw_slt.png","../images/pnk_blu.png","../images/blu_wht.png","../images/cyn_red.png"],"mutagen_generator_assignment":[1,0],"goal":3,"start":4,"action_noise":0,"location_history":"[4,2,1,3]","action_history":"[1,0,0]","mutagen_history":"[0,1,1]","location_rts":"[8144,29,23]","trial_type":"fractal-mutation","trial_index":94,"time_elapsed":2651292,"internal_node_id":"0.0-5.0-40.0"},{"group":"hexagon_tri","fractal_assignment":["../images/gry_blk.png","../images/org_blu.png","../images/ylw_slt.png","../images/pnk_blu.png","../images/blu_wht.png","../images/cyn_red.png"],"mutagen_generator_assignment":[1,0],"goal":2,"start":3,"action_noise":0,"location_history":"[3,4,0,1,5,0,5,0,5,4,0,5,0,1,3,4,2]","action_history":"[1,0,1,1,1,0,1,0,0,0,0,1,1,0,1,1]","mutagen_history":"[0,1,0,0,0,1,0,1,1,1,1,0,0,1,0,0]","location_rts":"[1285,128,32,48,4,133,136,112,32,32,101,130,132,137,36,103]","trial_type":"fractal-mutation","trial_index":95,"time_elapsed":2675003,"internal_node_id":"0.0-5.0-41.0"},{"group":"hexagon_tri","fractal_assignment":["../images/gry_blk.png","../images/org_blu.png","../images/ylw_slt.png","../images/pnk_blu.png","../images/blu_wht.png","../images/cyn_red.png"],"mutagen_generator_assignment":[1,0],"goal":0,"start":2,"action_noise":0,"location_history":"[2,1,3,4,0]","action_history":"[0,0,1,0]","mutagen_history":"[1,1,0,1]","location_rts":"[1326,16,53,336]","trial_type":"fractal-mutation","trial_index":96,"time_elapsed":2685015,"internal_node_id":"0.0-5.0-42.0"},{"group":"hexagon_tri","fractal_assignment":["../images/gry_blk.png","../images/org_blu.png","../images/ylw_slt.png","../images/pnk_blu.png","../images/blu_wht.png","../images/cyn_red.png"],"mutagen_generator_assignment":[1,0],"goal":5,"start":0,"action_noise":0,"location_history":"[0,1,3,4,0,1,5]","action_history":"[1,0,1,0,1,1]","mutagen_history":"[0,1,0,1,0,0]","location_rts":"[934,57,112,20,197,75]","trial_type":"fractal-mutation","trial_index":97,"time_elapsed":2696806,"internal_node_id":"0.0-5.0-43.0"},{"group":"hexagon_tri","fractal_assignment":["../images/gry_blk.png","../images/org_blu.png","../images/ylw_slt.png","../images/pnk_blu.png","../images/blu_wht.png","../images/cyn_red.png"],"mutagen_generator_assignment":[1,0],"goal":0,"start":5,"action_noise":0,"location_history":"[5,4,2,3,2,3,2,3,4,2,3,2,3,4,0]","action_history":"[0,1,1,0,1,0,1,1,1,1,0,1,1,0]","mutagen_history":"[1,0,0,1,0,1,0,0,0,0,1,0,0,1]","location_rts":"[392,0,244,88,133,28,177,172,52,64,17,125,84,136]","trial_type":"fractal-mutation","trial_index":98,"time_elapsed":2717492,"internal_node_id":"0.0-5.0-44.0"},{"group":"hexagon_tri","fractal_assignment":["../images/gry_blk.png","../images/org_blu.png","../images/ylw_slt.png","../images/pnk_blu.png","../images/blu_wht.png","../images/cyn_red.png"],"mutagen_generator_assignment":[1,0],"goal":2,"start":0,"action_noise":0,"location_history":"[0,1,5,0,5,4,0,1,3,4,2]","action_history":"[1,1,1,0,0,0,1,0,1,1]","mutagen_history":"[0,0,0,1,1,1,0,1,0,0]","location_rts":"[991,142,50,95,144,121,250,132,40,144]","trial_type":"fractal-mutation","trial_index":99,"time_elapsed":2734288,"internal_node_id":"0.0-5.0-45.0"},{"group":"hexagon_tri","fractal_assignment":["../images/gry_blk.png","../images/org_blu.png","../images/ylw_slt.png","../images/pnk_blu.png","../images/blu_wht.png","../images/cyn_red.png"],"mutagen_generator_assignment":[1,0],"goal":4,"start":2,"action_noise":0,"location_history":"[2,3,4]","action_history":"[1,1]","mutagen_history":"[0,0]","location_rts":"[353,287]","trial_type":"fractal-mutation","trial_index":100,"time_elapsed":2741072,"internal_node_id":"0.0-5.0-46.0"},{"group":"hexagon_tri","fractal_assignment":["../images/gry_blk.png","../images/org_blu.png","../images/ylw_slt.png","../images/pnk_blu.png","../images/blu_wht.png","../images/cyn_red.png"],"mutagen_generator_assignment":[1,0],"goal":1,"start":4,"action_noise":0,"location_history":"[4,2,1]","action_history":"[1,0]","mutagen_history":"[0,1]","location_rts":"[385,95]","trial_type":"fractal-mutation","trial_index":101,"time_elapsed":2747702,"internal_node_id":"0.0-5.0-47.0"},{"group":"hexagon_tri","fractal_assignment":["../images/gry_blk.png","../images/org_blu.png","../images/ylw_slt.png","../images/pnk_blu.png","../images/blu_wht.png","../images/cyn_red.png"],"mutagen_generator_assignment":[1,0],"goal":5,"start":1,"action_noise":0,"location_history":"[1,3,2,3,4,0,5]","action_history":"[0,0,1,1,0,0]","mutagen_history":"[1,1,0,0,1,1]","location_rts":"[544,188,92,159,152,27]","trial_type":"fractal-mutation","trial_index":102,"time_elapsed":2759281,"internal_node_id":"0.0-5.0-48.0"},{"group":"hexagon_tri","fractal_assignment":["../images/gry_blk.png","../images/org_blu.png","../images/ylw_slt.png","../images/pnk_blu.png","../images/blu_wht.png","../images/cyn_red.png"],"mutagen_generator_assignment":[1,0],"goal":3,"start":5,"action_noise":0,"location_history":"[5,0,1,5,4,0,1,5,4,0,5,4,2,3]","action_history":"[1,1,1,0,0,1,1,0,0,0,0,1,1]","mutagen_history":"[0,0,0,1,1,0,0,1,1,1,1,0,0]","location_rts":"[343,295,150,79,23,79,200,496,63,284,19,24,77]","trial_type":"fractal-mutation","trial_index":103,"time_elapsed":2779309,"internal_node_id":"0.0-5.0-49.0"},{"view_history":"[{\"page_index\":0,\"viewing_time\":2982}]","rt":2982,"trial_type":"instructions","trial_index":104,"time_elapsed":2783291,"internal_node_id":"0.0-6.0"},{"rt":10541,"responses":"{\"Q0\":\"no\"}","trial_type":"survey-text","trial_index":105,"time_elapsed":2794844,"internal_node_id":"0.0-7.0"}]