[{"view_history":"[{\"page_index\":0,\"viewing_time\":21733},{\"page_index\":1,\"viewing_time\":5515}]","rt":27250,"trial_type":"instructions","trial_index":0,"time_elapsed":27255,"internal_node_id":"0.0-0.0"},{"view_history":"[{\"page_index\":0,\"viewing_time\":2432},{\"page_index\":1,\"viewing_time\":7592}]","rt":10025,"trial_type":"instructions","trial_index":1,"time_elapsed":38284,"internal_node_id":"0.0-1.0"},{"group":"hexagon_tri","room_assignment":["purple","yellow","red","blue","grey","green"],"door_color_assignment":["black","white"],"door_generator_assignment":[1,0],"goal":3,"start":5,"action_noise":0,"location_history":"[5,0,5,0,1,5,0,5,4,0,5,4,0,1,3]","action_history":"[1,0,1,1,1,1,0,0,0,0,0,0,1,0]","door_history":"[0,1,0,0,0,0,1,1,1,1,1,1,0,1]","location_rts":"[6235,1450,824,554,596,434,532,401,317,340,396,1073,553,423]","trial_type":"two-door-navigation","trial_index":2,"time_elapsed":70873,"internal_node_id":"0.0-2.0-0.0"},{"group":"hexagon_tri","room_assignment":["purple","yellow","red","blue","grey","green"],"door_color_assignment":["black","white"],"door_generator_assignment":[1,0],"goal":1,"start":3,"action_noise":0,"location_history":"[3,4,0,1]","action_history":"[1,0,1]","door_history":"[0,1,0]","location_rts":"[3220,345,1625]","trial_type":"two-door-navigation","trial_index":3,"time_elapsed":83174,"internal_node_id":"0.0-2.0-1.0"},{"group":"hexagon_tri","room_assignment":["purple","yellow","red","blue","grey","green"],"door_color_assignment":["black","white"],"door_generator_assignment":[1,0],"goal":0,"start":1,"action_noise":0,"location_history":"[1,5,0]","action_history":"[1,1]","door_history":"[0,0]","location_rts":"[2833,1145]","trial_type":"two-door-navigation","trial_index":4,"time_elapsed":93223,"internal_node_id":"0.0-2.0-2.0"},{"group":"hexagon_tri","room_assignment":["purple","yellow","red","blue","grey","green"],"door_color_assignment":["black","white"],"door_generator_assignment":[1,0],"goal":3,"start":0,"action_noise":0,"location_history":"[0,5,0,5,4,2,3]","action_history":"[0,1,0,0,1,1]","door_history":"[1,0,1,1,0,0]","location_rts":"[5702,967,537,787,1028,605]","trial_type":"two-door-navigation","trial_index":5,"time_elapsed":113120,"internal_node_id":"0.0-2.0-3.0"},{"group":"hexagon_tri","room_assignment":["purple","yellow","red","blue","grey","green"],"door_color_assignment":["black","white"],"door_generator_assignment":[1,0],"goal":4,"start":3,"action_noise":0,"location_history":"[3,4]","action_history":"[1]","door_history":"[0]","location_rts":"[8662]","trial_type":"two-door-navigation","trial_index":6,"time_elapsed":126818,"internal_node_id":"0.0-2.0-4.0"},{"group":"hexagon_tri","room_assignment":["purple","yellow","red","blue","grey","green"],"door_color_assignment":["black","white"],"door_generator_assignment":[1,0],"goal":2,"start":4,"action_noise":0,"location_history":"[4,2]","action_history":"[1]","door_history":"[0]","location_rts":"[1158]","trial_type":"two-door-navigation","trial_index":7,"time_elapsed":133008,"internal_node_id":"0.0-2.0-5.0"},{"group":"hexagon_tri","room_assignment":["purple","yellow","red","blue","grey","green"],"door_color_assignment":["black","white"],"door_generator_assignment":[1,0],"goal":1,"start":2,"action_noise":0,"location_history":"[2,3,2,3,4,2,3,4,0,5,4,0,1]","action_history":"[1,0,1,1,1,1,1,0,0,0,0,1]","door_history":"[0,1,0,0,0,0,0,1,1,1,1,0]","location_rts":"[2177,544,686,372,412,656,616,363,640,1074,938,568]","trial_type":"two-door-navigation","trial_index":8,"time_elapsed":158423,"internal_node_id":"0.0-2.0-6.0"},{"group":"hexagon_tri","room_assignment":["purple","yellow","red","blue","grey","green"],"door_color_assignment":["black","white"],"door_generator_assignment":[1,0],"goal":5,"start":1,"action_noise":0,"location_history":"[1,3,2,1,5]","action_history":"[0,0,0,1]","door_history":"[1,1,1,0]","location_rts":"[2152,413,400,1186]","trial_type":"two-door-navigation","trial_index":9,"time_elapsed":170693,"internal_node_id":"0.0-2.0-7.0"},{"group":"hexagon_tri","room_assignment":["purple","yellow","red","blue","grey","green"],"door_color_assignment":["black","white"],"door_generator_assignment":[1,0],"goal":4,"start":5,"action_noise":0,"location_history":"[5,4]","action_history":"[0]","door_history":"[1]","location_rts":"[849]","trial_type":"two-door-navigation","trial_index":10,"time_elapsed":176579,"internal_node_id":"0.0-2.0-8.0"},{"group":"hexagon_tri","room_assignment":["purple","yellow","red","blue","grey","green"],"door_color_assignment":["black","white"],"door_generator_assignment":[1,0],"goal":2,"start":4,"action_noise":0,"location_history":"[4,2]","action_history":"[1]","door_history":"[0]","location_rts":"[5363]","trial_type":"two-door-navigation","trial_index":11,"time_elapsed":186981,"internal_node_id":"0.0-2.0-9.0"},{"group":"hexagon_tri","room_assignment":["purple","yellow","red","blue","grey","green"],"door_color_assignment":["black","white"],"door_generator_assignment":[1,0],"goal":0,"start":2,"action_noise":0,"location_history":"[2,3,4,2,1,3,2,3,4,0]","action_history":"[1,1,1,0,0,0,1,1,0]","door_history":"[0,0,0,1,1,1,0,0,1]","location_rts":"[1723,1578,522,465,432,817,788,869,995]","trial_type":"two-door-navigation","trial_index":12,"time_elapsed":208426,"internal_node_id":"0.0-2.0-10.0"},{"group":"hexagon_tri","room_assignment":["purple","yellow","red","blue","grey","green"],"door_color_assignment":["black","white"],"door_generator_assignment":[1,0],"goal":1,"start":0,"action_noise":0,"location_history":"[0,1]","action_history":"[1]","door_history":"[0]","location_rts":"[5152]","trial_type":"two-door-navigation","trial_index":13,"time_elapsed":218617,"internal_node_id":"0.0-2.0-11.0"},{"group":"hexagon_tri","room_assignment":["purple","yellow","red","blue","grey","green"],"door_color_assignment":["black","white"],"door_generator_assignment":[1,0],"goal":3,"start":1,"action_noise":0,"location_history":"[1,5,4,0,5,4,2,3]","action_history":"[1,0,0,0,0,1,1]","door_history":"[0,1,1,1,1,0,0]","location_rts":"[2885,511,844,690,572,748,423]","trial_type":"two-door-navigation","trial_index":14,"time_elapsed":236504,"internal_node_id":"0.0-2.0-12.0"},{"group":"hexagon_tri","room_assignment":["purple","yellow","red","blue","grey","green"],"door_color_assignment":["black","white"],"door_generator_assignment":[1,0],"goal":5,"start":3,"action_noise":0,"location_history":"[3,4,0,5]","action_history":"[1,0,0]","door_history":"[0,1,1]","location_rts":"[25696,2829,452]","trial_type":"two-door-navigation","trial_index":15,"time_elapsed":272578,"internal_node_id":"0.0-2.0-13.0"},{"group":"hexagon_tri","room_assignment":["purple","yellow","red","blue","grey","green"],"door_color_assignment":["black","white"],"door_generator_assignment":[1,0],"goal":4,"start":5,"action_noise":0,"location_history":"[5,0,5,0,1,5,0,1,3,4]","action_history":"[1,0,1,1,1,1,1,0,1]","door_history":"[0,1,0,0,0,0,0,1,0]","location_rts":"[2766,1387,365,298,436,397,350,463,379]","trial_type":"two-door-navigation","trial_index":16,"time_elapsed":292703,"internal_node_id":"0.0-2.0-14.0"},{"group":"hexagon_tri","room_assignment":["purple","yellow","red","blue","grey","green"],"door_color_assignment":["black","white"],"door_generator_assignment":[1,0],"goal":0,"start":4,"action_noise":0,"location_history":"[4,2,1,5,0]","action_history":"[1,0,1,1]","door_history":"[0,1,0,0]","location_rts":"[1175,1997,1037,1051]","trial_type":"two-door-navigation","trial_index":17,"time_elapsed":306085,"internal_node_id":"0.0-2.0-15.0"},{"group":"hexagon_tri","room_assignment":["purple","yellow","red","blue","grey","green"],"door_color_assignment":["black","white"],"door_generator_assignment":[1,0],"goal":3,"start":0,"action_noise":0,"location_history":"[0,5,4,2,1,3]","action_history":"[0,0,1,0,0]","door_history":"[1,1,0,1,1]","location_rts":"[3468,2914,1938,893,438]","trial_type":"two-door-navigation","trial_index":18,"time_elapsed":324881,"internal_node_id":"0.0-2.0-16.0"},{"group":"hexagon_tri","room_assignment":["purple","yellow","red","blue","grey","green"],"door_color_assignment":["black","white"],"door_generator_assignment":[1,0],"goal":1,"start":3,"action_noise":0,"location_history":"[3,4,0,5,0,1]","action_history":"[1,0,0,1,1]","door_history":"[0,1,1,0,0]","location_rts":"[902,1961,1250,706,1509]","trial_type":"two-door-navigation","trial_index":19,"time_elapsed":340372,"internal_node_id":"0.0-2.0-17.0"},{"group":"hexagon_tri","room_assignment":["purple","yellow","red","blue","grey","green"],"door_color_assignment":["black","white"],"door_generator_assignment":[1,0],"goal":5,"start":1,"action_noise":0,"location_history":"[1,5]","action_history":"[1]","door_history":"[0]","location_rts":"[1541]","trial_type":"two-door-navigation","trial_index":20,"time_elapsed":346953,"internal_node_id":"0.0-2.0-18.0"},{"group":"hexagon_tri","room_assignment":["purple","yellow","red","blue","grey","green"],"door_color_assignment":["black","white"],"door_generator_assignment":[1,0],"goal":2,"start":5,"action_noise":0,"location_history":"[5,4,0,5,4,2]","action_history":"[0,0,0,0,1]","door_history":"[1,1,1,1,0]","location_rts":"[3470,2325,1937,912,322]","trial_type":"two-door-navigation","trial_index":21,"time_elapsed":365081,"internal_node_id":"0.0-2.0-19.0"},{"group":"hexagon_tri","room_assignment":["purple","yellow","red","blue","grey","green"],"door_color_assignment":["black","white"],"door_generator_assignment":[1,0],"goal":4,"start":2,"action_noise":0,"location_history":"[2,1,5,4]","action_history":"[0,1,0]","door_history":"[1,0,1]","location_rts":"[958,1573,1234]","trial_type":"two-door-navigation","trial_index":22,"time_elapsed":375936,"internal_node_id":"0.0-2.0-20.0"},{"group":"hexagon_tri","room_assignment":["purple","yellow","red","blue","grey","green"],"door_color_assignment":["black","white"],"door_generator_assignment":[1,0],"goal":1,"start":4,"action_noise":0,"location_history":"[4,0,5,0,5,4,0,5,4,2,3,4,0,1]","action_history":"[0,0,1,0,0,0,0,0,1,1,1,0,1]","door_history":"[1,1,0,1,1,1,1,1,0,0,0,1,0]","location_rts":"[6312,1637,669,924,333,606,397,422,820,622,630,940,350]","trial_type":"two-door-navigation","trial_index":23,"time_elapsed":407969,"internal_node_id":"0.0-2.0-21.0"},{"group":"hexagon_tri","room_assignment":["purple","yellow","red","blue","grey","green"],"door_color_assignment":["black","white"],"door_generator_assignment":[1,0],"goal":3,"start":1,"action_noise":0,"location_history":"[1,5,4,0,1,5,0,1,3]","action_history":"[1,0,0,1,1,1,1,0]","door_history":"[0,1,1,0,0,0,0,1]","location_rts":"[6942,931,1495,756,477,463,689,451]","trial_type":"two-door-navigation","trial_index":24,"time_elapsed":432415,"internal_node_id":"0.0-2.0-22.0"},{"group":"hexagon_tri","room_assignment":["purple","yellow","red","blue","grey","green"],"door_color_assignment":["black","white"],"door_generator_assignment":[1,0],"goal":2,"start":3,"action_noise":0,"location_history":"[3,4,0,5,4,2]","action_history":"[1,0,0,0,1]","door_history":"[0,1,1,1,0]","location_rts":"[2314,791,716,1005,515]","trial_type":"two-door-navigation","trial_index":25,"time_elapsed":446913,"internal_node_id":"0.0-2.0-23.0"},{"group":"hexagon_tri","room_assignment":["purple","yellow","red","blue","grey","green"],"door_color_assignment":["black","white"],"door_generator_assignment":[1,0],"goal":0,"start":2,"action_noise":0,"location_history":"[2,3,2,3,2,3,2,3,2,3,4,2,1,3,4,2,1,5,0]","action_history":"[1,0,1,0,1,0,1,0,1,1,1,0,0,1,1,0,1,1]","door_history":"[0,1,0,1,0,1,0,1,0,0,0,1,1,0,0,1,0,0]","location_rts":"[25765,1391,1678,1886,6483,1524,1180,889,835,302,445,914,539,8529,24272,5313,4877,829]","trial_type":"two-door-navigation","trial_index":26,"time_elapsed":557099,"internal_node_id":"0.0-2.0-24.0"},{"group":"hexagon_tri","room_assignment":["purple","yellow","red","blue","grey","green"],"door_color_assignment":["black","white"],"door_generator_assignment":[1,0],"goal":5,"start":0,"action_noise":0,"location_history":"[0,5]","action_history":"[0]","door_history":"[1]","location_rts":"[1013]","trial_type":"two-door-navigation","trial_index":27,"time_elapsed":563147,"internal_node_id":"0.0-2.0-25.0"},{"group":"hexagon_tri","room_assignment":["purple","yellow","red","blue","grey","green"],"door_color_assignment":["black","white"],"door_generator_assignment":[1,0],"goal":2,"start":5,"action_noise":0,"location_history":"[5,0,5,4,0,5,0,5,0,5,4,2]","action_history":"[1,0,0,0,0,1,0,1,0,0,1]","door_history":"[0,1,1,1,1,0,1,0,1,1,0]","location_rts":"[1052,1619,526,600,11883,1368,2363,2840,453,389,908]","trial_type":"two-door-navigation","trial_index":28,"time_elapsed":602489,"internal_node_id":"0.0-2.0-26.0"},{"group":"hexagon_tri","room_assignment":["purple","yellow","red","blue","grey","green"],"door_color_assignment":["black","white"],"door_generator_assignment":[1,0],"goal":3,"start":2,"action_noise":0,"location_history":"[2,3]","action_history":"[1]","door_history":"[0]","location_rts":"[3054]","trial_type":"two-door-navigation","trial_index":29,"time_elapsed":610582,"internal_node_id":"0.0-2.0-27.0"},{"group":"hexagon_tri","room_assignment":["purple","yellow","red","blue","grey","green"],"door_color_assignment":["black","white"],"door_generator_assignment":[1,0],"goal":0,"start":3,"action_noise":0,"location_history":"[3,4,2,1,3,4,2,3,2,1,5,0]","action_history":"[1,1,0,0,1,1,1,0,0,1,1]","door_history":"[0,0,1,1,0,0,0,1,1,0,0]","location_rts":"[4489,1097,963,1122,452,850,418,316,457,470,1136]","trial_type":"two-door-navigation","trial_index":30,"time_elapsed":637682,"internal_node_id":"0.0-2.0-28.0"},{"group":"hexagon_tri","room_assignment":["purple","yellow","red","blue","grey","green"],"door_color_assignment":["black","white"],"door_generator_assignment":[1,0],"goal":1,"start":0,"action_noise":0,"location_history":"[0,5,4,2,1]","action_history":"[0,0,1,0]","door_history":"[1,1,0,1]","location_rts":"[1278,2645,2058,21776]","trial_type":"two-door-navigation","trial_index":31,"time_elapsed":673557,"internal_node_id":"0.0-2.0-29.0"},{"group":"hexagon_tri","room_assignment":["purple","yellow","red","blue","grey","green"],"door_color_assignment":["black","white"],"door_generator_assignment":[1,0],"goal":4,"start":1,"action_noise":0,"location_history":"[1,3,4]","action_history":"[0,1]","door_history":"[1,0]","location_rts":"[13539,1045]","trial_type":"two-door-navigation","trial_index":32,"time_elapsed":694211,"internal_node_id":"0.0-2.0-30.0"},{"group":"hexagon_tri","room_assignment":["purple","yellow","red","blue","grey","green"],"door_color_assignment":["black","white"],"door_generator_assignment":[1,0],"goal":5,"start":4,"action_noise":0,"location_history":"[4,2,1,3,2,1,5]","action_history":"[1,0,0,0,0,1]","door_history":"[0,1,1,1,1,0]","location_rts":"[26886,5634,1313,12735,12274,4226]","trial_type":"two-door-navigation","trial_index":33,"time_elapsed":767461,"internal_node_id":"0.0-2.0-31.0"},{"group":"hexagon_tri","room_assignment":["purple","yellow","red","blue","grey","green"],"door_color_assignment":["black","white"],"door_generator_assignment":[1,0],"goal":0,"start":5,"action_noise":0,"location_history":"[5,0]","action_history":"[1]","door_history":"[0]","location_rts":"[13249]","trial_type":"two-door-navigation","trial_index":34,"time_elapsed":785747,"internal_node_id":"0.0-2.0-32.0"},{"group":"hexagon_tri","room_assignment":["purple","yellow","red","blue","grey","green"],"door_color_assignment":["black","white"],"door_generator_assignment":[1,0],"goal":3,"start":0,"action_noise":0,"location_history":"[0,5,4,2,3]","action_history":"[0,0,1,1]","door_history":"[1,1,0,0]","location_rts":"[11932,5515,3748,4420]","trial_type":"two-door-navigation","trial_index":35,"time_elapsed":819486,"internal_node_id":"0.0-2.0-33.0"},{"group":"hexagon_tri","room_assignment":["purple","yellow","red","blue","grey","green"],"door_color_assignment":["black","white"],"door_generator_assignment":[1,0],"goal":1,"start":3,"action_noise":0,"location_history":"[3,4,0,1]","action_history":"[1,0,1]","door_history":"[0,1,0]","location_rts":"[2492,1809,1973]","trial_type":"two-door-navigation","trial_index":36,"time_elapsed":832850,"internal_node_id":"0.0-2.0-34.0"},{"group":"hexagon_tri","room_assignment":["purple","yellow","red","blue","grey","green"],"door_color_assignment":["black","white"],"door_generator_assignment":[1,0],"goal":2,"start":1,"action_noise":0,"location_history":"[1,3,4,0,5,4,2]","action_history":"[0,1,0,0,0,1]","door_history":"[1,0,1,1,1,0]","location_rts":"[1518,4330,820,581,1116,787]","trial_type":"two-door-navigation","trial_index":37,"time_elapsed":852181,"internal_node_id":"0.0-2.0-35.0"},{"group":"hexagon_tri","room_assignment":["purple","yellow","red","blue","grey","green"],"door_color_assignment":["black","white"],"door_generator_assignment":[1,0],"goal":4,"start":2,"action_noise":0,"location_history":"[2,1,3,4]","action_history":"[0,0,1]","door_history":"[1,1,0]","location_rts":"[644,2652,1264]","trial_type":"two-door-navigation","trial_index":38,"time_elapsed":863833,"internal_node_id":"0.0-2.0-36.0"},{"group":"hexagon_tri","room_assignment":["purple","yellow","red","blue","grey","green"],"door_color_assignment":["black","white"],"door_generator_assignment":[1,0],"goal":5,"start":4,"action_noise":0,"location_history":"[4,0,5]","action_history":"[0,0]","door_history":"[1,1]","location_rts":"[517,1228]","trial_type":"two-door-navigation","trial_index":39,"time_elapsed":871643,"internal_node_id":"0.0-2.0-37.0"},{"group":"hexagon_tri","room_assignment":["purple","yellow","red","blue","grey","green"],"door_color_assignment":["black","white"],"door_generator_assignment":[1,0],"goal":1,"start":5,"action_noise":0,"location_history":"[5,4,2,3,4,2,1]","action_history":"[0,1,1,1,1,0]","door_history":"[1,0,0,0,0,1]","location_rts":"[985,2747,446,1610,852,515]","trial_type":"two-door-navigation","trial_index":40,"time_elapsed":888993,"internal_node_id":"0.0-2.0-38.0"},{"group":"hexagon_tri","room_assignment":["purple","yellow","red","blue","grey","green"],"door_color_assignment":["black","white"],"door_generator_assignment":[1,0],"goal":4,"start":1,"action_noise":0,"location_history":"[1,3,4]","action_history":"[0,1]","door_history":"[1,0]","location_rts":"[2736,875]","trial_type":"two-door-navigation","trial_index":41,"time_elapsed":898670,"internal_node_id":"0.0-2.0-39.0"},{"group":"hexagon_tri","room_assignment":["purple","yellow","red","blue","grey","green"],"door_color_assignment":["black","white"],"door_generator_assignment":[1,0],"goal":3,"start":4,"action_noise":0,"location_history":"[4,2,1,5,0,1,3]","action_history":"[1,0,1,1,1,0]","door_history":"[0,1,0,0,0,1]","location_rts":"[712,929,2005,477,534,740]","trial_type":"two-door-navigation","trial_index":42,"time_elapsed":914244,"internal_node_id":"0.0-2.0-40.0"},{"group":"hexagon_tri","room_assignment":["purple","yellow","red","blue","grey","green"],"door_color_assignment":["black","white"],"door_generator_assignment":[1,0],"goal":2,"start":3,"action_noise":0,"location_history":"[3,2]","action_history":"[0]","door_history":"[1]","location_rts":"[2580]","trial_type":"two-door-navigation","trial_index":43,"time_elapsed":921861,"internal_node_id":"0.0-2.0-41.0"},{"group":"hexagon_tri","room_assignment":["purple","yellow","red","blue","grey","green"],"door_color_assignment":["black","white"],"door_generator_assignment":[1,0],"goal":0,"start":2,"action_noise":0,"location_history":"[2,3,4,2,1,3,2,1,5,0]","action_history":"[1,1,1,0,0,0,0,1,1]","door_history":"[0,0,0,1,1,1,1,0,0]","location_rts":"[3297,3373,1300,436,437,416,373,297,450]","trial_type":"two-door-navigation","trial_index":44,"time_elapsed":945504,"internal_node_id":"0.0-2.0-42.0"},{"group":"hexagon_tri","room_assignment":["purple","yellow","red","blue","grey","green"],"door_color_assignment":["black","white"],"door_generator_assignment":[1,0],"goal":5,"start":0,"action_noise":0,"location_history":"[0,5]","action_history":"[0]","door_history":"[1]","location_rts":"[1831]","trial_type":"two-door-navigation","trial_index":45,"time_elapsed":952373,"internal_node_id":"0.0-2.0-43.0"},{"group":"hexagon_tri","room_assignment":["purple","yellow","red","blue","grey","green"],"door_color_assignment":["black","white"],"door_generator_assignment":[1,0],"goal":0,"start":5,"action_noise":0,"location_history":"[5,0]","action_history":"[1]","door_history":"[0]","location_rts":"[8930]","trial_type":"two-door-navigation","trial_index":46,"time_elapsed":966340,"internal_node_id":"0.0-2.0-44.0"},{"group":"hexagon_tri","room_assignment":["purple","yellow","red","blue","grey","green"],"door_color_assignment":["black","white"],"door_generator_assignment":[1,0],"goal":2,"start":0,"action_noise":0,"location_history":"[0,5,0,5,0,5,0,1,3,4,2]","action_history":"[0,1,0,1,0,1,1,0,1,1]","door_history":"[1,0,1,0,1,0,0,1,0,0]","location_rts":"[1941,3620,6716,904,665,938,245,5120,1550,622]","trial_type":"two-door-navigation","trial_index":47,"time_elapsed":1002953,"internal_node_id":"0.0-2.0-45.0"},{"group":"hexagon_tri","room_assignment":["purple","yellow","red","blue","grey","green"],"door_color_assignment":["black","white"],"door_generator_assignment":[1,0],"goal":4,"start":2,"action_noise":0,"location_history":"[2,3,4]","action_history":"[1,1]","door_history":"[0,0]","location_rts":"[13295,2572]","trial_type":"two-door-navigation","trial_index":48,"time_elapsed":1024880,"internal_node_id":"0.0-2.0-46.0"},{"group":"hexagon_tri","room_assignment":["purple","yellow","red","blue","grey","green"],"door_color_assignment":["black","white"],"door_generator_assignment":[1,0],"goal":1,"start":4,"action_noise":0,"location_history":"[4,0,5,0,1]","action_history":"[0,0,1,1]","door_history":"[1,1,0,0]","location_rts":"[1078,2440,1235,507]","trial_type":"two-door-navigation","trial_index":49,"time_elapsed":1038266,"internal_node_id":"0.0-2.0-47.0"},{"group":"hexagon_tri","room_assignment":["purple","yellow","red","blue","grey","green"],"door_color_assignment":["black","white"],"door_generator_assignment":[1,0],"goal":5,"start":1,"action_noise":0,"location_history":"[1,3,2,3,4,2,1,3,2,3,4,2,1,3,2,3,4,2,1,5]","action_history":"[0,0,1,1,1,0,0,0,1,1,1,0,0,0,1,1,1,0,1]","door_history":"[1,1,0,0,0,1,1,1,0,0,0,1,1,1,0,0,0,1,0]","location_rts":"[2769,568,348,427,422,1125,488,507,1078,538,967,1185,482,1980,2991,498,997,1561,1023]","trial_type":"two-door-navigation","trial_index":50,"time_elapsed":1081789,"internal_node_id":"0.0-2.0-48.0"},{"group":"hexagon_tri","room_assignment":["purple","yellow","red","blue","grey","green"],"door_color_assignment":["black","white"],"door_generator_assignment":[1,0],"goal":3,"start":5,"action_noise":0,"location_history":"[5,4,2,1,5,0,1,3]","action_history":"[0,1,0,1,1,1,0]","door_history":"[1,0,1,0,0,0,1]","location_rts":"[5259,954,412,1278,517,875,550]","trial_type":"two-door-navigation","trial_index":51,"time_elapsed":1102857,"internal_node_id":"0.0-2.0-49.0"},{"view_history":"[{\"page_index\":0,\"viewing_time\":15538}]","rt":15540,"trial_type":"instructions","trial_index":52,"time_elapsed":1119397,"internal_node_id":"0.0-3.0"},{"view_history":"[{\"page_index\":0,\"viewing_time\":2109},{\"page_index\":1,\"viewing_time\":6488}]","rt":8598,"trial_type":"instructions","trial_index":53,"time_elapsed":1128996,"internal_node_id":"0.0-4.0"},{"group":"hexagon_bi","fractal_assignment":["../images/pnk_blu.png","../images/gry_blk.png","../images/org_blu.png","../images/blu_wht.png","../images/cyn_red.png","../images/ylw_slt.png"],"mutagen_generator_assignment":[1,0],"goal":3,"start":5,"action_noise":0,"location_history":"[5,4,3]","action_history":"[1,0]","mutagen_history":"[0,1]","location_rts":"[5747,986]","trial_type":"fractal-mutation","trial_index":54,"time_elapsed":1141899,"internal_node_id":"0.0-5.0-0.0"},{"group":"hexagon_bi","fractal_assignment":["../images/pnk_blu.png","../images/gry_blk.png","../images/org_blu.png","../images/blu_wht.png","../images/cyn_red.png","../images/ylw_slt.png"],"mutagen_generator_assignment":[1,0],"goal":1,"start":3,"action_noise":0,"location_history":"[3,4,3,2,1]","action_history":"[0,0,1,0]","mutagen_history":"[1,1,0,1]","location_rts":"[2060,1789,876,1003]","trial_type":"fractal-mutation","trial_index":55,"time_elapsed":1155993,"internal_node_id":"0.0-5.0-1.0"},{"group":"hexagon_bi","fractal_assignment":["../images/pnk_blu.png","../images/gry_blk.png","../images/org_blu.png","../images/blu_wht.png","../images/cyn_red.png","../images/ylw_slt.png"],"mutagen_generator_assignment":[1,0],"goal":0,"start":1,"action_noise":0,"location_history":"[1,2,1,2,3,2,1,2,3,2,3,2,1,2,1,0]","action_history":"[0,0,0,1,1,0,0,1,1,1,1,0,0,0,1]","mutagen_history":"[1,1,1,0,0,1,1,0,0,0,0,1,1,1,0]","location_rts":"[3437,1849,1357,133,583,503,1031,513,607,712,815,1213,571,916,72]","trial_type":"fractal-mutation","trial_index":56,"time_elapsed":1190360,"internal_node_id":"0.0-5.0-2.0"},{"group":"hexagon_bi","fractal_assignment":["../images/pnk_blu.png","../images/gry_blk.png","../images/org_blu.png","../images/blu_wht.png","../images/cyn_red.png","../images/ylw_slt.png"],"mutagen_generator_assignment":[1,0],"goal":3,"start":0,"action_noise":0,"location_history":"[0,1,2,3]","action_history":"[1,0,1]","mutagen_history":"[0,1,0]","location_rts":"[2564,999,1483]","trial_type":"fractal-mutation","trial_index":57,"time_elapsed":1202644,"internal_node_id":"0.0-5.0-3.0"},{"group":"hexagon_bi","fractal_assignment":["../images/pnk_blu.png","../images/gry_blk.png","../images/org_blu.png","../images/blu_wht.png","../images/cyn_red.png","../images/ylw_slt.png"],"mutagen_generator_assignment":[1,0],"goal":4,"start":3,"action_noise":0,"location_history":"[3,4]","action_history":"[0]","mutagen_history":"[1]","location_rts":"[2393]","trial_type":"fractal-mutation","trial_index":58,"time_elapsed":1210114,"internal_node_id":"0.0-5.0-4.0"},{"group":"hexagon_bi","fractal_assignment":["../images/pnk_blu.png","../images/gry_blk.png","../images/org_blu.png","../images/blu_wht.png","../images/cyn_red.png","../images/ylw_slt.png"],"mutagen_generator_assignment":[1,0],"goal":2,"start":4,"action_noise":0,"location_history":"[4,5,0,5,4,5,0,5,0,5,4,3,2]","action_history":"[1,0,0,1,1,0,0,0,0,1,0,1]","mutagen_history":"[0,1,1,0,0,1,1,1,1,0,1,0]","location_rts":"[3328,927,1904,1199,582,587,658,548,793,738,685,957]","trial_type":"fractal-mutation","trial_index":59,"time_elapsed":1239900,"internal_node_id":"0.0-5.0-5.0"},{"group":"hexagon_bi","fractal_assignment":["../images/pnk_blu.png","../images/gry_blk.png","../images/org_blu.png","../images/blu_wht.png","../images/cyn_red.png","../images/ylw_slt.png"],"mutagen_generator_assignment":[1,0],"goal":1,"start":2,"action_noise":0,"location_history":"[2,1]","action_history":"[0]","mutagen_history":"[1]","location_rts":"[905]","trial_type":"fractal-mutation","trial_index":60,"time_elapsed":1245886,"internal_node_id":"0.0-5.0-6.0"},{"group":"hexagon_bi","fractal_assignment":["../images/pnk_blu.png","../images/gry_blk.png","../images/org_blu.png","../images/blu_wht.png","../images/cyn_red.png","../images/ylw_slt.png"],"mutagen_generator_assignment":[1,0],"goal":5,"start":1,"action_noise":0,"location_history":"[1,0,5]","action_history":"[1,0]","mutagen_history":"[0,1]","location_rts":"[2479,941]","trial_type":"fractal-mutation","trial_index":61,"time_elapsed":1255489,"internal_node_id":"0.0-5.0-7.0"},{"group":"hexagon_bi","fractal_assignment":["../images/pnk_blu.png","../images/gry_blk.png","../images/org_blu.png","../images/blu_wht.png","../images/cyn_red.png","../images/ylw_slt.png"],"mutagen_generator_assignment":[1,0],"goal":4,"start":5,"action_noise":0,"location_history":"[5,4]","action_history":"[1]","mutagen_history":"[0]","location_rts":"[2983]","trial_type":"fractal-mutation","trial_index":62,"time_elapsed":1263523,"internal_node_id":"0.0-5.0-8.0"},{"group":"hexagon_bi","fractal_assignment":["../images/pnk_blu.png","../images/gry_blk.png","../images/org_blu.png","../images/blu_wht.png","../images/cyn_red.png","../images/ylw_slt.png"],"mutagen_generator_assignment":[1,0],"goal":2,"start":4,"action_noise":0,"location_history":"[4,3,2]","action_history":"[0,1]","mutagen_history":"[1,0]","location_rts":"[3180,906]","trial_type":"fractal-mutation","trial_index":63,"time_elapsed":1273781,"internal_node_id":"0.0-5.0-9.0"},{"group":"hexagon_bi","fractal_assignment":["../images/pnk_blu.png","../images/gry_blk.png","../images/org_blu.png","../images/blu_wht.png","../images/cyn_red.png","../images/ylw_slt.png"],"mutagen_generator_assignment":[1,0],"goal":0,"start":2,"action_noise":0,"location_history":"[2,1,0]","action_history":"[0,1]","mutagen_history":"[1,0]","location_rts":"[1453,727]","trial_type":"fractal-mutation","trial_index":64,"time_elapsed":1282128,"internal_node_id":"0.0-5.0-10.0"},{"group":"hexagon_bi","fractal_assignment":["../images/pnk_blu.png","../images/gry_blk.png","../images/org_blu.png","../images/blu_wht.png","../images/cyn_red.png","../images/ylw_slt.png"],"mutagen_generator_assignment":[1,0],"goal":1,"start":0,"action_noise":0,"location_history":"[0,5,4,3,4,5,4,3,4,5,0,1]","action_history":"[0,1,0,0,1,1,0,0,1,0,1]","mutagen_history":"[1,0,1,1,0,0,1,1,0,1,0]","location_rts":"[1410,724,810,1782,823,670,672,855,1132,909,704]","trial_type":"fractal-mutation","trial_index":65,"time_elapsed":1308416,"internal_node_id":"0.0-5.0-11.0"},{"group":"hexagon_bi","fractal_assignment":["../images/pnk_blu.png","../images/gry_blk.png","../images/org_blu.png","../images/blu_wht.png","../images/cyn_red.png","../images/ylw_slt.png"],"mutagen_generator_assignment":[1,0],"goal":3,"start":1,"action_noise":0,"location_history":"[1,2,1,0,1,0,5,4,3]","action_history":"[0,0,1,1,1,0,1,0]","mutagen_history":"[1,1,0,0,0,1,0,1]","location_rts":"[2792,985,1435,940,749,857,1022,633]","trial_type":"fractal-mutation","trial_index":66,"time_elapsed":1330361,"internal_node_id":"0.0-5.0-12.0"},{"group":"hexagon_bi","fractal_assignment":["../images/pnk_blu.png","../images/gry_blk.png","../images/org_blu.png","../images/blu_wht.png","../images/cyn_red.png","../images/ylw_slt.png"],"mutagen_generator_assignment":[1,0],"goal":5,"start":3,"action_noise":0,"location_history":"[3,2,3,4,3,4,5]","action_history":"[1,1,0,0,0,1]","mutagen_history":"[0,0,1,1,1,0]","location_rts":"[1532,1104,752,758,1682,627]","trial_type":"fractal-mutation","trial_index":67,"time_elapsed":1347254,"internal_node_id":"0.0-5.0-13.0"},{"group":"hexagon_bi","fractal_assignment":["../images/pnk_blu.png","../images/gry_blk.png","../images/org_blu.png","../images/blu_wht.png","../images/cyn_red.png","../images/ylw_slt.png"],"mutagen_generator_assignment":[1,0],"goal":4,"start":5,"action_noise":0,"location_history":"[5,4]","action_history":"[1]","mutagen_history":"[0]","location_rts":"[3623]","trial_type":"fractal-mutation","trial_index":68,"time_elapsed":1355948,"internal_node_id":"0.0-5.0-14.0"},{"group":"hexagon_bi","fractal_assignment":["../images/pnk_blu.png","../images/gry_blk.png","../images/org_blu.png","../images/blu_wht.png","../images/cyn_red.png","../images/ylw_slt.png"],"mutagen_generator_assignment":[1,0],"goal":0,"start":4,"action_noise":0,"location_history":"[4,3,2,3,2,1,2,3,2,3,4,5,0]","action_history":"[0,1,1,1,0,0,1,1,1,0,1,0]","mutagen_history":"[1,0,0,0,1,1,0,0,0,1,0,1]","location_rts":"[2656,1009,1401,1388,620,1800,1108,603,1061,1048,1029,1108]","trial_type":"fractal-mutation","trial_index":69,"time_elapsed":1387637,"internal_node_id":"0.0-5.0-15.0"},{"group":"hexagon_bi","fractal_assignment":["../images/pnk_blu.png","../images/gry_blk.png","../images/org_blu.png","../images/blu_wht.png","../images/cyn_red.png","../images/ylw_slt.png"],"mutagen_generator_assignment":[1,0],"goal":3,"start":0,"action_noise":0,"location_history":"[0,5,4,5,0,5,0,5,4,5,4,3]","action_history":"[0,1,1,0,0,0,0,1,1,1,0]","mutagen_history":"[1,0,0,1,1,1,1,0,0,0,1]","location_rts":"[688,612,1115,635,679,740,631,694,620,568,538]","trial_type":"fractal-mutation","trial_index":70,"time_elapsed":1410937,"internal_node_id":"0.0-5.0-16.0"},{"group":"hexagon_bi","fractal_assignment":["../images/pnk_blu.png","../images/gry_blk.png","../images/org_blu.png","../images/blu_wht.png","../images/cyn_red.png","../images/ylw_slt.png"],"mutagen_generator_assignment":[1,0],"goal":1,"start":3,"action_noise":0,"location_history":"[3,4,3,2,3,4,3,2,3,2,1]","action_history":"[0,0,1,1,0,0,1,1,1,0]","mutagen_history":"[1,1,0,0,1,1,0,0,0,1]","location_rts":"[1825,675,359,716,979,1090,2349,685,701,346]","trial_type":"fractal-mutation","trial_index":71,"time_elapsed":1435413,"internal_node_id":"0.0-5.0-17.0"},{"group":"hexagon_bi","fractal_assignment":["../images/pnk_blu.png","../images/gry_blk.png","../images/org_blu.png","../images/blu_wht.png","../images/cyn_red.png","../images/ylw_slt.png"],"mutagen_generator_assignment":[1,0],"goal":5,"start":1,"action_noise":0,"location_history":"[1,2,3,4,5]","action_history":"[0,1,0,1]","mutagen_history":"[1,0,1,0]","location_rts":"[744,91,451,913]","trial_type":"fractal-mutation","trial_index":72,"time_elapsed":1445894,"internal_node_id":"0.0-5.0-18.0"},{"group":"hexagon_bi","fractal_assignment":["../images/pnk_blu.png","../images/gry_blk.png","../images/org_blu.png","../images/blu_wht.png","../images/cyn_red.png","../images/ylw_slt.png"],"mutagen_generator_assignment":[1,0],"goal":2,"start":5,"action_noise":0,"location_history":"[5,4,5,0,5,4,3,4,5,4,3,4,3,2]","action_history":"[1,1,0,0,1,0,0,1,1,0,0,0,1]","mutagen_history":"[0,0,1,1,0,1,1,0,0,1,1,1,0]","location_rts":"[2686,1332,453,826,649,513,899,783,510,919,599,503,1206]","trial_type":"fractal-mutation","trial_index":73,"time_elapsed":1475678,"internal_node_id":"0.0-5.0-19.0"},{"group":"hexagon_bi","fractal_assignment":["../images/pnk_blu.png","../images/gry_blk.png","../images/org_blu.png","../images/blu_wht.png","../images/cyn_red.png","../images/ylw_slt.png"],"mutagen_generator_assignment":[1,0],"goal":4,"start":2,"action_noise":0,"location_history":"[2,1,0,1,0,1,0,5,0,1,2,1,0,5,0,5,0,1,2,3,2,1,2,1,0,1,2,1,2,3,2,3,4]","action_history":"[0,1,1,1,1,1,0,0,1,0,0,1,0,0,0,0,1,0,1,1,0,0,0,1,1,0,0,0,1,1,1,0]","mutagen_history":"[1,0,0,0,0,0,1,1,0,1,1,0,1,1,1,1,0,1,0,0,1,1,1,0,0,1,1,1,0,0,0,1]","location_rts":"[2026,638,538,399,466,410,463,346,769,74,1000,814,671,498,419,435,1195,1817,1150,519,721,596,2081,1872,676,539,212,426,579,325,1385,558]","trial_type":"fractal-mutation","trial_index":74,"time_elapsed":1538527,"internal_node_id":"0.0-5.0-20.0"},{"group":"hexagon_bi","fractal_assignment":["../images/pnk_blu.png","../images/gry_blk.png","../images/org_blu.png","../images/blu_wht.png","../images/cyn_red.png","../images/ylw_slt.png"],"mutagen_generator_assignment":[1,0],"goal":1,"start":4,"action_noise":0,"location_history":"[4,5,0,5,4,3,4,3,2,1]","action_history":"[1,0,0,1,0,0,0,1,0]","mutagen_history":"[0,1,1,0,1,1,1,0,1]","location_rts":"[3115,1017,693,817,1484,1097,1066,420,718]","trial_type":"fractal-mutation","trial_index":75,"time_elapsed":1562627,"internal_node_id":"0.0-5.0-21.0"},{"group":"hexagon_bi","fractal_assignment":["../images/pnk_blu.png","../images/gry_blk.png","../images/org_blu.png","../images/blu_wht.png","../images/cyn_red.png","../images/ylw_slt.png"],"mutagen_generator_assignment":[1,0],"goal":3,"start":1,"action_noise":0,"location_history":"[1,0,5,0,5,4,5,0,5,4,3]","action_history":"[1,0,0,0,1,1,0,0,1,0]","mutagen_history":"[0,1,1,1,0,0,1,1,0,1]","location_rts":"[634,483,433,690,292,370,720,1112,1005,781]","trial_type":"fractal-mutation","trial_index":76,"time_elapsed":1583857,"internal_node_id":"0.0-5.0-22.0"},{"group":"hexagon_bi","fractal_assignment":["../images/pnk_blu.png","../images/gry_blk.png","../images/org_blu.png","../images/blu_wht.png","../images/cyn_red.png","../images/ylw_slt.png"],"mutagen_generator_assignment":[1,0],"goal":2,"start":3,"action_noise":0,"location_history":"[3,2]","action_history":"[1]","mutagen_history":"[0]","location_rts":"[396]","trial_type":"fractal-mutation","trial_index":77,"time_elapsed":1589311,"internal_node_id":"0.0-5.0-23.0"},{"group":"hexagon_bi","fractal_assignment":["../images/pnk_blu.png","../images/gry_blk.png","../images/org_blu.png","../images/blu_wht.png","../images/cyn_red.png","../images/ylw_slt.png"],"mutagen_generator_assignment":[1,0],"goal":0,"start":2,"action_noise":0,"location_history":"[2,3,4,3,2,1,2,1,0]","action_history":"[1,0,0,1,0,0,0,1]","mutagen_history":"[0,1,1,0,1,1,1,0]","location_rts":"[2290,1410,721,1516,742,1047,1360,729]","trial_type":"fractal-mutation","trial_index":78,"time_elapsed":1611798,"internal_node_id":"0.0-5.0-24.0"},{"group":"hexagon_bi","fractal_assignment":["../images/pnk_blu.png","../images/gry_blk.png","../images/org_blu.png","../images/blu_wht.png","../images/cyn_red.png","../images/ylw_slt.png"],"mutagen_generator_assignment":[1,0],"goal":5,"start":0,"action_noise":0,"location_history":"[0,5]","action_history":"[0]","mutagen_history":"[1]","location_rts":"[550]","trial_type":"fractal-mutation","trial_index":79,"time_elapsed":1617434,"internal_node_id":"0.0-5.0-25.0"},{"group":"hexagon_bi","fractal_assignment":["../images/pnk_blu.png","../images/gry_blk.png","../images/org_blu.png","../images/blu_wht.png","../images/cyn_red.png","../images/ylw_slt.png"],"mutagen_generator_assignment":[1,0],"goal":2,"start":5,"action_noise":0,"location_history":"[5,0,1,2]","action_history":"[0,1,0]","mutagen_history":"[1,0,1]","location_rts":"[781,294,622]","trial_type":"fractal-mutation","trial_index":80,"time_elapsed":1626345,"internal_node_id":"0.0-5.0-26.0"},{"group":"hexagon_bi","fractal_assignment":["../images/pnk_blu.png","../images/gry_blk.png","../images/org_blu.png","../images/blu_wht.png","../images/cyn_red.png","../images/ylw_slt.png"],"mutagen_generator_assignment":[1,0],"goal":3,"start":2,"action_noise":0,"location_history":"[2,3]","action_history":"[1]","mutagen_history":"[0]","location_rts":"[713]","trial_type":"fractal-mutation","trial_index":81,"time_elapsed":1632121,"internal_node_id":"0.0-5.0-27.0"},{"group":"hexagon_bi","fractal_assignment":["../images/pnk_blu.png","../images/gry_blk.png","../images/org_blu.png","../images/blu_wht.png","../images/cyn_red.png","../images/ylw_slt.png"],"mutagen_generator_assignment":[1,0],"goal":0,"start":3,"action_noise":0,"location_history":"[3,4,3,2,1,2,3,4,3,2,1,2,1,0]","action_history":"[0,0,1,0,0,1,0,0,1,0,0,0,1]","mutagen_history":"[1,1,0,1,1,0,1,1,0,1,1,1,0]","location_rts":"[946,1514,443,874,3268,439,193,1610,825,352,675,2595,576]","trial_type":"fractal-mutation","trial_index":82,"time_elapsed":1664511,"internal_node_id":"0.0-5.0-28.0"},{"group":"hexagon_bi","fractal_assignment":["../images/pnk_blu.png","../images/gry_blk.png","../images/org_blu.png","../images/blu_wht.png","../images/cyn_red.png","../images/ylw_slt.png"],"mutagen_generator_assignment":[1,0],"goal":1,"start":0,"action_noise":0,"location_history":"[0,5,4,3,4,5,4,3,2,1]","action_history":"[0,1,0,0,1,1,0,1,0]","mutagen_history":"[1,0,1,1,0,0,1,0,1]","location_rts":"[762,1336,1477,1408,587,481,579,1373,655]","trial_type":"fractal-mutation","trial_index":83,"time_elapsed":1686829,"internal_node_id":"0.0-5.0-29.0"},{"group":"hexagon_bi","fractal_assignment":["../images/pnk_blu.png","../images/gry_blk.png","../images/org_blu.png","../images/blu_wht.png","../images/cyn_red.png","../images/ylw_slt.png"],"mutagen_generator_assignment":[1,0],"goal":4,"start":1,"action_noise":0,"location_history":"[1,2,3,2,1,2,1,0,1,2,1,0,1,0,1,2,3,4]","action_history":"[0,1,1,0,0,0,1,1,0,0,1,1,1,1,0,1,0]","mutagen_history":"[1,0,0,1,1,1,0,0,1,1,0,0,0,0,1,0,1]","location_rts":"[1064,1148,660,751,362,727,407,822,668,450,251,429,1008,126,593,1242,744]","trial_type":"fractal-mutation","trial_index":84,"time_elapsed":1720429,"internal_node_id":"0.0-5.0-30.0"},{"group":"hexagon_bi","fractal_assignment":["../images/pnk_blu.png","../images/gry_blk.png","../images/org_blu.png","../images/blu_wht.png","../images/cyn_red.png","../images/ylw_slt.png"],"mutagen_generator_assignment":[1,0],"goal":5,"start":4,"action_noise":0,"location_history":"[4,5]","action_history":"[1]","mutagen_history":"[0]","location_rts":"[87]","trial_type":"fractal-mutation","trial_index":85,"time_elapsed":1725568,"internal_node_id":"0.0-5.0-31.0"},{"group":"hexagon_bi","fractal_assignment":["../images/pnk_blu.png","../images/gry_blk.png","../images/org_blu.png","../images/blu_wht.png","../images/cyn_red.png","../images/ylw_slt.png"],"mutagen_generator_assignment":[1,0],"goal":0,"start":5,"action_noise":0,"location_history":"[5,0]","action_history":"[0]","mutagen_history":"[1]","location_rts":"[785]","trial_type":"fractal-mutation","trial_index":86,"time_elapsed":1731456,"internal_node_id":"0.0-5.0-32.0"},{"group":"hexagon_bi","fractal_assignment":["../images/pnk_blu.png","../images/gry_blk.png","../images/org_blu.png","../images/blu_wht.png","../images/cyn_red.png","../images/ylw_slt.png"],"mutagen_generator_assignment":[1,0],"goal":3,"start":0,"action_noise":0,"location_history":"[0,5,4,3]","action_history":"[0,1,0]","mutagen_history":"[1,0,1]","location_rts":"[458,240,239]","trial_type":"fractal-mutation","trial_index":87,"time_elapsed":1739602,"internal_node_id":"0.0-5.0-33.0"},{"group":"hexagon_bi","fractal_assignment":["../images/pnk_blu.png","../images/gry_blk.png","../images/org_blu.png","../images/blu_wht.png","../images/cyn_red.png","../images/ylw_slt.png"],"mutagen_generator_assignment":[1,0],"goal":1,"start":3,"action_noise":0,"location_history":"[3,4,5,0,5,0,5,4,5,0,5,4,3,4,5,0,1]","action_history":"[0,1,0,0,0,0,1,1,0,0,1,0,0,1,0,1]","mutagen_history":"[1,0,1,1,1,1,0,0,1,1,0,1,1,0,1,0]","location_rts":"[934,148,129,215,431,36,186,263,11017,492,510,573,793,796,1301,932]","trial_type":"fractal-mutation","trial_index":88,"time_elapsed":1779408,"internal_node_id":"0.0-5.0-34.0"},{"group":"hexagon_bi","fractal_assignment":["../images/pnk_blu.png","../images/gry_blk.png","../images/org_blu.png","../images/blu_wht.png","../images/cyn_red.png","../images/ylw_slt.png"],"mutagen_generator_assignment":[1,0],"goal":2,"start":1,"action_noise":0,"location_history":"[1,2]","action_history":"[0]","mutagen_history":"[1]","location_rts":"[541]","trial_type":"fractal-mutation","trial_index":89,"time_elapsed":1785039,"internal_node_id":"0.0-5.0-35.0"},{"group":"hexagon_bi","fractal_assignment":["../images/pnk_blu.png","../images/gry_blk.png","../images/org_blu.png","../images/blu_wht.png","../images/cyn_red.png","../images/ylw_slt.png"],"mutagen_generator_assignment":[1,0],"goal":4,"start":2,"action_noise":0,"location_history":"[2,1,2,1,0,1,2,1,2,3,2,1,2,1,2,3,2,1,0,5,0,5,4]","action_history":"[0,0,0,1,1,0,0,0,1,1,0,0,0,0,1,1,0,1,0,0,0,1]","mutagen_history":"[1,1,1,0,0,1,1,1,0,0,1,1,1,1,0,0,1,0,1,1,1,0]","location_rts":"[274,398,13282,937,696,512,558,468,384,433,641,777,1772,482,26,312,124,767,39,674,504,405]","trial_type":"fractal-mutation","trial_index":90,"time_elapsed":1836877,"internal_node_id":"0.0-5.0-36.0"},{"group":"hexagon_bi","fractal_assignment":["../images/pnk_blu.png","../images/gry_blk.png","../images/org_blu.png","../images/blu_wht.png","../images/cyn_red.png","../images/ylw_slt.png"],"mutagen_generator_assignment":[1,0],"goal":5,"start":4,"action_noise":0,"location_history":"[4,5]","action_history":"[1]","mutagen_history":"[0]","location_rts":"[21622]","trial_type":"fractal-mutation","trial_index":91,"time_elapsed":1863565,"internal_node_id":"0.0-5.0-37.0"},{"group":"hexagon_bi","fractal_assignment":["../images/pnk_blu.png","../images/gry_blk.png","../images/org_blu.png","../images/blu_wht.png","../images/cyn_red.png","../images/ylw_slt.png"],"mutagen_generator_assignment":[1,0],"goal":1,"start":5,"action_noise":0,"location_history":"[5,0,1]","action_history":"[0,1]","mutagen_history":"[1,0]","location_rts":"[312,581]","trial_type":"fractal-mutation","trial_index":92,"time_elapsed":1870584,"internal_node_id":"0.0-5.0-38.0"},{"group":"hexagon_bi","fractal_assignment":["../images/pnk_blu.png","../images/gry_blk.png","../images/org_blu.png","../images/blu_wht.png","../images/cyn_red.png","../images/ylw_slt.png"],"mutagen_generator_assignment":[1,0],"goal":4,"start":1,"action_noise":0,"location_history":"[1,0,1,2,1,2,3,2,1,2,1,2,1,0,5,4]","action_history":"[1,1,0,0,0,1,1,0,0,0,0,0,1,0,1]","mutagen_history":"[0,0,1,1,1,0,0,1,1,1,1,1,0,1,0]","location_rts":"[644,141,1204,102,550,481,89,726,723,478,367,322,8551,3721,609]","trial_type":"fractal-mutation","trial_index":93,"time_elapsed":1909316,"internal_node_id":"0.0-5.0-39.0"},{"group":"hexagon_bi","fractal_assignment":["../images/pnk_blu.png","../images/gry_blk.png","../images/org_blu.png","../images/blu_wht.png","../images/cyn_red.png","../images/ylw_slt.png"],"mutagen_generator_assignment":[1,0],"goal":3,"start":4,"action_noise":0,"location_history":"[4,3]","action_history":"[0]","mutagen_history":"[1]","location_rts":"[118]","trial_type":"fractal-mutation","trial_index":94,"time_elapsed":1914512,"internal_node_id":"0.0-5.0-40.0"},{"group":"hexagon_bi","fractal_assignment":["../images/pnk_blu.png","../images/gry_blk.png","../images/org_blu.png","../images/blu_wht.png","../images/cyn_red.png","../images/ylw_slt.png"],"mutagen_generator_assignment":[1,0],"goal":2,"start":3,"action_noise":0,"location_history":"[3,4,5,0,5,0,1,0,5,4,3,4,5,0,5,0,1,2]","action_history":"[0,1,0,0,0,1,1,0,1,0,0,1,0,0,0,1,0]","mutagen_history":"[1,0,1,1,1,0,0,1,0,1,1,0,1,1,1,0,1]","location_rts":"[562,908,852,77,97,60,2944,6797,193,127,499,131,543,408,207,364,2139]","trial_type":"fractal-mutation","trial_index":95,"time_elapsed":1953514,"internal_node_id":"0.0-5.0-41.0"},{"group":"hexagon_bi","fractal_assignment":["../images/pnk_blu.png","../images/gry_blk.png","../images/org_blu.png","../images/blu_wht.png","../images/cyn_red.png","../images/ylw_slt.png"],"mutagen_generator_assignment":[1,0],"goal":0,"start":2,"action_noise":0,"location_history":"[2,1,2,1,2,1,2,3,4,3,4,3,4,3,4,5,0]","action_history":"[0,0,0,0,0,0,1,0,0,0,0,0,0,0,1,0]","mutagen_history":"[1,1,1,1,1,1,0,1,1,1,1,1,1,1,0,1]","location_rts":"[732,399,347,78,19,268,126,19,162,38,265,1418,329,471,325,573]","trial_type":"fractal-mutation","trial_index":96,"time_elapsed":1980226,"internal_node_id":"0.0-5.0-42.0"},{"group":"hexagon_bi","fractal_assignment":["../images/pnk_blu.png","../images/gry_blk.png","../images/org_blu.png","../images/blu_wht.png","../images/cyn_red.png","../images/ylw_slt.png"],"mutagen_generator_assignment":[1,0],"goal":5,"start":0,"action_noise":0,"location_history":"[0,5]","action_history":"[0]","mutagen_history":"[1]","location_rts":"[512]","trial_type":"fractal-mutation","trial_index":97,"time_elapsed":1985829,"internal_node_id":"0.0-5.0-43.0"},{"group":"hexagon_bi","fractal_assignment":["../images/pnk_blu.png","../images/gry_blk.png","../images/org_blu.png","../images/blu_wht.png","../images/cyn_red.png","../images/ylw_slt.png"],"mutagen_generator_assignment":[1,0],"goal":0,"start":5,"action_noise":0,"location_history":"[5,0]","action_history":"[0]","mutagen_history":"[1]","location_rts":"[569]","trial_type":"fractal-mutation","trial_index":98,"time_elapsed":1991472,"internal_node_id":"0.0-5.0-44.0"},{"group":"hexagon_bi","fractal_assignment":["../images/pnk_blu.png","../images/gry_blk.png","../images/org_blu.png","../images/blu_wht.png","../images/cyn_red.png","../images/ylw_slt.png"],"mutagen_generator_assignment":[1,0],"goal":2,"start":0,"action_noise":0,"location_history":"[0,5,0,1,0,5,0,1,2]","action_history":"[0,0,1,1,0,0,1,0]","mutagen_history":"[1,1,0,0,1,1,0,1]","location_rts":"[631,251,634,166,156,565,680,593]","trial_type":"fractal-mutation","trial_index":99,"time_elapsed":2007677,"internal_node_id":"0.0-5.0-45.0"},{"group":"hexagon_bi","fractal_assignment":["../images/pnk_blu.png","../images/gry_blk.png","../images/org_blu.png","../images/blu_wht.png","../images/cyn_red.png","../images/ylw_slt.png"],"mutagen_generator_assignment":[1,0],"goal":4,"start":2,"action_noise":0,"location_history":"[2,1,0,1,2,3,2,1,2,1,0,1,2,1,2,3,2,1,0,5,0,5,4]","action_history":"[0,1,1,0,1,1,0,0,0,1,1,0,0,0,1,1,0,1,0,0,0,1]","mutagen_history":"[1,0,0,1,0,0,1,1,1,0,0,1,1,1,0,0,1,0,1,1,1,0]","location_rts":"[709,1165,739,815,378,619,930,391,419,539,618,809,411,423,285,789,975,185,553,627,678,582]","trial_type":"fractal-mutation","trial_index":100,"time_elapsed":2048738,"internal_node_id":"0.0-5.0-46.0"},{"group":"hexagon_bi","fractal_assignment":["../images/pnk_blu.png","../images/gry_blk.png","../images/org_blu.png","../images/blu_wht.png","../images/cyn_red.png","../images/ylw_slt.png"],"mutagen_generator_assignment":[1,0],"goal":1,"start":4,"action_noise":0,"location_history":"[4,3,4,3,2,3,2,1]","action_history":"[0,0,0,1,1,1,0]","mutagen_history":"[1,1,1,0,0,0,1]","location_rts":"[686,1099,636,299,558,384,290]","trial_type":"fractal-mutation","trial_index":101,"time_elapsed":2064166,"internal_node_id":"0.0-5.0-47.0"},{"group":"hexagon_bi","fractal_assignment":["../images/pnk_blu.png","../images/gry_blk.png","../images/org_blu.png","../images/blu_wht.png","../images/cyn_red.png","../images/ylw_slt.png"],"mutagen_generator_assignment":[1,0],"goal":5,"start":1,"action_noise":0,"location_history":"[1,2,3,4,5]","action_history":"[0,1,0,1]","mutagen_history":"[1,0,1,0]","location_rts":"[7181,93,373,85]","trial_type":"fractal-mutation","trial_index":102,"time_elapsed":2080163,"internal_node_id":"0.0-5.0-48.0"},{"group":"hexagon_bi","fractal_assignment":["../images/pnk_blu.png","../images/gry_blk.png","../images/org_blu.png","../images/blu_wht.png","../images/cyn_red.png","../images/ylw_slt.png"],"mutagen_generator_assignment":[1,0],"goal":3,"start":5,"action_noise":0,"location_history":"[5,0,1,2,1,0,1,2,1,2,3]","action_history":"[0,1,0,0,1,1,0,0,0,1]","mutagen_history":"[1,0,1,1,0,0,1,1,1,0]","location_rts":"[195,120,56,223,185,756,648,419,1606,776]","trial_type":"fractal-mutation","trial_index":103,"time_elapsed":2099844,"internal_node_id":"0.0-5.0-49.0"},{"view_history":"[{\"page_index\":0,\"viewing_time\":53960}]","rt":53961,"trial_type":"instructions","trial_index":104,"time_elapsed":2154807,"internal_node_id":"0.0-6.0"},{"rt":8176,"responses":"{\"Q0\":\"none\"}","trial_type":"survey-text","trial_index":105,"time_elapsed":2163998,"internal_node_id":"0.0-7.0"}]