[{"view_history":"[{\"page_index\":0,\"viewing_time\":1922},{\"page_index\":1,\"viewing_time\":62523}]","rt":64446,"trial_type":"instructions","trial_index":0,"time_elapsed":64446,"internal_node_id":"0.0-0.0"},{"view_history":"[{\"page_index\":0,\"viewing_time\":2439},{\"page_index\":1,\"viewing_time\":2663}]","rt":5102,"trial_type":"instructions","trial_index":1,"time_elapsed":70551,"internal_node_id":"0.0-1.0"},{"group":"hexagon_tri","room_assignment":["green","blue","red","purple","grey","yellow"],"door_color_assignment":["black","white"],"door_generator_assignment":[1,0],"goal":3,"start":5,"action_noise":0,"location_history":"[5,4,0,1,3]","action_history":"[0,0,1,0]","door_history":"[1,1,0,1]","location_rts":"[5555,12942,6730,579]","trial_type":"two-door-navigation","trial_index":2,"time_elapsed":104527,"internal_node_id":"0.0-2.0-0.0"},{"group":"hexagon_tri","room_assignment":["green","blue","red","purple","grey","yellow"],"door_color_assignment":["black","white"],"door_generator_assignment":[1,0],"goal":1,"start":3,"action_noise":0,"location_history":"[3,2,1]","action_history":"[0,0]","door_history":"[1,1]","location_rts":"[6647,3967]","trial_type":"two-door-navigation","trial_index":3,"time_elapsed":121232,"internal_node_id":"0.0-2.0-1.0"},{"group":"hexagon_tri","room_assignment":["green","blue","red","purple","grey","yellow"],"door_color_assignment":["black","white"],"door_generator_assignment":[1,0],"goal":0,"start":1,"action_noise":0,"location_history":"[1,5,0]","action_history":"[1,1]","door_history":"[0,0]","location_rts":"[10312,3794]","trial_type":"two-door-navigation","trial_index":4,"time_elapsed":142130,"internal_node_id":"0.0-2.0-2.0"},{"group":"hexagon_tri","room_assignment":["green","blue","red","purple","grey","yellow"],"door_color_assignment":["black","white"],"door_generator_assignment":[1,0],"goal":3,"start":0,"action_noise":0,"location_history":"[0,1,5,4,2,3]","action_history":"[1,1,0,1,1]","door_history":"[0,0,1,0,0]","location_rts":"[24704,3829,7755,3407,3332]","trial_type":"two-door-navigation","trial_index":5,"time_elapsed":195439,"internal_node_id":"0.0-2.0-3.0"},{"group":"hexagon_tri","room_assignment":["green","blue","red","purple","grey","yellow"],"door_color_assignment":["black","white"],"door_generator_assignment":[1,0],"goal":4,"start":3,"action_noise":0,"location_history":"[3,4]","action_history":"[1]","door_history":"[0]","location_rts":"[6935]","trial_type":"two-door-navigation","trial_index":6,"time_elapsed":207440,"internal_node_id":"0.0-2.0-4.0"},{"group":"hexagon_tri","room_assignment":["green","blue","red","purple","grey","yellow"],"door_color_assignment":["black","white"],"door_generator_assignment":[1,0],"goal":2,"start":4,"action_noise":0,"location_history":"[4,2]","action_history":"[1]","door_history":"[0]","location_rts":"[3482]","trial_type":"two-door-navigation","trial_index":7,"time_elapsed":215986,"internal_node_id":"0.0-2.0-5.0"},{"group":"hexagon_tri","room_assignment":["green","blue","red","purple","grey","yellow"],"door_color_assignment":["black","white"],"door_generator_assignment":[1,0],"goal":1,"start":2,"action_noise":0,"location_history":"[2,1]","action_history":"[0]","door_history":"[1]","location_rts":"[3160]","trial_type":"two-door-navigation","trial_index":8,"time_elapsed":224206,"internal_node_id":"0.0-2.0-6.0"},{"group":"hexagon_tri","room_assignment":["green","blue","red","purple","grey","yellow"],"door_color_assignment":["black","white"],"door_generator_assignment":[1,0],"goal":5,"start":1,"action_noise":0,"location_history":"[1,5]","action_history":"[1]","door_history":"[0]","location_rts":"[3719]","trial_type":"two-door-navigation","trial_index":9,"time_elapsed":232986,"internal_node_id":"0.0-2.0-7.0"},{"group":"hexagon_tri","room_assignment":["green","blue","red","purple","grey","yellow"],"door_color_assignment":["black","white"],"door_generator_assignment":[1,0],"goal":4,"start":5,"action_noise":0,"location_history":"[5,4]","action_history":"[0]","door_history":"[1]","location_rts":"[13507]","trial_type":"two-door-navigation","trial_index":10,"time_elapsed":251549,"internal_node_id":"0.0-2.0-8.0"},{"group":"hexagon_tri","room_assignment":["green","blue","red","purple","grey","yellow"],"door_color_assignment":["black","white"],"door_generator_assignment":[1,0],"goal":2,"start":4,"action_noise":0,"location_history":"[4,2]","action_history":"[1]","door_history":"[0]","location_rts":"[4395]","trial_type":"two-door-navigation","trial_index":11,"time_elapsed":260992,"internal_node_id":"0.0-2.0-9.0"},{"group":"hexagon_tri","room_assignment":["green","blue","red","purple","grey","yellow"],"door_color_assignment":["black","white"],"door_generator_assignment":[1,0],"goal":0,"start":2,"action_noise":0,"location_history":"[2,3,4,0]","action_history":"[1,1,0]","door_history":"[0,0,1]","location_rts":"[6263,2722,4490]","trial_type":"two-door-navigation","trial_index":12,"time_elapsed":281604,"internal_node_id":"0.0-2.0-10.0"},{"group":"hexagon_tri","room_assignment":["green","blue","red","purple","grey","yellow"],"door_color_assignment":["black","white"],"door_generator_assignment":[1,0],"goal":1,"start":0,"action_noise":0,"location_history":"[0,1]","action_history":"[1]","door_history":"[0]","location_rts":"[8324]","trial_type":"two-door-navigation","trial_index":13,"time_elapsed":294991,"internal_node_id":"0.0-2.0-11.0"},{"group":"hexagon_tri","room_assignment":["green","blue","red","purple","grey","yellow"],"door_color_assignment":["black","white"],"door_generator_assignment":[1,0],"goal":3,"start":1,"action_noise":0,"location_history":"[1,5,4,0,1,5,0,5,0,1,3]","action_history":"[1,0,0,1,1,1,0,1,1,0]","door_history":"[0,1,1,0,0,0,1,0,0,1]","location_rts":"[7921,356,5375,5333,4195,2141,1504,1399,1057,5115]","trial_type":"two-door-navigation","trial_index":14,"time_elapsed":343800,"internal_node_id":"0.0-2.0-12.0"},{"group":"hexagon_tri","room_assignment":["green","blue","red","purple","grey","yellow"],"door_color_assignment":["black","white"],"door_generator_assignment":[1,0],"goal":5,"start":3,"action_noise":0,"location_history":"[3,4,2,3,2,1,3,4,2,3,4,2,1,3,2,1,5]","action_history":"[1,1,1,0,0,0,1,1,1,1,1,0,0,0,0,1]","door_history":"[0,0,0,1,1,1,0,0,0,0,0,1,1,1,1,0]","location_rts":"[26745,4369,7170,5471,6291,2376,1887,910,762,811,1078,522,1012,1975,966,657]","trial_type":"two-door-navigation","trial_index":15,"time_elapsed":427721,"internal_node_id":"0.0-2.0-13.0"},{"group":"hexagon_tri","room_assignment":["green","blue","red","purple","grey","yellow"],"door_color_assignment":["black","white"],"door_generator_assignment":[1,0],"goal":4,"start":5,"action_noise":0,"location_history":"[5,4]","action_history":"[0]","door_history":"[1]","location_rts":"[2967]","trial_type":"two-door-navigation","trial_index":16,"time_elapsed":435742,"internal_node_id":"0.0-2.0-14.0"},{"group":"hexagon_tri","room_assignment":["green","blue","red","purple","grey","yellow"],"door_color_assignment":["black","white"],"door_generator_assignment":[1,0],"goal":0,"start":4,"action_noise":0,"location_history":"[4,0]","action_history":"[0]","door_history":"[1]","location_rts":"[4558]","trial_type":"two-door-navigation","trial_index":17,"time_elapsed":445346,"internal_node_id":"0.0-2.0-15.0"},{"group":"hexagon_tri","room_assignment":["green","blue","red","purple","grey","yellow"],"door_color_assignment":["black","white"],"door_generator_assignment":[1,0],"goal":3,"start":0,"action_noise":0,"location_history":"[0,1,3]","action_history":"[1,0]","door_history":"[0,1]","location_rts":"[6654,2652]","trial_type":"two-door-navigation","trial_index":18,"time_elapsed":460729,"internal_node_id":"0.0-2.0-16.0"},{"group":"hexagon_tri","room_assignment":["green","blue","red","purple","grey","yellow"],"door_color_assignment":["black","white"],"door_generator_assignment":[1,0],"goal":1,"start":3,"action_noise":0,"location_history":"[3,2,1]","action_history":"[0,0]","door_history":"[1,1]","location_rts":"[8872,2659]","trial_type":"two-door-navigation","trial_index":19,"time_elapsed":478360,"internal_node_id":"0.0-2.0-17.0"},{"group":"hexagon_tri","room_assignment":["green","blue","red","purple","grey","yellow"],"door_color_assignment":["black","white"],"door_generator_assignment":[1,0],"goal":5,"start":1,"action_noise":0,"location_history":"[1,5]","action_history":"[1]","door_history":"[0]","location_rts":"[5609]","trial_type":"two-door-navigation","trial_index":20,"time_elapsed":489031,"internal_node_id":"0.0-2.0-18.0"},{"group":"hexagon_tri","room_assignment":["green","blue","red","purple","grey","yellow"],"door_color_assignment":["black","white"],"door_generator_assignment":[1,0],"goal":2,"start":5,"action_noise":0,"location_history":"[5,0,1,3,4,2]","action_history":"[1,1,0,1,1]","door_history":"[0,0,1,0,0]","location_rts":"[13660,7076,6853,2442,3659]","trial_type":"two-door-navigation","trial_index":21,"time_elapsed":531906,"internal_node_id":"0.0-2.0-19.0"},{"group":"hexagon_tri","room_assignment":["green","blue","red","purple","grey","yellow"],"door_color_assignment":["black","white"],"door_generator_assignment":[1,0],"goal":4,"start":2,"action_noise":0,"location_history":"[2,3,4]","action_history":"[1,1]","door_history":"[0,0]","location_rts":"[6886,997]","trial_type":"two-door-navigation","trial_index":22,"time_elapsed":545893,"internal_node_id":"0.0-2.0-20.0"},{"group":"hexagon_tri","room_assignment":["green","blue","red","purple","grey","yellow"],"door_color_assignment":["black","white"],"door_generator_assignment":[1,0],"goal":1,"start":4,"action_noise":0,"location_history":"[4,0,1]","action_history":"[0,1]","door_history":"[1,0]","location_rts":"[7367,4359]","trial_type":"two-door-navigation","trial_index":23,"time_elapsed":563713,"internal_node_id":"0.0-2.0-21.0"},{"group":"hexagon_tri","room_assignment":["green","blue","red","purple","grey","yellow"],"door_color_assignment":["black","white"],"door_generator_assignment":[1,0],"goal":3,"start":1,"action_noise":0,"location_history":"[1,3]","action_history":"[0]","door_history":"[1]","location_rts":"[6201]","trial_type":"two-door-navigation","trial_index":24,"time_elapsed":574961,"internal_node_id":"0.0-2.0-22.0"},{"group":"hexagon_tri","room_assignment":["green","blue","red","purple","grey","yellow"],"door_color_assignment":["black","white"],"door_generator_assignment":[1,0],"goal":2,"start":3,"action_noise":0,"location_history":"[3,2]","action_history":"[0]","door_history":"[1]","location_rts":"[16475]","trial_type":"two-door-navigation","trial_index":25,"time_elapsed":596497,"internal_node_id":"0.0-2.0-23.0"},{"group":"hexagon_tri","room_assignment":["green","blue","red","purple","grey","yellow"],"door_color_assignment":["black","white"],"door_generator_assignment":[1,0],"goal":0,"start":2,"action_noise":0,"location_history":"[2,1,5,0]","action_history":"[0,1,1]","door_history":"[1,0,0]","location_rts":"[7474,3706,4314]","trial_type":"two-door-navigation","trial_index":26,"time_elapsed":619182,"internal_node_id":"0.0-2.0-24.0"},{"group":"hexagon_tri","room_assignment":["green","blue","red","purple","grey","yellow"],"door_color_assignment":["black","white"],"door_generator_assignment":[1,0],"goal":5,"start":0,"action_noise":0,"location_history":"[0,1,3,2,1,5]","action_history":"[1,0,0,0,1]","door_history":"[0,1,1,1,0]","location_rts":"[1894,3465,1996,4737,396]","trial_type":"two-door-navigation","trial_index":27,"time_elapsed":640881,"internal_node_id":"0.0-2.0-25.0"},{"group":"hexagon_tri","room_assignment":["green","blue","red","purple","grey","yellow"],"door_color_assignment":["black","white"],"door_generator_assignment":[1,0],"goal":2,"start":5,"action_noise":0,"location_history":"[5,4,2]","action_history":"[0,1]","door_history":"[1,0]","location_rts":"[11221,6897]","trial_type":"two-door-navigation","trial_index":28,"time_elapsed":665087,"internal_node_id":"0.0-2.0-26.0"},{"group":"hexagon_tri","room_assignment":["green","blue","red","purple","grey","yellow"],"door_color_assignment":["black","white"],"door_generator_assignment":[1,0],"goal":3,"start":2,"action_noise":0,"location_history":"[2,1,3]","action_history":"[0,0]","door_history":"[1,1]","location_rts":"[19735,262]","trial_type":"two-door-navigation","trial_index":29,"time_elapsed":691250,"internal_node_id":"0.0-2.0-27.0"},{"group":"hexagon_tri","room_assignment":["green","blue","red","purple","grey","yellow"],"door_color_assignment":["black","white"],"door_generator_assignment":[1,0],"goal":0,"start":3,"action_noise":0,"location_history":"[3,2,1,5,0]","action_history":"[0,0,1,1]","door_history":"[1,1,0,0]","location_rts":"[4522,4406,2438,4120]","trial_type":"two-door-navigation","trial_index":30,"time_elapsed":714886,"internal_node_id":"0.0-2.0-28.0"},{"group":"hexagon_tri","room_assignment":["green","blue","red","purple","grey","yellow"],"door_color_assignment":["black","white"],"door_generator_assignment":[1,0],"goal":1,"start":0,"action_noise":0,"location_history":"[0,1]","action_history":"[1]","door_history":"[0]","location_rts":"[6663]","trial_type":"two-door-navigation","trial_index":31,"time_elapsed":726614,"internal_node_id":"0.0-2.0-29.0"},{"group":"hexagon_tri","room_assignment":["green","blue","red","purple","grey","yellow"],"door_color_assignment":["black","white"],"door_generator_assignment":[1,0],"goal":4,"start":1,"action_noise":0,"location_history":"[1,3,4]","action_history":"[0,1]","door_history":"[1,0]","location_rts":"[3777,1044]","trial_type":"two-door-navigation","trial_index":32,"time_elapsed":737533,"internal_node_id":"0.0-2.0-30.0"},{"group":"hexagon_tri","room_assignment":["green","blue","red","purple","grey","yellow"],"door_color_assignment":["black","white"],"door_generator_assignment":[1,0],"goal":5,"start":4,"action_noise":0,"location_history":"[4,2,1,5]","action_history":"[1,0,1]","door_history":"[0,1,0]","location_rts":"[7493,5720,1414]","trial_type":"two-door-navigation","trial_index":33,"time_elapsed":759263,"internal_node_id":"0.0-2.0-31.0"},{"group":"hexagon_tri","room_assignment":["green","blue","red","purple","grey","yellow"],"door_color_assignment":["black","white"],"door_generator_assignment":[1,0],"goal":0,"start":5,"action_noise":0,"location_history":"[5,0]","action_history":"[1]","door_history":"[0]","location_rts":"[3881]","trial_type":"two-door-navigation","trial_index":34,"time_elapsed":768212,"internal_node_id":"0.0-2.0-32.0"},{"group":"hexagon_tri","room_assignment":["green","blue","red","purple","grey","yellow"],"door_color_assignment":["black","white"],"door_generator_assignment":[1,0],"goal":3,"start":0,"action_noise":0,"location_history":"[0,1,3]","action_history":"[1,0]","door_history":"[0,1]","location_rts":"[4222,539]","trial_type":"two-door-navigation","trial_index":35,"time_elapsed":779059,"internal_node_id":"0.0-2.0-33.0"},{"group":"hexagon_tri","room_assignment":["green","blue","red","purple","grey","yellow"],"door_color_assignment":["black","white"],"door_generator_assignment":[1,0],"goal":1,"start":3,"action_noise":0,"location_history":"[3,2,1]","action_history":"[0,0]","door_history":"[1,1]","location_rts":"[8001,1980]","trial_type":"two-door-navigation","trial_index":36,"time_elapsed":795276,"internal_node_id":"0.0-2.0-34.0"},{"group":"hexagon_tri","room_assignment":["green","blue","red","purple","grey","yellow"],"door_color_assignment":["black","white"],"door_generator_assignment":[1,0],"goal":2,"start":1,"action_noise":0,"location_history":"[1,3,2]","action_history":"[0,0]","door_history":"[1,1]","location_rts":"[95780,1734]","trial_type":"two-door-navigation","trial_index":37,"time_elapsed":899900,"internal_node_id":"0.0-2.0-35.0"},{"group":"hexagon_tri","room_assignment":["green","blue","red","purple","grey","yellow"],"door_color_assignment":["black","white"],"door_generator_assignment":[1,0],"goal":4,"start":2,"action_noise":0,"location_history":"[2,1,3,4]","action_history":"[0,0,1]","door_history":"[1,1,0]","location_rts":"[3862,635,891]","trial_type":"two-door-navigation","trial_index":38,"time_elapsed":912407,"internal_node_id":"0.0-2.0-36.0"},{"group":"hexagon_tri","room_assignment":["green","blue","red","purple","grey","yellow"],"door_color_assignment":["black","white"],"door_generator_assignment":[1,0],"goal":5,"start":4,"action_noise":0,"location_history":"[4,2,3,4,0,5]","action_history":"[1,1,1,0,0]","door_history":"[0,0,0,1,1]","location_rts":"[4377,5311,5158,2393,2836]","trial_type":"two-door-navigation","trial_index":39,"time_elapsed":941686,"internal_node_id":"0.0-2.0-37.0"},{"group":"hexagon_tri","room_assignment":["green","blue","red","purple","grey","yellow"],"door_color_assignment":["black","white"],"door_generator_assignment":[1,0],"goal":1,"start":5,"action_noise":0,"location_history":"[5,0,1]","action_history":"[1,1]","door_history":"[0,0]","location_rts":"[9918,304]","trial_type":"two-door-navigation","trial_index":40,"time_elapsed":958011,"internal_node_id":"0.0-2.0-38.0"},{"group":"hexagon_tri","room_assignment":["green","blue","red","purple","grey","yellow"],"door_color_assignment":["black","white"],"door_generator_assignment":[1,0],"goal":4,"start":1,"action_noise":0,"location_history":"[1,3,4]","action_history":"[0,1]","door_history":"[1,0]","location_rts":"[8245,1705]","trial_type":"two-door-navigation","trial_index":41,"time_elapsed":974057,"internal_node_id":"0.0-2.0-39.0"},{"group":"hexagon_tri","room_assignment":["green","blue","red","purple","grey","yellow"],"door_color_assignment":["black","white"],"door_generator_assignment":[1,0],"goal":3,"start":4,"action_noise":0,"location_history":"[4,2,1,3]","action_history":"[1,0,0]","door_history":"[0,1,1]","location_rts":"[4342,3674,260]","trial_type":"two-door-navigation","trial_index":42,"time_elapsed":989452,"internal_node_id":"0.0-2.0-40.0"},{"group":"hexagon_tri","room_assignment":["green","blue","red","purple","grey","yellow"],"door_color_assignment":["black","white"],"door_generator_assignment":[1,0],"goal":2,"start":3,"action_noise":0,"location_history":"[3,2]","action_history":"[0]","door_history":"[1]","location_rts":"[9016]","trial_type":"two-door-navigation","trial_index":43,"time_elapsed":1004072,"internal_node_id":"0.0-2.0-41.0"},{"group":"hexagon_tri","room_assignment":["green","blue","red","purple","grey","yellow"],"door_color_assignment":["black","white"],"door_generator_assignment":[1,0],"goal":0,"start":2,"action_noise":0,"location_history":"[2,1,5,0]","action_history":"[0,1,1]","door_history":"[1,0,0]","location_rts":"[26722,281,3709]","trial_type":"two-door-navigation","trial_index":44,"time_elapsed":1041994,"internal_node_id":"0.0-2.0-42.0"},{"group":"hexagon_tri","room_assignment":["green","blue","red","purple","grey","yellow"],"door_color_assignment":["black","white"],"door_generator_assignment":[1,0],"goal":5,"start":0,"action_noise":0,"location_history":"[0,5]","action_history":"[0]","door_history":"[1]","location_rts":"[5923]","trial_type":"two-door-navigation","trial_index":45,"time_elapsed":1052965,"internal_node_id":"0.0-2.0-43.0"},{"group":"hexagon_tri","room_assignment":["green","blue","red","purple","grey","yellow"],"door_color_assignment":["black","white"],"door_generator_assignment":[1,0],"goal":0,"start":5,"action_noise":0,"location_history":"[5,0]","action_history":"[1]","door_history":"[0]","location_rts":"[8069]","trial_type":"two-door-navigation","trial_index":46,"time_elapsed":1066093,"internal_node_id":"0.0-2.0-44.0"},{"group":"hexagon_tri","room_assignment":["green","blue","red","purple","grey","yellow"],"door_color_assignment":["black","white"],"door_generator_assignment":[1,0],"goal":2,"start":0,"action_noise":0,"location_history":"[0,1,5,4,2]","action_history":"[1,1,0,1]","door_history":"[0,0,1,0]","location_rts":"[20098,5905,11732,4127]","trial_type":"two-door-navigation","trial_index":47,"time_elapsed":1116098,"internal_node_id":"0.0-2.0-45.0"},{"group":"hexagon_tri","room_assignment":["green","blue","red","purple","grey","yellow"],"door_color_assignment":["black","white"],"door_generator_assignment":[1,0],"goal":4,"start":2,"action_noise":0,"location_history":"[2,1,3,4]","action_history":"[0,0,1]","door_history":"[1,1,0]","location_rts":"[3184,1871,600]","trial_type":"two-door-navigation","trial_index":48,"time_elapsed":1128934,"internal_node_id":"0.0-2.0-46.0"},{"group":"hexagon_tri","room_assignment":["green","blue","red","purple","grey","yellow"],"door_color_assignment":["black","white"],"door_generator_assignment":[1,0],"goal":1,"start":4,"action_noise":0,"location_history":"[4,0,5,0,1]","action_history":"[0,0,1,1]","door_history":"[1,1,0,0]","location_rts":"[10646,5200,10098,4042]","trial_type":"two-door-navigation","trial_index":49,"time_elapsed":1167122,"internal_node_id":"0.0-2.0-47.0"},{"group":"hexagon_tri","room_assignment":["green","blue","red","purple","grey","yellow"],"door_color_assignment":["black","white"],"door_generator_assignment":[1,0],"goal":5,"start":1,"action_noise":0,"location_history":"[1,5]","action_history":"[1]","door_history":"[0]","location_rts":"[5386]","trial_type":"two-door-navigation","trial_index":50,"time_elapsed":1177560,"internal_node_id":"0.0-2.0-48.0"},{"group":"hexagon_tri","room_assignment":["green","blue","red","purple","grey","yellow"],"door_color_assignment":["black","white"],"door_generator_assignment":[1,0],"goal":3,"start":5,"action_noise":0,"location_history":"[5,4,0,5,0,1,3]","action_history":"[0,0,0,1,1,0]","door_history":"[1,1,1,0,0,1]","location_rts":"[19077,6683,2045,1516,832,3513]","trial_type":"two-door-navigation","trial_index":51,"time_elapsed":1221482,"internal_node_id":"0.0-2.0-49.0"},{"view_history":"[{\"page_index\":0,\"viewing_time\":128843}]","rt":128843,"trial_type":"instructions","trial_index":52,"time_elapsed":1351328,"internal_node_id":"0.0-3.0"},{"view_history":"[{\"page_index\":0,\"viewing_time\":1343},{\"page_index\":1,\"viewing_time\":60919}]","rt":62263,"trial_type":"instructions","trial_index":53,"time_elapsed":1414596,"internal_node_id":"0.0-4.0"},{"group":"hexagon_tri","fractal_assignment":["../images/blu_wht.png","../images/org_blu.png","../images/cyn_red.png","../images/gry_blk.png","../images/pnk_blu.png","../images/ylw_slt.png"],"mutagen_generator_assignment":[0,1],"goal":3,"start":5,"action_noise":0,"location_history":"[5,4,2,3]","action_history":"[0,1,1]","mutagen_history":"[0,1,1]","location_rts":"[21283,662,457]","trial_type":"fractal-mutation","trial_index":54,"time_elapsed":1444261,"internal_node_id":"0.0-5.0-0.0"},{"group":"hexagon_tri","fractal_assignment":["../images/blu_wht.png","../images/org_blu.png","../images/cyn_red.png","../images/gry_blk.png","../images/pnk_blu.png","../images/ylw_slt.png"],"mutagen_generator_assignment":[0,1],"goal":1,"start":3,"action_noise":0,"location_history":"[3,2,3,4,0,5,4,0,1]","action_history":"[0,1,1,0,0,0,0,1]","mutagen_history":"[0,1,1,0,0,0,0,1]","location_rts":"[2773,1141,561,610,544,474,1705,462]","trial_type":"fractal-mutation","trial_index":55,"time_elapsed":1465220,"internal_node_id":"0.0-5.0-1.0"},{"group":"hexagon_tri","fractal_assignment":["../images/blu_wht.png","../images/org_blu.png","../images/cyn_red.png","../images/gry_blk.png","../images/pnk_blu.png","../images/ylw_slt.png"],"mutagen_generator_assignment":[0,1],"goal":0,"start":1,"action_noise":0,"location_history":"[1,3,2,1,3,4,2,3,4,2,1,3,2,1,3,2,3,2,3,4,0]","action_history":"[0,0,0,0,1,1,1,1,1,0,0,0,0,0,0,1,0,1,1,0]","mutagen_history":"[0,0,0,0,1,1,1,1,1,0,0,0,0,0,0,1,0,1,1,0]","location_rts":"[1953,754,450,566,561,632,543,1575,567,521,583,1973,979,631,725,558,1044,462,745,804]","trial_type":"fractal-mutation","trial_index":56,"time_elapsed":1507517,"internal_node_id":"0.0-5.0-2.0"},{"group":"hexagon_tri","fractal_assignment":["../images/blu_wht.png","../images/org_blu.png","../images/cyn_red.png","../images/gry_blk.png","../images/pnk_blu.png","../images/ylw_slt.png"],"mutagen_generator_assignment":[0,1],"goal":3,"start":0,"action_noise":0,"location_history":"[0,1,5,4,0,5,0,1,5,0,5,4,0,5,4,2,3]","action_history":"[1,1,0,0,0,1,1,1,1,0,0,0,0,0,1,1]","mutagen_history":"[1,1,0,0,0,1,1,1,1,0,0,0,0,0,1,1]","location_rts":"[2710,564,1323,696,1114,907,679,481,456,741,548,640,1044,630,561,717]","trial_type":"fractal-mutation","trial_index":57,"time_elapsed":1542662,"internal_node_id":"0.0-5.0-3.0"},{"group":"hexagon_tri","fractal_assignment":["../images/blu_wht.png","../images/org_blu.png","../images/cyn_red.png","../images/gry_blk.png","../images/pnk_blu.png","../images/ylw_slt.png"],"mutagen_generator_assignment":[0,1],"goal":4,"start":3,"action_noise":0,"location_history":"[3,2,3,4]","action_history":"[0,1,1]","mutagen_history":"[0,1,1]","location_rts":"[3233,2172,649]","trial_type":"fractal-mutation","trial_index":58,"time_elapsed":1555983,"internal_node_id":"0.0-5.0-4.0"},{"group":"hexagon_tri","fractal_assignment":["../images/blu_wht.png","../images/org_blu.png","../images/cyn_red.png","../images/gry_blk.png","../images/pnk_blu.png","../images/ylw_slt.png"],"mutagen_generator_assignment":[0,1],"goal":2,"start":4,"action_noise":0,"location_history":"[4,2]","action_history":"[1]","mutagen_history":"[1]","location_rts":"[1781]","trial_type":"fractal-mutation","trial_index":59,"time_elapsed":1562862,"internal_node_id":"0.0-5.0-5.0"},{"group":"hexagon_tri","fractal_assignment":["../images/blu_wht.png","../images/org_blu.png","../images/cyn_red.png","../images/gry_blk.png","../images/pnk_blu.png","../images/ylw_slt.png"],"mutagen_generator_assignment":[0,1],"goal":1,"start":2,"action_noise":0,"location_history":"[2,1]","action_history":"[0]","mutagen_history":"[0]","location_rts":"[17976]","trial_type":"fractal-mutation","trial_index":60,"time_elapsed":1585929,"internal_node_id":"0.0-5.0-6.0"},{"group":"hexagon_tri","fractal_assignment":["../images/blu_wht.png","../images/org_blu.png","../images/cyn_red.png","../images/gry_blk.png","../images/pnk_blu.png","../images/ylw_slt.png"],"mutagen_generator_assignment":[0,1],"goal":5,"start":1,"action_noise":0,"location_history":"[1,5]","action_history":"[1]","mutagen_history":"[1]","location_rts":"[1321]","trial_type":"fractal-mutation","trial_index":61,"time_elapsed":1592344,"internal_node_id":"0.0-5.0-7.0"},{"group":"hexagon_tri","fractal_assignment":["../images/blu_wht.png","../images/org_blu.png","../images/cyn_red.png","../images/gry_blk.png","../images/pnk_blu.png","../images/ylw_slt.png"],"mutagen_generator_assignment":[0,1],"goal":4,"start":5,"action_noise":0,"location_history":"[5,4]","action_history":"[0]","mutagen_history":"[0]","location_rts":"[1481]","trial_type":"fractal-mutation","trial_index":62,"time_elapsed":1598921,"internal_node_id":"0.0-5.0-8.0"},{"group":"hexagon_tri","fractal_assignment":["../images/blu_wht.png","../images/org_blu.png","../images/cyn_red.png","../images/gry_blk.png","../images/pnk_blu.png","../images/ylw_slt.png"],"mutagen_generator_assignment":[0,1],"goal":2,"start":4,"action_noise":0,"location_history":"[4,2]","action_history":"[1]","mutagen_history":"[1]","location_rts":"[1137]","trial_type":"fractal-mutation","trial_index":63,"time_elapsed":1605164,"internal_node_id":"0.0-5.0-9.0"},{"group":"hexagon_tri","fractal_assignment":["../images/blu_wht.png","../images/org_blu.png","../images/cyn_red.png","../images/gry_blk.png","../images/pnk_blu.png","../images/ylw_slt.png"],"mutagen_generator_assignment":[0,1],"goal":0,"start":2,"action_noise":0,"location_history":"[2,3,4,0]","action_history":"[1,1,0]","mutagen_history":"[1,1,0]","location_rts":"[1565,956,1087]","trial_type":"fractal-mutation","trial_index":64,"time_elapsed":1616012,"internal_node_id":"0.0-5.0-10.0"},{"group":"hexagon_tri","fractal_assignment":["../images/blu_wht.png","../images/org_blu.png","../images/cyn_red.png","../images/gry_blk.png","../images/pnk_blu.png","../images/ylw_slt.png"],"mutagen_generator_assignment":[0,1],"goal":1,"start":0,"action_noise":0,"location_history":"[0,1]","action_history":"[1]","mutagen_history":"[1]","location_rts":"[4379]","trial_type":"fractal-mutation","trial_index":65,"time_elapsed":1625500,"internal_node_id":"0.0-5.0-11.0"},{"group":"hexagon_tri","fractal_assignment":["../images/blu_wht.png","../images/org_blu.png","../images/cyn_red.png","../images/gry_blk.png","../images/pnk_blu.png","../images/ylw_slt.png"],"mutagen_generator_assignment":[0,1],"goal":3,"start":1,"action_noise":0,"location_history":"[1,5,4,2,3]","action_history":"[1,0,1,1]","mutagen_history":"[1,0,1,1]","location_rts":"[1598,436,633,492]","trial_type":"fractal-mutation","trial_index":66,"time_elapsed":1637012,"internal_node_id":"0.0-5.0-12.0"},{"group":"hexagon_tri","fractal_assignment":["../images/blu_wht.png","../images/org_blu.png","../images/cyn_red.png","../images/gry_blk.png","../images/pnk_blu.png","../images/ylw_slt.png"],"mutagen_generator_assignment":[0,1],"goal":5,"start":3,"action_noise":0,"location_history":"[3,4,2,1,3,2,3,4,2,3,2,1,3,2,1,5]","action_history":"[1,1,0,0,0,1,1,1,1,0,0,0,0,0,1]","mutagen_history":"[1,1,0,0,0,1,1,1,1,0,0,0,0,0,1]","location_rts":"[2547,1071,532,1026,840,655,1169,619,553,793,598,633,615,482,348]","trial_type":"fractal-mutation","trial_index":67,"time_elapsed":1669720,"internal_node_id":"0.0-5.0-13.0"},{"group":"hexagon_tri","fractal_assignment":["../images/blu_wht.png","../images/org_blu.png","../images/cyn_red.png","../images/gry_blk.png","../images/pnk_blu.png","../images/ylw_slt.png"],"mutagen_generator_assignment":[0,1],"goal":4,"start":5,"action_noise":0,"location_history":"[5,0,5,0,1,5,0,1,3,4]","action_history":"[1,0,1,1,1,1,1,0,1]","mutagen_history":"[1,0,1,1,1,1,1,0,1]","location_rts":"[1806,1545,833,669,748,705,801,417,586]","trial_type":"fractal-mutation","trial_index":68,"time_elapsed":1691593,"internal_node_id":"0.0-5.0-14.0"},{"group":"hexagon_tri","fractal_assignment":["../images/blu_wht.png","../images/org_blu.png","../images/cyn_red.png","../images/gry_blk.png","../images/pnk_blu.png","../images/ylw_slt.png"],"mutagen_generator_assignment":[0,1],"goal":0,"start":4,"action_noise":0,"location_history":"[4,0]","action_history":"[0]","mutagen_history":"[0]","location_rts":"[1733]","trial_type":"fractal-mutation","trial_index":69,"time_elapsed":1698424,"internal_node_id":"0.0-5.0-15.0"},{"group":"hexagon_tri","fractal_assignment":["../images/blu_wht.png","../images/org_blu.png","../images/cyn_red.png","../images/gry_blk.png","../images/pnk_blu.png","../images/ylw_slt.png"],"mutagen_generator_assignment":[0,1],"goal":3,"start":0,"action_noise":0,"location_history":"[0,1,3]","action_history":"[1,0]","mutagen_history":"[1,0]","location_rts":"[1895,648]","trial_type":"fractal-mutation","trial_index":70,"time_elapsed":1707159,"internal_node_id":"0.0-5.0-16.0"},{"group":"hexagon_tri","fractal_assignment":["../images/blu_wht.png","../images/org_blu.png","../images/cyn_red.png","../images/gry_blk.png","../images/pnk_blu.png","../images/ylw_slt.png"],"mutagen_generator_assignment":[0,1],"goal":1,"start":3,"action_noise":0,"location_history":"[3,2,3,4,0,5,4,0,1]","action_history":"[0,1,1,0,0,0,0,1]","mutagen_history":"[0,1,1,0,0,0,0,1]","location_rts":"[4094,2809,753,441,477,654,771,427]","trial_type":"fractal-mutation","trial_index":71,"time_elapsed":1730220,"internal_node_id":"0.0-5.0-17.0"},{"group":"hexagon_tri","fractal_assignment":["../images/blu_wht.png","../images/org_blu.png","../images/cyn_red.png","../images/gry_blk.png","../images/pnk_blu.png","../images/ylw_slt.png"],"mutagen_generator_assignment":[0,1],"goal":5,"start":1,"action_noise":0,"location_history":"[1,5]","action_history":"[1]","mutagen_history":"[1]","location_rts":"[2089]","trial_type":"fractal-mutation","trial_index":72,"time_elapsed":1737397,"internal_node_id":"0.0-5.0-18.0"},{"group":"hexagon_tri","fractal_assignment":["../images/blu_wht.png","../images/org_blu.png","../images/cyn_red.png","../images/gry_blk.png","../images/pnk_blu.png","../images/ylw_slt.png"],"mutagen_generator_assignment":[0,1],"goal":2,"start":5,"action_noise":0,"location_history":"[5,4,2]","action_history":"[0,1]","mutagen_history":"[0,1]","location_rts":"[1903,603]","trial_type":"fractal-mutation","trial_index":73,"time_elapsed":1746096,"internal_node_id":"0.0-5.0-19.0"},{"group":"hexagon_tri","fractal_assignment":["../images/blu_wht.png","../images/org_blu.png","../images/cyn_red.png","../images/gry_blk.png","../images/pnk_blu.png","../images/ylw_slt.png"],"mutagen_generator_assignment":[0,1],"goal":4,"start":2,"action_noise":0,"location_history":"[2,3,4]","action_history":"[1,1]","mutagen_history":"[1,1]","location_rts":"[2195,862]","trial_type":"fractal-mutation","trial_index":74,"time_elapsed":1755338,"internal_node_id":"0.0-5.0-20.0"},{"group":"hexagon_tri","fractal_assignment":["../images/blu_wht.png","../images/org_blu.png","../images/cyn_red.png","../images/gry_blk.png","../images/pnk_blu.png","../images/ylw_slt.png"],"mutagen_generator_assignment":[0,1],"goal":1,"start":4,"action_noise":0,"location_history":"[4,0,5,4,2,3,4,0,5,4,0,1]","action_history":"[0,0,0,1,1,1,0,0,0,0,1]","mutagen_history":"[0,0,0,1,1,1,0,0,0,0,1]","location_rts":"[1543,778,1125,692,700,931,780,526,903,1033,415]","trial_type":"fractal-mutation","trial_index":75,"time_elapsed":1780682,"internal_node_id":"0.0-5.0-21.0"},{"group":"hexagon_tri","fractal_assignment":["../images/blu_wht.png","../images/org_blu.png","../images/cyn_red.png","../images/gry_blk.png","../images/pnk_blu.png","../images/ylw_slt.png"],"mutagen_generator_assignment":[0,1],"goal":3,"start":1,"action_noise":0,"location_history":"[1,5,0,5,4,2,1,3]","action_history":"[1,1,0,0,1,0,0]","mutagen_history":"[1,1,0,0,1,0,0]","location_rts":"[5012,684,1064,765,598,767,563]","trial_type":"fractal-mutation","trial_index":76,"time_elapsed":1801733,"internal_node_id":"0.0-5.0-22.0"},{"group":"hexagon_tri","fractal_assignment":["../images/blu_wht.png","../images/org_blu.png","../images/cyn_red.png","../images/gry_blk.png","../images/pnk_blu.png","../images/ylw_slt.png"],"mutagen_generator_assignment":[0,1],"goal":2,"start":3,"action_noise":0,"location_history":"[3,4,0,1,5,0,5,4,0,1,3,2]","action_history":"[1,0,1,1,1,0,0,0,1,0,0]","mutagen_history":"[1,0,1,1,1,0,0,0,1,0,0]","location_rts":"[1580,642,1186,821,609,991,707,803,895,515,611]","trial_type":"fractal-mutation","trial_index":77,"time_elapsed":1827068,"internal_node_id":"0.0-5.0-23.0"},{"group":"hexagon_tri","fractal_assignment":["../images/blu_wht.png","../images/org_blu.png","../images/cyn_red.png","../images/gry_blk.png","../images/pnk_blu.png","../images/ylw_slt.png"],"mutagen_generator_assignment":[0,1],"goal":0,"start":2,"action_noise":0,"location_history":"[2,1,3,4,0]","action_history":"[0,0,1,0]","mutagen_history":"[0,0,1,0]","location_rts":"[1843,1070,937,511]","trial_type":"fractal-mutation","trial_index":78,"time_elapsed":1839768,"internal_node_id":"0.0-5.0-24.0"},{"group":"hexagon_tri","fractal_assignment":["../images/blu_wht.png","../images/org_blu.png","../images/cyn_red.png","../images/gry_blk.png","../images/pnk_blu.png","../images/ylw_slt.png"],"mutagen_generator_assignment":[0,1],"goal":5,"start":0,"action_noise":0,"location_history":"[0,1,3,2,1,3,4,2,3,2,3,4,0,5]","action_history":"[1,0,0,0,0,1,1,1,0,1,1,0,0]","mutagen_history":"[1,0,0,0,0,1,1,1,0,1,1,0,0]","location_rts":"[1728,696,591,600,533,887,467,712,483,364,456,608,419]","trial_type":"fractal-mutation","trial_index":79,"time_elapsed":1866411,"internal_node_id":"0.0-5.0-25.0"},{"group":"hexagon_tri","fractal_assignment":["../images/blu_wht.png","../images/org_blu.png","../images/cyn_red.png","../images/gry_blk.png","../images/pnk_blu.png","../images/ylw_slt.png"],"mutagen_generator_assignment":[0,1],"goal":2,"start":5,"action_noise":0,"location_history":"[5,4,2]","action_history":"[0,1]","mutagen_history":"[0,1]","location_rts":"[7068,51094]","trial_type":"fractal-mutation","trial_index":80,"time_elapsed":1930743,"internal_node_id":"0.0-5.0-26.0"},{"group":"hexagon_tri","fractal_assignment":["../images/blu_wht.png","../images/org_blu.png","../images/cyn_red.png","../images/gry_blk.png","../images/pnk_blu.png","../images/ylw_slt.png"],"mutagen_generator_assignment":[0,1],"goal":3,"start":2,"action_noise":0,"location_history":"[2,3]","action_history":"[1]","mutagen_history":"[1]","location_rts":"[1236]","trial_type":"fractal-mutation","trial_index":81,"time_elapsed":1937075,"internal_node_id":"0.0-5.0-27.0"},{"group":"hexagon_tri","fractal_assignment":["../images/blu_wht.png","../images/org_blu.png","../images/cyn_red.png","../images/gry_blk.png","../images/pnk_blu.png","../images/ylw_slt.png"],"mutagen_generator_assignment":[0,1],"goal":0,"start":3,"action_noise":0,"location_history":"[3,2,3,4,0]","action_history":"[0,1,1,0]","mutagen_history":"[0,1,1,0]","location_rts":"[5969,903,643,673]","trial_type":"fractal-mutation","trial_index":82,"time_elapsed":1953623,"internal_node_id":"0.0-5.0-28.0"},{"group":"hexagon_tri","fractal_assignment":["../images/blu_wht.png","../images/org_blu.png","../images/cyn_red.png","../images/gry_blk.png","../images/pnk_blu.png","../images/ylw_slt.png"],"mutagen_generator_assignment":[0,1],"goal":1,"start":0,"action_noise":0,"location_history":"[0,5,0,1]","action_history":"[0,1,1]","mutagen_history":"[0,1,1]","location_rts":"[3164,709,592]","trial_type":"fractal-mutation","trial_index":83,"time_elapsed":1965343,"internal_node_id":"0.0-5.0-29.0"},{"group":"hexagon_tri","fractal_assignment":["../images/blu_wht.png","../images/org_blu.png","../images/cyn_red.png","../images/gry_blk.png","../images/pnk_blu.png","../images/ylw_slt.png"],"mutagen_generator_assignment":[0,1],"goal":4,"start":1,"action_noise":0,"location_history":"[1,3,4]","action_history":"[0,1]","mutagen_history":"[0,1]","location_rts":"[4627,426]","trial_type":"fractal-mutation","trial_index":84,"time_elapsed":1976583,"internal_node_id":"0.0-5.0-30.0"},{"group":"hexagon_tri","fractal_assignment":["../images/blu_wht.png","../images/org_blu.png","../images/cyn_red.png","../images/gry_blk.png","../images/pnk_blu.png","../images/ylw_slt.png"],"mutagen_generator_assignment":[0,1],"goal":5,"start":4,"action_noise":0,"location_history":"[4,2,3,2,1,5]","action_history":"[1,1,0,0,1]","mutagen_history":"[1,1,0,0,1]","location_rts":"[2421,556,653,578,772]","trial_type":"fractal-mutation","trial_index":85,"time_elapsed":1990990,"internal_node_id":"0.0-5.0-31.0"},{"group":"hexagon_tri","fractal_assignment":["../images/blu_wht.png","../images/org_blu.png","../images/cyn_red.png","../images/gry_blk.png","../images/pnk_blu.png","../images/ylw_slt.png"],"mutagen_generator_assignment":[0,1],"goal":0,"start":5,"action_noise":0,"location_history":"[5,4,0]","action_history":"[0,0]","mutagen_history":"[0,0]","location_rts":"[1787,661]","trial_type":"fractal-mutation","trial_index":86,"time_elapsed":1999606,"internal_node_id":"0.0-5.0-32.0"},{"group":"hexagon_tri","fractal_assignment":["../images/blu_wht.png","../images/org_blu.png","../images/cyn_red.png","../images/gry_blk.png","../images/pnk_blu.png","../images/ylw_slt.png"],"mutagen_generator_assignment":[0,1],"goal":3,"start":0,"action_noise":0,"location_history":"[0,5,0,1,3]","action_history":"[0,1,1,0]","mutagen_history":"[0,1,1,0]","location_rts":"[1260,469,633,746]","trial_type":"fractal-mutation","trial_index":87,"time_elapsed":2011056,"internal_node_id":"0.0-5.0-33.0"},{"group":"hexagon_tri","fractal_assignment":["../images/blu_wht.png","../images/org_blu.png","../images/cyn_red.png","../images/gry_blk.png","../images/pnk_blu.png","../images/ylw_slt.png"],"mutagen_generator_assignment":[0,1],"goal":1,"start":3,"action_noise":0,"location_history":"[3,2,3,4,0,5,0,1]","action_history":"[0,1,1,0,0,1,1]","mutagen_history":"[0,1,1,0,0,1,1]","location_rts":"[1080,462,639,617,677,791,637]","trial_type":"fractal-mutation","trial_index":88,"time_elapsed":2027567,"internal_node_id":"0.0-5.0-34.0"},{"group":"hexagon_tri","fractal_assignment":["../images/blu_wht.png","../images/org_blu.png","../images/cyn_red.png","../images/gry_blk.png","../images/pnk_blu.png","../images/ylw_slt.png"],"mutagen_generator_assignment":[0,1],"goal":2,"start":1,"action_noise":0,"location_history":"[1,3,2]","action_history":"[0,0]","mutagen_history":"[0,0]","location_rts":"[1313,836]","trial_type":"fractal-mutation","trial_index":89,"time_elapsed":2035902,"internal_node_id":"0.0-5.0-35.0"},{"group":"hexagon_tri","fractal_assignment":["../images/blu_wht.png","../images/org_blu.png","../images/cyn_red.png","../images/gry_blk.png","../images/pnk_blu.png","../images/ylw_slt.png"],"mutagen_generator_assignment":[0,1],"goal":4,"start":2,"action_noise":0,"location_history":"[2,3,4]","action_history":"[1,1]","mutagen_history":"[1,1]","location_rts":"[3105,740]","trial_type":"fractal-mutation","trial_index":90,"time_elapsed":2045937,"internal_node_id":"0.0-5.0-36.0"},{"group":"hexagon_tri","fractal_assignment":["../images/blu_wht.png","../images/org_blu.png","../images/cyn_red.png","../images/gry_blk.png","../images/pnk_blu.png","../images/ylw_slt.png"],"mutagen_generator_assignment":[0,1],"goal":5,"start":4,"action_noise":0,"location_history":"[4,0,5]","action_history":"[0,0]","mutagen_history":"[0,0]","location_rts":"[1088,758]","trial_type":"fractal-mutation","trial_index":91,"time_elapsed":2053964,"internal_node_id":"0.0-5.0-37.0"},{"group":"hexagon_tri","fractal_assignment":["../images/blu_wht.png","../images/org_blu.png","../images/cyn_red.png","../images/gry_blk.png","../images/pnk_blu.png","../images/ylw_slt.png"],"mutagen_generator_assignment":[0,1],"goal":1,"start":5,"action_noise":0,"location_history":"[5,0,1]","action_history":"[1,1]","mutagen_history":"[1,1]","location_rts":"[780,464]","trial_type":"fractal-mutation","trial_index":92,"time_elapsed":2061390,"internal_node_id":"0.0-5.0-38.0"},{"group":"hexagon_tri","fractal_assignment":["../images/blu_wht.png","../images/org_blu.png","../images/cyn_red.png","../images/gry_blk.png","../images/pnk_blu.png","../images/ylw_slt.png"],"mutagen_generator_assignment":[0,1],"goal":4,"start":1,"action_noise":0,"location_history":"[1,5,4]","action_history":"[1,0]","mutagen_history":"[1,0]","location_rts":"[1656,493]","trial_type":"fractal-mutation","trial_index":93,"time_elapsed":2069715,"internal_node_id":"0.0-5.0-39.0"},{"group":"hexagon_tri","fractal_assignment":["../images/blu_wht.png","../images/org_blu.png","../images/cyn_red.png","../images/gry_blk.png","../images/pnk_blu.png","../images/ylw_slt.png"],"mutagen_generator_assignment":[0,1],"goal":3,"start":4,"action_noise":0,"location_history":"[4,0,1,3]","action_history":"[0,1,0]","mutagen_history":"[0,1,0]","location_rts":"[1014,458,563]","trial_type":"fractal-mutation","trial_index":94,"time_elapsed":2079011,"internal_node_id":"0.0-5.0-40.0"},{"group":"hexagon_tri","fractal_assignment":["../images/blu_wht.png","../images/org_blu.png","../images/cyn_red.png","../images/gry_blk.png","../images/pnk_blu.png","../images/ylw_slt.png"],"mutagen_generator_assignment":[0,1],"goal":2,"start":3,"action_noise":0,"location_history":"[3,2]","action_history":"[0]","mutagen_history":"[0]","location_rts":"[1163]","trial_type":"fractal-mutation","trial_index":95,"time_elapsed":2085266,"internal_node_id":"0.0-5.0-41.0"},{"group":"hexagon_tri","fractal_assignment":["../images/blu_wht.png","../images/org_blu.png","../images/cyn_red.png","../images/gry_blk.png","../images/pnk_blu.png","../images/ylw_slt.png"],"mutagen_generator_assignment":[0,1],"goal":0,"start":2,"action_noise":0,"location_history":"[2,1,3,2,3,4,0]","action_history":"[0,0,0,1,1,0]","mutagen_history":"[0,0,0,1,1,0]","location_rts":"[1691,632,512,408,432,492]","trial_type":"fractal-mutation","trial_index":96,"time_elapsed":2099959,"internal_node_id":"0.0-5.0-42.0"},{"group":"hexagon_tri","fractal_assignment":["../images/blu_wht.png","../images/org_blu.png","../images/cyn_red.png","../images/gry_blk.png","../images/pnk_blu.png","../images/ylw_slt.png"],"mutagen_generator_assignment":[0,1],"goal":5,"start":0,"action_noise":0,"location_history":"[0,5]","action_history":"[0]","mutagen_history":"[0]","location_rts":"[2679]","trial_type":"fractal-mutation","trial_index":97,"time_elapsed":2107725,"internal_node_id":"0.0-5.0-43.0"},{"group":"hexagon_tri","fractal_assignment":["../images/blu_wht.png","../images/org_blu.png","../images/cyn_red.png","../images/gry_blk.png","../images/pnk_blu.png","../images/ylw_slt.png"],"mutagen_generator_assignment":[0,1],"goal":0,"start":5,"action_noise":0,"location_history":"[5,4,2,3,2,1,3,4,0]","action_history":"[0,1,1,0,0,0,1,0]","mutagen_history":"[0,1,1,0,0,0,1,0]","location_rts":"[1064,472,677,520,430,472,420,774]","trial_type":"fractal-mutation","trial_index":98,"time_elapsed":2125228,"internal_node_id":"0.0-5.0-44.0"},{"group":"hexagon_tri","fractal_assignment":["../images/blu_wht.png","../images/org_blu.png","../images/cyn_red.png","../images/gry_blk.png","../images/pnk_blu.png","../images/ylw_slt.png"],"mutagen_generator_assignment":[0,1],"goal":2,"start":0,"action_noise":0,"location_history":"[0,5,0,1,3,2]","action_history":"[0,1,1,0,0]","mutagen_history":"[0,1,1,0,0]","location_rts":"[1169,744,606,928,628]","trial_type":"fractal-mutation","trial_index":99,"time_elapsed":2138727,"internal_node_id":"0.0-5.0-45.0"},{"group":"hexagon_tri","fractal_assignment":["../images/blu_wht.png","../images/org_blu.png","../images/cyn_red.png","../images/gry_blk.png","../images/pnk_blu.png","../images/ylw_slt.png"],"mutagen_generator_assignment":[0,1],"goal":4,"start":2,"action_noise":0,"location_history":"[2,3,4]","action_history":"[1,1]","mutagen_history":"[1,1]","location_rts":"[1085,554]","trial_type":"fractal-mutation","trial_index":100,"time_elapsed":2146551,"internal_node_id":"0.0-5.0-46.0"},{"group":"hexagon_tri","fractal_assignment":["../images/blu_wht.png","../images/org_blu.png","../images/cyn_red.png","../images/gry_blk.png","../images/pnk_blu.png","../images/ylw_slt.png"],"mutagen_generator_assignment":[0,1],"goal":1,"start":4,"action_noise":0,"location_history":"[4,0,1]","action_history":"[0,1]","mutagen_history":"[0,1]","location_rts":"[1078,622]","trial_type":"fractal-mutation","trial_index":101,"time_elapsed":2154438,"internal_node_id":"0.0-5.0-47.0"},{"group":"hexagon_tri","fractal_assignment":["../images/blu_wht.png","../images/org_blu.png","../images/cyn_red.png","../images/gry_blk.png","../images/pnk_blu.png","../images/ylw_slt.png"],"mutagen_generator_assignment":[0,1],"goal":5,"start":1,"action_noise":0,"location_history":"[1,3,4,0,5]","action_history":"[0,1,0,0]","mutagen_history":"[0,1,0,0]","location_rts":"[1285,455,558,523]","trial_type":"fractal-mutation","trial_index":102,"time_elapsed":2165607,"internal_node_id":"0.0-5.0-48.0"},{"group":"hexagon_tri","fractal_assignment":["../images/blu_wht.png","../images/org_blu.png","../images/cyn_red.png","../images/gry_blk.png","../images/pnk_blu.png","../images/ylw_slt.png"],"mutagen_generator_assignment":[0,1],"goal":3,"start":5,"action_noise":0,"location_history":"[5,0,1,3]","action_history":"[1,1,0]","mutagen_history":"[1,1,0]","location_rts":"[2013,478,472]","trial_type":"fractal-mutation","trial_index":103,"time_elapsed":2175826,"internal_node_id":"0.0-5.0-49.0"},{"view_history":"[{\"page_index\":0,\"viewing_time\":4733}]","rt":4733,"trial_type":"instructions","trial_index":104,"time_elapsed":2181564,"internal_node_id":"0.0-6.0"},{"rt":2113,"responses":"{\"Q0\":\"\"}","trial_type":"survey-text","trial_index":105,"time_elapsed":2184686,"internal_node_id":"0.0-7.0"}]