[{"view_history":"[{\"page_index\":0,\"viewing_time\":1058},{\"page_index\":1,\"viewing_time\":1121}]","rt":2180,"trial_type":"instructions","trial_index":0,"time_elapsed":2183,"internal_node_id":"0.0-0.0"},{"view_history":"[{\"page_index\":0,\"viewing_time\":2606},{\"page_index\":1,\"viewing_time\":12007}]","rt":14613,"trial_type":"instructions","trial_index":1,"time_elapsed":17800,"internal_node_id":"0.0-1.0"},{"group":"hexagon_bi","room_assignment":["yellow","red","blue","purple","green","grey"],"door_color_assignment":["black","white"],"door_generator_assignment":[0,1],"goal":3,"start":5,"action_noise":0,"location_history":"[5,4,5,4,5,4,3]","action_history":"[1,1,1,1,1,0]","door_history":"[1,1,1,1,1,0]","location_rts":"[1302,5175,5729,472,832,1175]","trial_type":"two-door-navigation","trial_index":2,"time_elapsed":42834,"internal_node_id":"0.0-2.0-0.0"},{"group":"hexagon_bi","room_assignment":["yellow","red","blue","purple","green","grey"],"door_color_assignment":["black","white"],"door_generator_assignment":[0,1],"goal":1,"start":3,"action_noise":0,"location_history":"[3,4,5,4,3,2,3,4,3,4,5,4,3,4,5,0,1]","action_history":"[0,1,1,0,1,1,0,0,0,1,1,0,0,1,0,1]","door_history":"[0,1,1,0,1,1,0,0,0,1,1,0,0,1,0,1]","location_rts":"[1995,302,291,323,798,307,266,303,319,777,383,899,311,1145,684,1166]","trial_type":"two-door-navigation","trial_index":3,"time_elapsed":73905,"internal_node_id":"0.0-2.0-1.0"},{"group":"hexagon_bi","room_assignment":["yellow","red","blue","purple","green","grey"],"door_color_assignment":["black","white"],"door_generator_assignment":[0,1],"goal":0,"start":1,"action_noise":0,"location_history":"[1,2,3,4,5,0]","action_history":"[0,1,0,1,0]","door_history":"[0,1,0,1,0]","location_rts":"[15575,559,846,330,223]","trial_type":"two-door-navigation","trial_index":4,"time_elapsed":100728,"internal_node_id":"0.0-2.0-2.0"},{"group":"hexagon_bi","room_assignment":["yellow","red","blue","purple","green","grey"],"door_color_assignment":["black","white"],"door_generator_assignment":[0,1],"goal":3,"start":0,"action_noise":0,"location_history":"[0,1,2,1,0,5,0,1,0,1,2,3]","action_history":"[1,0,0,1,0,0,1,1,1,0,1]","door_history":"[1,0,0,1,0,0,1,1,1,0,1]","location_rts":"[2582,341,303,1095,411,679,289,618,378,280,316]","trial_type":"two-door-navigation","trial_index":5,"time_elapsed":123590,"internal_node_id":"0.0-2.0-3.0"},{"group":"hexagon_bi","room_assignment":["yellow","red","blue","purple","green","grey"],"door_color_assignment":["black","white"],"door_generator_assignment":[0,1],"goal":4,"start":3,"action_noise":0,"location_history":"[3,2,3,4]","action_history":"[1,1,0]","door_history":"[1,1,0]","location_rts":"[2060,535,855]","trial_type":"two-door-navigation","trial_index":6,"time_elapsed":134199,"internal_node_id":"0.0-2.0-4.0"},{"group":"hexagon_bi","room_assignment":["yellow","red","blue","purple","green","grey"],"door_color_assignment":["black","white"],"door_generator_assignment":[0,1],"goal":2,"start":4,"action_noise":0,"location_history":"[4,3,2]","action_history":"[0,1]","door_history":"[0,1]","location_rts":"[282,322]","trial_type":"two-door-navigation","trial_index":7,"time_elapsed":140920,"internal_node_id":"0.0-2.0-5.0"},{"group":"hexagon_bi","room_assignment":["yellow","red","blue","purple","green","grey"],"door_color_assignment":["black","white"],"door_generator_assignment":[0,1],"goal":1,"start":2,"action_noise":0,"location_history":"[2,3,4,3,2,3,4,3,2,1]","action_history":"[1,0,0,1,1,0,0,1,0]","door_history":"[1,0,0,1,1,0,0,1,0]","location_rts":"[13732,395,417,332,789,757,752,742,537]","trial_type":"two-door-navigation","trial_index":8,"time_elapsed":172824,"internal_node_id":"0.0-2.0-6.0"},{"group":"hexagon_bi","room_assignment":["yellow","red","blue","purple","green","grey"],"door_color_assignment":["black","white"],"door_generator_assignment":[0,1],"goal":5,"start":1,"action_noise":0,"location_history":"[1,2,3,2,1,2,1,0,1,0,5]","action_history":"[0,1,1,0,0,0,1,1,1,0]","door_history":"[0,1,1,0,0,0,1,1,1,0]","location_rts":"[300,340,332,492,318,311,261,346,333,311]","trial_type":"two-door-navigation","trial_index":9,"time_elapsed":190689,"internal_node_id":"0.0-2.0-7.0"},{"group":"hexagon_bi","room_assignment":["yellow","red","blue","purple","green","grey"],"door_color_assignment":["black","white"],"door_generator_assignment":[0,1],"goal":4,"start":5,"action_noise":0,"location_history":"[5,0,1,0,5,0,1,2,3,4]","action_history":"[0,1,1,0,0,1,0,1,0]","door_history":"[0,1,1,0,0,1,0,1,0]","location_rts":"[1707,374,600,728,1224,1310,1113,660,538]","trial_type":"two-door-navigation","trial_index":10,"time_elapsed":212404,"internal_node_id":"0.0-2.0-8.0"},{"group":"hexagon_bi","room_assignment":["yellow","red","blue","purple","green","grey"],"door_color_assignment":["black","white"],"door_generator_assignment":[0,1],"goal":2,"start":4,"action_noise":0,"location_history":"[4,3,4,3,2]","action_history":"[0,0,0,1]","door_history":"[0,0,0,1]","location_rts":"[7947,330,300,242]","trial_type":"two-door-navigation","trial_index":11,"time_elapsed":229430,"internal_node_id":"0.0-2.0-9.0"},{"group":"hexagon_bi","room_assignment":["yellow","red","blue","purple","green","grey"],"door_color_assignment":["black","white"],"door_generator_assignment":[0,1],"goal":0,"start":2,"action_noise":0,"location_history":"[2,1,0]","action_history":"[0,1]","door_history":"[0,1]","location_rts":"[322,293]","trial_type":"two-door-navigation","trial_index":12,"time_elapsed":236149,"internal_node_id":"0.0-2.0-10.0"},{"group":"hexagon_bi","room_assignment":["yellow","red","blue","purple","green","grey"],"door_color_assignment":["black","white"],"door_generator_assignment":[0,1],"goal":1,"start":0,"action_noise":0,"location_history":"[0,5,0,1]","action_history":"[0,0,1]","door_history":"[0,0,1]","location_rts":"[28924,639,1144]","trial_type":"two-door-navigation","trial_index":13,"time_elapsed":274019,"internal_node_id":"0.0-2.0-11.0"},{"group":"hexagon_bi","room_assignment":["yellow","red","blue","purple","green","grey"],"door_color_assignment":["black","white"],"door_generator_assignment":[0,1],"goal":3,"start":1,"action_noise":0,"location_history":"[1,2,1,2,3]","action_history":"[0,0,0,1]","door_history":"[0,0,0,1]","location_rts":"[25209,409,781,213]","trial_type":"two-door-navigation","trial_index":14,"time_elapsed":308853,"internal_node_id":"0.0-2.0-12.0"},{"group":"hexagon_bi","room_assignment":["yellow","red","blue","purple","green","grey"],"door_color_assignment":["black","white"],"door_generator_assignment":[0,1],"goal":5,"start":3,"action_noise":0,"location_history":"[3,2,1,2,1,0,1,0,5]","action_history":"[1,0,0,0,1,1,1,0]","door_history":"[1,0,0,0,1,1,1,0]","location_rts":"[425,544,617,1320,356,647,1352,239]","trial_type":"two-door-navigation","trial_index":15,"time_elapsed":326760,"internal_node_id":"0.0-2.0-13.0"},{"group":"hexagon_bi","room_assignment":["yellow","red","blue","purple","green","grey"],"door_color_assignment":["black","white"],"door_generator_assignment":[0,1],"goal":4,"start":5,"action_noise":0,"location_history":"[5,0,1,2,3,2,1,2,1,0,5,4]","action_history":"[0,1,0,1,1,0,0,0,1,0,1]","door_history":"[0,1,0,1,1,0,0,0,1,0,1]","location_rts":"[1306,535,692,512,870,926,494,1191,236,1084,1111]","trial_type":"two-door-navigation","trial_index":16,"time_elapsed":351267,"internal_node_id":"0.0-2.0-14.0"},{"group":"hexagon_bi","room_assignment":["yellow","red","blue","purple","green","grey"],"door_color_assignment":["black","white"],"door_generator_assignment":[0,1],"goal":0,"start":4,"action_noise":0,"location_history":"[4,3,2,1,2,3,2,1,2,1,0]","action_history":"[0,1,0,0,1,1,0,0,0,1]","door_history":"[0,1,0,0,1,1,0,0,0,1]","location_rts":"[6126,441,542,1077,262,398,869,684,395,229]","trial_type":"two-door-navigation","trial_index":17,"time_elapsed":376792,"internal_node_id":"0.0-2.0-15.0"},{"group":"hexagon_bi","room_assignment":["yellow","red","blue","purple","green","grey"],"door_color_assignment":["black","white"],"door_generator_assignment":[0,1],"goal":3,"start":0,"action_noise":0,"location_history":"[0,5,0,1,0,5,4,3]","action_history":"[0,0,1,1,0,1,0]","door_history":"[0,0,1,1,0,1,0]","location_rts":"[2112,620,393,300,887,331,1120]","trial_type":"two-door-navigation","trial_index":18,"time_elapsed":393907,"internal_node_id":"0.0-2.0-16.0"},{"group":"hexagon_bi","room_assignment":["yellow","red","blue","purple","green","grey"],"door_color_assignment":["black","white"],"door_generator_assignment":[0,1],"goal":1,"start":3,"action_noise":0,"location_history":"[3,4,5,0,1]","action_history":"[0,1,0,1]","door_history":"[0,1,0,1]","location_rts":"[18926,919,421,744]","trial_type":"two-door-navigation","trial_index":19,"time_elapsed":423125,"internal_node_id":"0.0-2.0-17.0"},{"group":"hexagon_bi","room_assignment":["yellow","red","blue","purple","green","grey"],"door_color_assignment":["black","white"],"door_generator_assignment":[0,1],"goal":5,"start":1,"action_noise":0,"location_history":"[1,2,1,0,5]","action_history":"[0,0,1,0]","door_history":"[0,0,1,0]","location_rts":"[3534,1118,1122,933]","trial_type":"two-door-navigation","trial_index":20,"time_elapsed":438029,"internal_node_id":"0.0-2.0-18.0"},{"group":"hexagon_bi","room_assignment":["yellow","red","blue","purple","green","grey"],"door_color_assignment":["black","white"],"door_generator_assignment":[0,1],"goal":2,"start":5,"action_noise":0,"location_history":"[5,4,3,2]","action_history":"[1,0,1]","door_history":"[1,0,1]","location_rts":"[4138,12013,279]","trial_type":"two-door-navigation","trial_index":21,"time_elapsed":461620,"internal_node_id":"0.0-2.0-19.0"},{"group":"hexagon_bi","room_assignment":["yellow","red","blue","purple","green","grey"],"door_color_assignment":["black","white"],"door_generator_assignment":[0,1],"goal":4,"start":2,"action_noise":0,"location_history":"[2,1,0,5,0,1,0,1,2,1,0,1,0,5,0,1,0,1,2,3,4]","action_history":"[0,1,0,0,1,1,1,0,0,1,1,1,0,0,1,1,1,0,1,0]","door_history":"[0,1,0,0,1,1,1,0,0,1,1,1,0,0,1,1,1,0,1,0]","location_rts":"[1092,608,489,1112,358,1360,316,205,1255,1448,775,563,751,384,818,235,372,174,435,886]","trial_type":"two-door-navigation","trial_index":22,"time_elapsed":500282,"internal_node_id":"0.0-2.0-20.0"},{"group":"hexagon_bi","room_assignment":["yellow","red","blue","purple","green","grey"],"door_color_assignment":["black","white"],"door_generator_assignment":[0,1],"goal":1,"start":4,"action_noise":0,"location_history":"[4,3,4,5,0,1]","action_history":"[0,0,1,0,1]","door_history":"[0,0,1,0,1]","location_rts":"[3624,1112,805,664,369]","trial_type":"two-door-navigation","trial_index":23,"time_elapsed":516115,"internal_node_id":"0.0-2.0-21.0"},{"group":"hexagon_bi","room_assignment":["yellow","red","blue","purple","green","grey"],"door_color_assignment":["black","white"],"door_generator_assignment":[0,1],"goal":3,"start":1,"action_noise":0,"location_history":"[1,0,5,0,1,0,5,0,5,4,3]","action_history":"[1,0,0,1,1,0,0,0,1,0]","door_history":"[1,0,0,1,1,0,0,0,1,0]","location_rts":"[4519,1161,507,337,409,959,294,361,789,1176]","trial_type":"two-door-navigation","trial_index":24,"time_elapsed":541139,"internal_node_id":"0.0-2.0-22.0"},{"group":"hexagon_bi","room_assignment":["yellow","red","blue","purple","green","grey"],"door_color_assignment":["black","white"],"door_generator_assignment":[0,1],"goal":2,"start":3,"action_noise":0,"location_history":"[3,4,5,0,5,0,1,2]","action_history":"[0,1,0,0,0,1,0]","door_history":"[0,1,0,0,0,1,0]","location_rts":"[1568,793,1191,338,436,200,545]","trial_type":"two-door-navigation","trial_index":25,"time_elapsed":557582,"internal_node_id":"0.0-2.0-23.0"},{"group":"hexagon_bi","room_assignment":["yellow","red","blue","purple","green","grey"],"door_color_assignment":["black","white"],"door_generator_assignment":[0,1],"goal":0,"start":2,"action_noise":0,"location_history":"[2,1,0]","action_history":"[0,1]","door_history":"[0,1]","location_rts":"[6607,711]","trial_type":"two-door-navigation","trial_index":26,"time_elapsed":571017,"internal_node_id":"0.0-2.0-24.0"},{"group":"hexagon_bi","room_assignment":["yellow","red","blue","purple","green","grey"],"door_color_assignment":["black","white"],"door_generator_assignment":[0,1],"goal":5,"start":0,"action_noise":0,"location_history":"[0,1,2,3,4,3,2,3,2,1,0,1,2,1,0,1,2,3,4,5]","action_history":"[1,0,1,0,0,1,1,1,0,1,1,0,0,1,1,0,1,0,1]","door_history":"[1,0,1,0,0,1,1,1,0,1,1,0,0,1,1,0,1,0,1]","location_rts":"[6448,299,299,271,262,379,225,310,259,308,543,363,271,312,373,316,216,857,744]","trial_type":"two-door-navigation","trial_index":27,"time_elapsed":608011,"internal_node_id":"0.0-2.0-25.0"},{"group":"hexagon_bi","room_assignment":["yellow","red","blue","purple","green","grey"],"door_color_assignment":["black","white"],"door_generator_assignment":[0,1],"goal":2,"start":5,"action_noise":0,"location_history":"[5,0,1,2]","action_history":"[0,1,0]","door_history":"[0,1,0]","location_rts":"[11597,357,1171]","trial_type":"two-door-navigation","trial_index":28,"time_elapsed":628287,"internal_node_id":"0.0-2.0-26.0"},{"group":"hexagon_bi","room_assignment":["yellow","red","blue","purple","green","grey"],"door_color_assignment":["black","white"],"door_generator_assignment":[0,1],"goal":3,"start":2,"action_noise":0,"location_history":"[2,3]","action_history":"[1]","door_history":"[1]","location_rts":"[6064]","trial_type":"two-door-navigation","trial_index":29,"time_elapsed":639412,"internal_node_id":"0.0-2.0-27.0"},{"group":"hexagon_bi","room_assignment":["yellow","red","blue","purple","green","grey"],"door_color_assignment":["black","white"],"door_generator_assignment":[0,1],"goal":0,"start":3,"action_noise":0,"location_history":"[3,4,5,0]","action_history":"[0,1,0]","door_history":"[0,1,0]","location_rts":"[3210,769,714]","trial_type":"two-door-navigation","trial_index":30,"time_elapsed":651271,"internal_node_id":"0.0-2.0-28.0"},{"group":"hexagon_bi","room_assignment":["yellow","red","blue","purple","green","grey"],"door_color_assignment":["black","white"],"door_generator_assignment":[0,1],"goal":1,"start":0,"action_noise":0,"location_history":"[0,5,4,5,0,5,4,5,4,3,2,1]","action_history":"[0,1,1,0,0,1,1,1,0,1,0]","door_history":"[0,1,1,0,0,1,1,1,0,1,0]","location_rts":"[6325,319,389,351,470,1060,26821,2286,294,318,254]","trial_type":"two-door-navigation","trial_index":31,"time_elapsed":705706,"internal_node_id":"0.0-2.0-29.0"},{"group":"hexagon_bi","room_assignment":["yellow","red","blue","purple","green","grey"],"door_color_assignment":["black","white"],"door_generator_assignment":[0,1],"goal":4,"start":1,"action_noise":0,"location_history":"[1,2,1,0,5,4]","action_history":"[0,0,1,0,1]","door_history":"[0,0,1,0,1]","location_rts":"[5970,330,882,799,700]","trial_type":"two-door-navigation","trial_index":32,"time_elapsed":723648,"internal_node_id":"0.0-2.0-30.0"},{"group":"hexagon_bi","room_assignment":["yellow","red","blue","purple","green","grey"],"door_color_assignment":["black","white"],"door_generator_assignment":[0,1],"goal":5,"start":4,"action_noise":0,"location_history":"[4,3,2,3,4,5]","action_history":"[0,1,1,0,1]","door_history":"[0,1,1,0,1]","location_rts":"[4333,1275,423,724,514]","trial_type":"two-door-navigation","trial_index":33,"time_elapsed":740182,"internal_node_id":"0.0-2.0-31.0"},{"group":"hexagon_bi","room_assignment":["yellow","red","blue","purple","green","grey"],"door_color_assignment":["black","white"],"door_generator_assignment":[0,1],"goal":0,"start":5,"action_noise":0,"location_history":"[5,0]","action_history":"[0]","door_history":"[0]","location_rts":"[3575]","trial_type":"two-door-navigation","trial_index":34,"time_elapsed":748813,"internal_node_id":"0.0-2.0-32.0"},{"group":"hexagon_bi","room_assignment":["yellow","red","blue","purple","green","grey"],"door_color_assignment":["black","white"],"door_generator_assignment":[0,1],"goal":3,"start":0,"action_noise":0,"location_history":"[0,5,0,1,0,5,0,5,4,3]","action_history":"[0,0,1,1,0,0,0,1,0]","door_history":"[0,0,1,1,0,0,0,1,0]","location_rts":"[3803,1740,584,1080,1903,1410,692,767,1705]","trial_type":"two-door-navigation","trial_index":35,"time_elapsed":775953,"internal_node_id":"0.0-2.0-33.0"},{"group":"hexagon_bi","room_assignment":["yellow","red","blue","purple","green","grey"],"door_color_assignment":["black","white"],"door_generator_assignment":[0,1],"goal":1,"start":3,"action_noise":0,"location_history":"[3,4,3,4,5,4,3,4,5,4,5,0,5,4,3,2,3,2,1]","action_history":"[0,0,0,1,1,0,0,1,1,1,0,0,1,0,1,1,1,0]","door_history":"[0,0,0,1,1,0,0,1,1,1,0,0,1,0,1,1,1,0]","location_rts":"[2275,1251,1185,937,664,955,1512,556,1940,861,234,473,456,242,260,804,591,251]","trial_type":"two-door-navigation","trial_index":36,"time_elapsed":814302,"internal_node_id":"0.0-2.0-34.0"},{"group":"hexagon_bi","room_assignment":["yellow","red","blue","purple","green","grey"],"door_color_assignment":["black","white"],"door_generator_assignment":[0,1],"goal":2,"start":1,"action_noise":0,"location_history":"[1,2]","action_history":"[0]","door_history":"[0]","location_rts":"[7148]","trial_type":"two-door-navigation","trial_index":37,"time_elapsed":826504,"internal_node_id":"0.0-2.0-35.0"},{"group":"hexagon_bi","room_assignment":["yellow","red","blue","purple","green","grey"],"door_color_assignment":["black","white"],"door_generator_assignment":[0,1],"goal":4,"start":2,"action_noise":0,"location_history":"[2,3,4]","action_history":"[1,0]","door_history":"[1,0]","location_rts":"[4361,1255]","trial_type":"two-door-navigation","trial_index":38,"time_elapsed":838229,"internal_node_id":"0.0-2.0-36.0"},{"group":"hexagon_bi","room_assignment":["yellow","red","blue","purple","green","grey"],"door_color_assignment":["black","white"],"door_generator_assignment":[0,1],"goal":5,"start":4,"action_noise":0,"location_history":"[4,5]","action_history":"[1]","door_history":"[1]","location_rts":"[1266]","trial_type":"two-door-navigation","trial_index":39,"time_elapsed":844553,"internal_node_id":"0.0-2.0-37.0"},{"group":"hexagon_bi","room_assignment":["yellow","red","blue","purple","green","grey"],"door_color_assignment":["black","white"],"door_generator_assignment":[0,1],"goal":1,"start":5,"action_noise":0,"location_history":"[5,0,1]","action_history":"[0,1]","door_history":"[0,1]","location_rts":"[1521,1119]","trial_type":"two-door-navigation","trial_index":40,"time_elapsed":853306,"internal_node_id":"0.0-2.0-38.0"},{"group":"hexagon_bi","room_assignment":["yellow","red","blue","purple","green","grey"],"door_color_assignment":["black","white"],"door_generator_assignment":[0,1],"goal":4,"start":1,"action_noise":0,"location_history":"[1,0,5,4]","action_history":"[1,0,1]","door_history":"[1,0,1]","location_rts":"[5502,931,1406]","trial_type":"two-door-navigation","trial_index":41,"time_elapsed":868301,"internal_node_id":"0.0-2.0-39.0"},{"group":"hexagon_bi","room_assignment":["yellow","red","blue","purple","green","grey"],"door_color_assignment":["black","white"],"door_generator_assignment":[0,1],"goal":3,"start":4,"action_noise":0,"location_history":"[4,3]","action_history":"[0]","door_history":"[0]","location_rts":"[2883]","trial_type":"two-door-navigation","trial_index":42,"time_elapsed":876245,"internal_node_id":"0.0-2.0-40.0"},{"group":"hexagon_bi","room_assignment":["yellow","red","blue","purple","green","grey"],"door_color_assignment":["black","white"],"door_generator_assignment":[0,1],"goal":2,"start":3,"action_noise":0,"location_history":"[3,2]","action_history":"[1]","door_history":"[1]","location_rts":"[11821]","trial_type":"two-door-navigation","trial_index":43,"time_elapsed":893124,"internal_node_id":"0.0-2.0-41.0"},{"group":"hexagon_bi","room_assignment":["yellow","red","blue","purple","green","grey"],"door_color_assignment":["black","white"],"door_generator_assignment":[0,1],"goal":0,"start":2,"action_noise":0,"location_history":"[2,1,0]","action_history":"[0,1]","door_history":"[0,1]","location_rts":"[3856,708]","trial_type":"two-door-navigation","trial_index":44,"time_elapsed":903795,"internal_node_id":"0.0-2.0-42.0"},{"group":"hexagon_bi","room_assignment":["yellow","red","blue","purple","green","grey"],"door_color_assignment":["black","white"],"door_generator_assignment":[0,1],"goal":5,"start":0,"action_noise":0,"location_history":"[0,1,2,1,2,3,4,5]","action_history":"[1,0,0,0,1,0,1]","door_history":"[1,0,0,0,1,0,1]","location_rts":"[1892,1036,1160,1100,520,1683,994]","trial_type":"two-door-navigation","trial_index":45,"time_elapsed":923548,"internal_node_id":"0.0-2.0-43.0"},{"group":"hexagon_bi","room_assignment":["yellow","red","blue","purple","green","grey"],"door_color_assignment":["black","white"],"door_generator_assignment":[0,1],"goal":0,"start":5,"action_noise":0,"location_history":"[5,0]","action_history":"[0]","door_history":"[0]","location_rts":"[12602]","trial_type":"two-door-navigation","trial_index":46,"time_elapsed":941208,"internal_node_id":"0.0-2.0-44.0"},{"group":"hexagon_bi","room_assignment":["yellow","red","blue","purple","green","grey"],"door_color_assignment":["black","white"],"door_generator_assignment":[0,1],"goal":2,"start":0,"action_noise":0,"location_history":"[0,1,2]","action_history":"[1,0]","door_history":"[1,0]","location_rts":"[2052,969]","trial_type":"two-door-navigation","trial_index":47,"time_elapsed":950337,"internal_node_id":"0.0-2.0-45.0"},{"group":"hexagon_bi","room_assignment":["yellow","red","blue","purple","green","grey"],"door_color_assignment":["black","white"],"door_generator_assignment":[0,1],"goal":4,"start":2,"action_noise":0,"location_history":"[2,1,2,1,0,5,4]","action_history":"[0,0,0,1,0,1]","door_history":"[0,0,0,1,0,1]","location_rts":"[2847,1458,341,250,841,731]","trial_type":"two-door-navigation","trial_index":48,"time_elapsed":967125,"internal_node_id":"0.0-2.0-46.0"},{"group":"hexagon_bi","room_assignment":["yellow","red","blue","purple","green","grey"],"door_color_assignment":["black","white"],"door_generator_assignment":[0,1],"goal":1,"start":4,"action_noise":0,"location_history":"[4,3,4,3,2,1]","action_history":"[0,0,0,1,0]","door_history":"[0,0,0,1,0]","location_rts":"[2238,2560,912,540,444]","trial_type":"two-door-navigation","trial_index":49,"time_elapsed":983074,"internal_node_id":"0.0-2.0-47.0"},{"group":"hexagon_bi","room_assignment":["yellow","red","blue","purple","green","grey"],"door_color_assignment":["black","white"],"door_generator_assignment":[0,1],"goal":5,"start":1,"action_noise":0,"location_history":"[1,2,1,0,5]","action_history":"[0,0,1,0]","door_history":"[0,0,1,0]","location_rts":"[2662,1286,367,1485]","trial_type":"two-door-navigation","trial_index":50,"time_elapsed":997075,"internal_node_id":"0.0-2.0-48.0"},{"group":"hexagon_bi","room_assignment":["yellow","red","blue","purple","green","grey"],"door_color_assignment":["black","white"],"door_generator_assignment":[0,1],"goal":3,"start":5,"action_noise":0,"location_history":"[5,0,5,0,1,0,5,4,3]","action_history":"[0,0,0,1,1,0,1,0]","door_history":"[0,0,0,1,1,0,1,0]","location_rts":"[6496,750,1702,210,3001,454,642,396]","trial_type":"two-door-navigation","trial_index":51,"time_elapsed":1023135,"internal_node_id":"0.0-2.0-49.0"},{"view_history":"[{\"page_index\":0,\"viewing_time\":3424}]","rt":3424,"trial_type":"instructions","trial_index":52,"time_elapsed":1027562,"internal_node_id":"0.0-3.0"},{"view_history":"[{\"page_index\":0,\"viewing_time\":2413},{\"page_index\":1,\"viewing_time\":7403}]","rt":9818,"trial_type":"instructions","trial_index":53,"time_elapsed":1038382,"internal_node_id":"0.0-4.0"},{"group":"hexagon_tri","fractal_assignment":["../images/org_blu.png","../images/ylw_slt.png","../images/gry_blk.png","../images/pnk_blu.png","../images/cyn_red.png","../images/blu_wht.png"],"mutagen_generator_assignment":[1,0],"goal":3,"start":5,"action_noise":0,"location_history":"[5,4,2,1,5,4,0,5,4,2,3]","action_history":"[0,1,0,1,0,0,0,0,1,1]","mutagen_history":"[1,0,1,0,1,1,1,1,0,0]","location_rts":"[1222,769,591,807,461,121,404,364,391,935]","trial_type":"fractal-mutation","trial_index":54,"time_elapsed":1059089,"internal_node_id":"0.0-5.0-0.0"},{"group":"hexagon_tri","fractal_assignment":["../images/org_blu.png","../images/ylw_slt.png","../images/gry_blk.png","../images/pnk_blu.png","../images/cyn_red.png","../images/blu_wht.png"],"mutagen_generator_assignment":[1,0],"goal":1,"start":3,"action_noise":0,"location_history":"[3,2,3,4,0,5,4,0,5,4,0,5,4,2,1]","action_history":"[0,1,1,0,0,0,0,0,0,0,0,0,1,0]","mutagen_history":"[1,0,0,1,1,1,1,1,1,1,1,1,0,1]","location_rts":"[508,400,536,336,159,154,383,231,83,376,111,10,63,45]","trial_type":"fractal-mutation","trial_index":55,"time_elapsed":1081306,"internal_node_id":"0.0-5.0-1.0"},{"group":"hexagon_tri","fractal_assignment":["../images/org_blu.png","../images/ylw_slt.png","../images/gry_blk.png","../images/pnk_blu.png","../images/cyn_red.png","../images/blu_wht.png"],"mutagen_generator_assignment":[1,0],"goal":0,"start":1,"action_noise":0,"location_history":"[1,3,2,1,5,4,2,1,3,2,3,2,1,5,4,2,3,2,1,5,0]","action_history":"[0,0,0,1,0,1,0,0,0,1,0,0,1,0,1,1,0,0,1,1]","mutagen_history":"[1,1,1,0,1,0,1,1,1,0,1,1,0,1,0,0,1,1,0,0]","location_rts":"[752,1143,749,135,285,152,37,331,79,334,478,613,487,393,77,64,242,367,1,185]","trial_type":"fractal-mutation","trial_index":56,"time_elapsed":1113336,"internal_node_id":"0.0-5.0-2.0"},{"group":"hexagon_tri","fractal_assignment":["../images/org_blu.png","../images/ylw_slt.png","../images/gry_blk.png","../images/pnk_blu.png","../images/cyn_red.png","../images/blu_wht.png"],"mutagen_generator_assignment":[1,0],"goal":3,"start":0,"action_noise":0,"location_history":"[0,5,4,0,1,5,0,1,5,0,1,5,0,1,3]","action_history":"[0,0,0,1,1,1,1,1,1,1,1,1,1,0]","mutagen_history":"[1,1,1,0,0,0,0,0,0,0,0,0,0,1]","location_rts":"[1367,732,380,298,110,275,741,117,365,73,82,126,628,784]","trial_type":"fractal-mutation","trial_index":57,"time_elapsed":1138188,"internal_node_id":"0.0-5.0-3.0"},{"group":"hexagon_tri","fractal_assignment":["../images/org_blu.png","../images/ylw_slt.png","../images/gry_blk.png","../images/pnk_blu.png","../images/cyn_red.png","../images/blu_wht.png"],"mutagen_generator_assignment":[1,0],"goal":4,"start":3,"action_noise":0,"location_history":"[3,2,1,3,4]","action_history":"[0,0,0,1]","mutagen_history":"[1,1,1,0]","location_rts":"[162,392,933,767]","trial_type":"fractal-mutation","trial_index":58,"time_elapsed":1148679,"internal_node_id":"0.0-5.0-4.0"},{"group":"hexagon_tri","fractal_assignment":["../images/org_blu.png","../images/ylw_slt.png","../images/gry_blk.png","../images/pnk_blu.png","../images/cyn_red.png","../images/blu_wht.png"],"mutagen_generator_assignment":[1,0],"goal":2,"start":4,"action_noise":0,"location_history":"[4,0,5,4,0,5,4,2]","action_history":"[0,0,0,0,0,0,1]","mutagen_history":"[1,1,1,1,1,1,0]","location_rts":"[3684,778,1044,303,184,110,47]","trial_type":"fractal-mutation","trial_index":59,"time_elapsed":1166231,"internal_node_id":"0.0-5.0-5.0"},{"group":"hexagon_tri","fractal_assignment":["../images/org_blu.png","../images/ylw_slt.png","../images/gry_blk.png","../images/pnk_blu.png","../images/cyn_red.png","../images/blu_wht.png"],"mutagen_generator_assignment":[1,0],"goal":1,"start":2,"action_noise":0,"location_history":"[2,1]","action_history":"[0]","mutagen_history":"[1]","location_rts":"[9846]","trial_type":"fractal-mutation","trial_index":60,"time_elapsed":1181146,"internal_node_id":"0.0-5.0-6.0"},{"group":"hexagon_tri","fractal_assignment":["../images/org_blu.png","../images/ylw_slt.png","../images/gry_blk.png","../images/pnk_blu.png","../images/cyn_red.png","../images/blu_wht.png"],"mutagen_generator_assignment":[1,0],"goal":5,"start":1,"action_noise":0,"location_history":"[1,5]","action_history":"[1]","mutagen_history":"[0]","location_rts":"[10522]","trial_type":"fractal-mutation","trial_index":61,"time_elapsed":1196735,"internal_node_id":"0.0-5.0-7.0"},{"group":"hexagon_tri","fractal_assignment":["../images/org_blu.png","../images/ylw_slt.png","../images/gry_blk.png","../images/pnk_blu.png","../images/cyn_red.png","../images/blu_wht.png"],"mutagen_generator_assignment":[1,0],"goal":4,"start":5,"action_noise":0,"location_history":"[5,4]","action_history":"[0]","mutagen_history":"[1]","location_rts":"[581]","trial_type":"fractal-mutation","trial_index":62,"time_elapsed":1202381,"internal_node_id":"0.0-5.0-8.0"},{"group":"hexagon_tri","fractal_assignment":["../images/org_blu.png","../images/ylw_slt.png","../images/gry_blk.png","../images/pnk_blu.png","../images/cyn_red.png","../images/blu_wht.png"],"mutagen_generator_assignment":[1,0],"goal":2,"start":4,"action_noise":0,"location_history":"[4,0,1,5,4,0,1,5,0,1,5,4,2]","action_history":"[0,1,1,0,0,1,1,1,1,1,0,1]","mutagen_history":"[1,0,0,1,1,0,0,0,0,0,1,0]","location_rts":"[443,386,9,265,138,335,208,47,178,185,182,140]","trial_type":"fractal-mutation","trial_index":63,"time_elapsed":1221595,"internal_node_id":"0.0-5.0-9.0"},{"group":"hexagon_tri","fractal_assignment":["../images/org_blu.png","../images/ylw_slt.png","../images/gry_blk.png","../images/pnk_blu.png","../images/cyn_red.png","../images/blu_wht.png"],"mutagen_generator_assignment":[1,0],"goal":0,"start":2,"action_noise":0,"location_history":"[2,3,2,3,4,2,3,4,2,3,2,3,4,0]","action_history":"[1,0,1,1,1,1,1,1,1,0,1,1,0]","mutagen_history":"[0,1,0,0,0,0,0,0,0,1,0,0,1]","location_rts":"[92,0,26,192,64,90,123,8,51,158,54,28,53]","trial_type":"fractal-mutation","trial_index":64,"time_elapsed":1240245,"internal_node_id":"0.0-5.0-10.0"},{"group":"hexagon_tri","fractal_assignment":["../images/org_blu.png","../images/ylw_slt.png","../images/gry_blk.png","../images/pnk_blu.png","../images/cyn_red.png","../images/blu_wht.png"],"mutagen_generator_assignment":[1,0],"goal":1,"start":0,"action_noise":0,"location_history":"[0,1]","action_history":"[1]","mutagen_history":"[0]","location_rts":"[265]","trial_type":"fractal-mutation","trial_index":65,"time_elapsed":1245577,"internal_node_id":"0.0-5.0-11.0"},{"group":"hexagon_tri","fractal_assignment":["../images/org_blu.png","../images/ylw_slt.png","../images/gry_blk.png","../images/pnk_blu.png","../images/cyn_red.png","../images/blu_wht.png"],"mutagen_generator_assignment":[1,0],"goal":3,"start":1,"action_noise":0,"location_history":"[1,5,4,0,5,0,1,3]","action_history":"[1,0,0,0,1,1,0]","mutagen_history":"[0,1,1,1,0,0,1]","location_rts":"[287,51,152,28,353,95,137]","trial_type":"fractal-mutation","trial_index":66,"time_elapsed":1258071,"internal_node_id":"0.0-5.0-12.0"},{"group":"hexagon_tri","fractal_assignment":["../images/org_blu.png","../images/ylw_slt.png","../images/gry_blk.png","../images/pnk_blu.png","../images/cyn_red.png","../images/blu_wht.png"],"mutagen_generator_assignment":[1,0],"goal":5,"start":3,"action_noise":0,"location_history":"[3,2,3,4,2,3,2,1,5]","action_history":"[0,1,1,1,1,0,0,1]","mutagen_history":"[1,0,0,0,0,1,1,0]","location_rts":"[376,26,206,121,299,23,205,90]","trial_type":"fractal-mutation","trial_index":67,"time_elapsed":1271891,"internal_node_id":"0.0-5.0-13.0"},{"group":"hexagon_tri","fractal_assignment":["../images/org_blu.png","../images/ylw_slt.png","../images/gry_blk.png","../images/pnk_blu.png","../images/cyn_red.png","../images/blu_wht.png"],"mutagen_generator_assignment":[1,0],"goal":4,"start":5,"action_noise":0,"location_history":"[5,0,5,4]","action_history":"[1,0,0]","mutagen_history":"[0,1,1]","location_rts":"[256,72,44]","trial_type":"fractal-mutation","trial_index":68,"time_elapsed":1279426,"internal_node_id":"0.0-5.0-14.0"},{"group":"hexagon_tri","fractal_assignment":["../images/org_blu.png","../images/ylw_slt.png","../images/gry_blk.png","../images/pnk_blu.png","../images/cyn_red.png","../images/blu_wht.png"],"mutagen_generator_assignment":[1,0],"goal":0,"start":4,"action_noise":0,"location_history":"[4,2,3,4,0]","action_history":"[1,1,1,0]","mutagen_history":"[0,0,0,1]","location_rts":"[322,90,102,54]","trial_type":"fractal-mutation","trial_index":69,"time_elapsed":1288228,"internal_node_id":"0.0-5.0-15.0"},{"group":"hexagon_tri","fractal_assignment":["../images/org_blu.png","../images/ylw_slt.png","../images/gry_blk.png","../images/pnk_blu.png","../images/cyn_red.png","../images/blu_wht.png"],"mutagen_generator_assignment":[1,0],"goal":3,"start":0,"action_noise":0,"location_history":"[0,5,0,1,5,4,0,1,3]","action_history":"[0,1,1,1,0,0,1,0]","mutagen_history":"[1,0,0,0,1,1,0,1]","location_rts":"[88,122,97,19,1,115,94,73]","trial_type":"fractal-mutation","trial_index":70,"time_elapsed":1301273,"internal_node_id":"0.0-5.0-16.0"},{"group":"hexagon_tri","fractal_assignment":["../images/org_blu.png","../images/ylw_slt.png","../images/gry_blk.png","../images/pnk_blu.png","../images/cyn_red.png","../images/blu_wht.png"],"mutagen_generator_assignment":[1,0],"goal":1,"start":3,"action_noise":0,"location_history":"[3,4,0,5,4,0,1]","action_history":"[1,0,0,0,0,1]","mutagen_history":"[0,1,1,1,1,0]","location_rts":"[713,27,18,36,213,294]","trial_type":"fractal-mutation","trial_index":71,"time_elapsed":1312934,"internal_node_id":"0.0-5.0-17.0"},{"group":"hexagon_tri","fractal_assignment":["../images/org_blu.png","../images/ylw_slt.png","../images/gry_blk.png","../images/pnk_blu.png","../images/cyn_red.png","../images/blu_wht.png"],"mutagen_generator_assignment":[1,0],"goal":5,"start":1,"action_noise":0,"location_history":"[1,3,2,3,4,0,1,5]","action_history":"[0,0,1,1,0,1,1]","mutagen_history":"[1,1,0,0,1,0,0]","location_rts":"[291,120,173,245,153,166,293]","trial_type":"fractal-mutation","trial_index":72,"time_elapsed":1325790,"internal_node_id":"0.0-5.0-18.0"},{"group":"hexagon_tri","fractal_assignment":["../images/org_blu.png","../images/ylw_slt.png","../images/gry_blk.png","../images/pnk_blu.png","../images/cyn_red.png","../images/blu_wht.png"],"mutagen_generator_assignment":[1,0],"goal":2,"start":5,"action_noise":0,"location_history":"[5,4,0,5,4,2]","action_history":"[0,0,0,0,1]","mutagen_history":"[1,1,1,1,0]","location_rts":"[333,248,105,143,158]","trial_type":"fractal-mutation","trial_index":73,"time_elapsed":1336078,"internal_node_id":"0.0-5.0-19.0"},{"group":"hexagon_tri","fractal_assignment":["../images/org_blu.png","../images/ylw_slt.png","../images/gry_blk.png","../images/pnk_blu.png","../images/cyn_red.png","../images/blu_wht.png"],"mutagen_generator_assignment":[1,0],"goal":4,"start":2,"action_noise":0,"location_history":"[2,3,2,1,5,4]","action_history":"[1,0,0,1,0]","mutagen_history":"[0,1,1,0,1]","location_rts":"[268,93,234,249,215]","trial_type":"fractal-mutation","trial_index":74,"time_elapsed":1346417,"internal_node_id":"0.0-5.0-20.0"},{"group":"hexagon_tri","fractal_assignment":["../images/org_blu.png","../images/ylw_slt.png","../images/gry_blk.png","../images/pnk_blu.png","../images/cyn_red.png","../images/blu_wht.png"],"mutagen_generator_assignment":[1,0],"goal":1,"start":4,"action_noise":0,"location_history":"[4,2,1]","action_history":"[1,0]","mutagen_history":"[0,1]","location_rts":"[471,72]","trial_type":"fractal-mutation","trial_index":75,"time_elapsed":1353078,"internal_node_id":"0.0-5.0-21.0"},{"group":"hexagon_tri","fractal_assignment":["../images/org_blu.png","../images/ylw_slt.png","../images/gry_blk.png","../images/pnk_blu.png","../images/cyn_red.png","../images/blu_wht.png"],"mutagen_generator_assignment":[1,0],"goal":3,"start":1,"action_noise":0,"location_history":"[1,3]","action_history":"[0]","mutagen_history":"[1]","location_rts":"[506]","trial_type":"fractal-mutation","trial_index":76,"time_elapsed":1358646,"internal_node_id":"0.0-5.0-22.0"},{"group":"hexagon_tri","fractal_assignment":["../images/org_blu.png","../images/ylw_slt.png","../images/gry_blk.png","../images/pnk_blu.png","../images/cyn_red.png","../images/blu_wht.png"],"mutagen_generator_assignment":[1,0],"goal":2,"start":3,"action_noise":0,"location_history":"[3,4,0,1,3,4,2]","action_history":"[1,0,1,0,1,1]","mutagen_history":"[0,1,0,1,0,0]","location_rts":"[457,42,145,156,100,138]","trial_type":"fractal-mutation","trial_index":77,"time_elapsed":1370023,"internal_node_id":"0.0-5.0-23.0"},{"group":"hexagon_tri","fractal_assignment":["../images/org_blu.png","../images/ylw_slt.png","../images/gry_blk.png","../images/pnk_blu.png","../images/cyn_red.png","../images/blu_wht.png"],"mutagen_generator_assignment":[1,0],"goal":0,"start":2,"action_noise":0,"location_history":"[2,3,2,1,5,4,2,1,3,2,3,2,3,4,0]","action_history":"[1,0,0,1,0,1,0,0,0,1,0,1,1,0]","mutagen_history":"[0,1,1,0,1,0,1,1,1,0,1,0,0,1]","location_rts":"[176,74,15,117,1678,432,105,341,1509,185,61,36,5,33]","trial_type":"fractal-mutation","trial_index":78,"time_elapsed":1393585,"internal_node_id":"0.0-5.0-24.0"},{"group":"hexagon_tri","fractal_assignment":["../images/org_blu.png","../images/ylw_slt.png","../images/gry_blk.png","../images/pnk_blu.png","../images/cyn_red.png","../images/blu_wht.png"],"mutagen_generator_assignment":[1,0],"goal":5,"start":0,"action_noise":0,"location_history":"[0,5]","action_history":"[0]","mutagen_history":"[1]","location_rts":"[733]","trial_type":"fractal-mutation","trial_index":79,"time_elapsed":1399392,"internal_node_id":"0.0-5.0-25.0"},{"group":"hexagon_tri","fractal_assignment":["../images/org_blu.png","../images/ylw_slt.png","../images/gry_blk.png","../images/pnk_blu.png","../images/cyn_red.png","../images/blu_wht.png"],"mutagen_generator_assignment":[1,0],"goal":2,"start":5,"action_noise":0,"location_history":"[5,4,2]","action_history":"[0,1]","mutagen_history":"[1,0]","location_rts":"[1286,20]","trial_type":"fractal-mutation","trial_index":80,"time_elapsed":1406821,"internal_node_id":"0.0-5.0-26.0"},{"group":"hexagon_tri","fractal_assignment":["../images/org_blu.png","../images/ylw_slt.png","../images/gry_blk.png","../images/pnk_blu.png","../images/cyn_red.png","../images/blu_wht.png"],"mutagen_generator_assignment":[1,0],"goal":3,"start":2,"action_noise":0,"location_history":"[2,1,3]","action_history":"[0,0]","mutagen_history":"[1,1]","location_rts":"[987,549]","trial_type":"fractal-mutation","trial_index":81,"time_elapsed":1414492,"internal_node_id":"0.0-5.0-27.0"},{"group":"hexagon_tri","fractal_assignment":["../images/org_blu.png","../images/ylw_slt.png","../images/gry_blk.png","../images/pnk_blu.png","../images/cyn_red.png","../images/blu_wht.png"],"mutagen_generator_assignment":[1,0],"goal":0,"start":3,"action_noise":0,"location_history":"[3,2,1,5,0]","action_history":"[0,0,1,1]","mutagen_history":"[1,1,0,0]","location_rts":"[363,375,261,499]","trial_type":"fractal-mutation","trial_index":82,"time_elapsed":1424226,"internal_node_id":"0.0-5.0-28.0"},{"group":"hexagon_tri","fractal_assignment":["../images/org_blu.png","../images/ylw_slt.png","../images/gry_blk.png","../images/pnk_blu.png","../images/cyn_red.png","../images/blu_wht.png"],"mutagen_generator_assignment":[1,0],"goal":1,"start":0,"action_noise":0,"location_history":"[0,5,4,2,3,2,3,2,3,4,0,1]","action_history":"[0,0,1,1,0,1,0,1,1,0,1]","mutagen_history":"[1,1,0,0,1,0,1,0,0,1,0]","location_rts":"[483,596,244,378,175,9,166,168,9,95,151]","trial_type":"fractal-mutation","trial_index":83,"time_elapsed":1442314,"internal_node_id":"0.0-5.0-29.0"},{"group":"hexagon_tri","fractal_assignment":["../images/org_blu.png","../images/ylw_slt.png","../images/gry_blk.png","../images/pnk_blu.png","../images/cyn_red.png","../images/blu_wht.png"],"mutagen_generator_assignment":[1,0],"goal":4,"start":1,"action_noise":0,"location_history":"[1,5,0,1,3,4]","action_history":"[1,1,1,0,1]","mutagen_history":"[0,0,0,1,0]","location_rts":"[98,69,133,272,117]","trial_type":"fractal-mutation","trial_index":84,"time_elapsed":1452280,"internal_node_id":"0.0-5.0-30.0"},{"group":"hexagon_tri","fractal_assignment":["../images/org_blu.png","../images/ylw_slt.png","../images/gry_blk.png","../images/pnk_blu.png","../images/cyn_red.png","../images/blu_wht.png"],"mutagen_generator_assignment":[1,0],"goal":5,"start":4,"action_noise":0,"location_history":"[4,2,3,2,1,3,4,2,3,4,0,1,3,2,3,4,0,5]","action_history":"[1,1,0,0,0,1,1,1,1,0,1,0,0,1,1,0,0]","mutagen_history":"[0,0,1,1,1,0,0,0,0,1,0,1,1,0,0,1,1]","location_rts":"[546,210,140,132,172,101,76,211,115,36,146,178,87,115,144,75,55]","trial_type":"fractal-mutation","trial_index":85,"time_elapsed":1476770,"internal_node_id":"0.0-5.0-31.0"},{"group":"hexagon_tri","fractal_assignment":["../images/org_blu.png","../images/ylw_slt.png","../images/gry_blk.png","../images/pnk_blu.png","../images/cyn_red.png","../images/blu_wht.png"],"mutagen_generator_assignment":[1,0],"goal":0,"start":5,"action_noise":0,"location_history":"[5,4,2,3,4,0]","action_history":"[0,1,1,1,0]","mutagen_history":"[1,0,0,0,1]","location_rts":"[185,57,71,233,258]","trial_type":"fractal-mutation","trial_index":86,"time_elapsed":1486861,"internal_node_id":"0.0-5.0-32.0"},{"group":"hexagon_tri","fractal_assignment":["../images/org_blu.png","../images/ylw_slt.png","../images/gry_blk.png","../images/pnk_blu.png","../images/cyn_red.png","../images/blu_wht.png"],"mutagen_generator_assignment":[1,0],"goal":3,"start":0,"action_noise":0,"location_history":"[0,1,5,4,0,5,4,0,1,5,4,0,1,3]","action_history":"[1,1,0,0,0,0,0,1,1,0,0,1,0]","mutagen_history":"[0,0,1,1,1,1,1,0,0,1,1,0,1]","location_rts":"[301,45,176,145,245,227,9,25,620,103,69,8,180]","trial_type":"fractal-mutation","trial_index":87,"time_elapsed":1506749,"internal_node_id":"0.0-5.0-33.0"},{"group":"hexagon_tri","fractal_assignment":["../images/org_blu.png","../images/ylw_slt.png","../images/gry_blk.png","../images/pnk_blu.png","../images/cyn_red.png","../images/blu_wht.png"],"mutagen_generator_assignment":[1,0],"goal":1,"start":3,"action_noise":0,"location_history":"[3,2,3,4,2,3,4,0,5,4,0,1]","action_history":"[0,1,1,1,1,1,0,0,0,0,1]","mutagen_history":"[1,0,0,0,0,0,1,1,1,1,0]","location_rts":"[434,477,199,127,70,55,65,35,425,294,282]","trial_type":"fractal-mutation","trial_index":88,"time_elapsed":1524831,"internal_node_id":"0.0-5.0-34.0"},{"group":"hexagon_tri","fractal_assignment":["../images/org_blu.png","../images/ylw_slt.png","../images/gry_blk.png","../images/pnk_blu.png","../images/cyn_red.png","../images/blu_wht.png"],"mutagen_generator_assignment":[1,0],"goal":2,"start":1,"action_noise":0,"location_history":"[1,5,0,1,5,0,1,5,4,0,1,3,2]","action_history":"[1,1,1,1,1,1,1,0,0,1,0,0]","mutagen_history":"[0,0,0,0,0,0,0,1,1,0,1,1]","location_rts":"[1789,64,136,76,10,103,14,1000,184,154,177,33]","trial_type":"fractal-mutation","trial_index":89,"time_elapsed":1545247,"internal_node_id":"0.0-5.0-35.0"},{"group":"hexagon_tri","fractal_assignment":["../images/org_blu.png","../images/ylw_slt.png","../images/gry_blk.png","../images/pnk_blu.png","../images/cyn_red.png","../images/blu_wht.png"],"mutagen_generator_assignment":[1,0],"goal":4,"start":2,"action_noise":0,"location_history":"[2,3,2,1,3,2,1,5,4]","action_history":"[1,0,0,0,0,0,1,0]","mutagen_history":"[0,1,1,1,1,1,0,1]","location_rts":"[20870,47,16,57,128,147,64,54]","trial_type":"fractal-mutation","trial_index":90,"time_elapsed":1579082,"internal_node_id":"0.0-5.0-36.0"},{"group":"hexagon_tri","fractal_assignment":["../images/org_blu.png","../images/ylw_slt.png","../images/gry_blk.png","../images/pnk_blu.png","../images/cyn_red.png","../images/blu_wht.png"],"mutagen_generator_assignment":[1,0],"goal":5,"start":4,"action_noise":0,"location_history":"[4,2,1,3,2,1,3,2,1,3,4,0,5]","action_history":"[1,0,0,0,0,0,0,0,0,1,0,0]","mutagen_history":"[0,1,1,1,1,1,1,1,1,0,1,1]","location_rts":"[2856,142,41,185,119,71,10,24,62,8,13,88]","trial_type":"fractal-mutation","trial_index":91,"time_elapsed":1599395,"internal_node_id":"0.0-5.0-37.0"},{"group":"hexagon_tri","fractal_assignment":["../images/org_blu.png","../images/ylw_slt.png","../images/gry_blk.png","../images/pnk_blu.png","../images/cyn_red.png","../images/blu_wht.png"],"mutagen_generator_assignment":[1,0],"goal":1,"start":5,"action_noise":0,"location_history":"[5,0,1]","action_history":"[1,1]","mutagen_history":"[0,0]","location_rts":"[2735,56]","trial_type":"fractal-mutation","trial_index":92,"time_elapsed":1608307,"internal_node_id":"0.0-5.0-38.0"},{"group":"hexagon_tri","fractal_assignment":["../images/org_blu.png","../images/ylw_slt.png","../images/gry_blk.png","../images/pnk_blu.png","../images/cyn_red.png","../images/blu_wht.png"],"mutagen_generator_assignment":[1,0],"goal":4,"start":1,"action_noise":0,"location_history":"[1,5,0,5,0,1,5,4]","action_history":"[1,1,0,1,1,1,0]","mutagen_history":"[0,0,1,0,0,0,1]","location_rts":"[1972,329,30,47,121,32,91]","trial_type":"fractal-mutation","trial_index":93,"time_elapsed":1622314,"internal_node_id":"0.0-5.0-39.0"},{"group":"hexagon_tri","fractal_assignment":["../images/org_blu.png","../images/ylw_slt.png","../images/gry_blk.png","../images/pnk_blu.png","../images/cyn_red.png","../images/blu_wht.png"],"mutagen_generator_assignment":[1,0],"goal":3,"start":4,"action_noise":0,"location_history":"[4,2,3]","action_history":"[1,1]","mutagen_history":"[0,0]","location_rts":"[2978,12]","trial_type":"fractal-mutation","trial_index":94,"time_elapsed":1631422,"internal_node_id":"0.0-5.0-40.0"},{"group":"hexagon_tri","fractal_assignment":["../images/org_blu.png","../images/ylw_slt.png","../images/gry_blk.png","../images/pnk_blu.png","../images/cyn_red.png","../images/blu_wht.png"],"mutagen_generator_assignment":[1,0],"goal":2,"start":3,"action_noise":0,"location_history":"[3,4,2]","action_history":"[1,1]","mutagen_history":"[0,0]","location_rts":"[18288,217]","trial_type":"fractal-mutation","trial_index":95,"time_elapsed":1656049,"internal_node_id":"0.0-5.0-41.0"},{"group":"hexagon_tri","fractal_assignment":["../images/org_blu.png","../images/ylw_slt.png","../images/gry_blk.png","../images/pnk_blu.png","../images/cyn_red.png","../images/blu_wht.png"],"mutagen_generator_assignment":[1,0],"goal":0,"start":2,"action_noise":0,"location_history":"[2,1,3,2,1,5,0]","action_history":"[0,0,0,0,1,1]","mutagen_history":"[1,1,1,1,0,0]","location_rts":"[924,21,168,103,27,62]","trial_type":"fractal-mutation","trial_index":96,"time_elapsed":1667691,"internal_node_id":"0.0-5.0-42.0"},{"group":"hexagon_tri","fractal_assignment":["../images/org_blu.png","../images/ylw_slt.png","../images/gry_blk.png","../images/pnk_blu.png","../images/cyn_red.png","../images/blu_wht.png"],"mutagen_generator_assignment":[1,0],"goal":5,"start":0,"action_noise":0,"location_history":"[0,1,5]","action_history":"[1,1]","mutagen_history":"[0,0]","location_rts":"[604,233]","trial_type":"fractal-mutation","trial_index":97,"time_elapsed":1674643,"internal_node_id":"0.0-5.0-43.0"},{"group":"hexagon_tri","fractal_assignment":["../images/org_blu.png","../images/ylw_slt.png","../images/gry_blk.png","../images/pnk_blu.png","../images/cyn_red.png","../images/blu_wht.png"],"mutagen_generator_assignment":[1,0],"goal":0,"start":5,"action_noise":0,"location_history":"[5,4,2,1,3,4,2,3,4,0]","action_history":"[0,1,0,0,1,1,1,1,0]","mutagen_history":"[1,0,1,1,0,0,0,0,1]","location_rts":"[749,85,196,22,28,109,17,116,78]","trial_type":"fractal-mutation","trial_index":98,"time_elapsed":1689540,"internal_node_id":"0.0-5.0-44.0"},{"group":"hexagon_tri","fractal_assignment":["../images/org_blu.png","../images/ylw_slt.png","../images/gry_blk.png","../images/pnk_blu.png","../images/cyn_red.png","../images/blu_wht.png"],"mutagen_generator_assignment":[1,0],"goal":2,"start":0,"action_noise":0,"location_history":"[0,5,4,0,1,3,4,0,1,5,4,0,1,3,2]","action_history":"[0,0,0,1,0,1,0,1,1,0,0,1,0,0]","mutagen_history":"[1,1,1,0,1,0,1,0,0,1,1,0,1,1]","location_rts":"[410,73,138,74,86,1891,27,182,154,61,0,84,231,159]","trial_type":"fractal-mutation","trial_index":99,"time_elapsed":1711889,"internal_node_id":"0.0-5.0-45.0"},{"group":"hexagon_tri","fractal_assignment":["../images/org_blu.png","../images/ylw_slt.png","../images/gry_blk.png","../images/pnk_blu.png","../images/cyn_red.png","../images/blu_wht.png"],"mutagen_generator_assignment":[1,0],"goal":4,"start":2,"action_noise":0,"location_history":"[2,3,4]","action_history":"[1,1]","mutagen_history":"[0,0]","location_rts":"[1119,236]","trial_type":"fractal-mutation","trial_index":100,"time_elapsed":1719363,"internal_node_id":"0.0-5.0-46.0"},{"group":"hexagon_tri","fractal_assignment":["../images/org_blu.png","../images/ylw_slt.png","../images/gry_blk.png","../images/pnk_blu.png","../images/cyn_red.png","../images/blu_wht.png"],"mutagen_generator_assignment":[1,0],"goal":1,"start":4,"action_noise":0,"location_history":"[4,2,1]","action_history":"[1,0]","mutagen_history":"[0,1]","location_rts":"[1625,27]","trial_type":"fractal-mutation","trial_index":101,"time_elapsed":1727126,"internal_node_id":"0.0-5.0-47.0"},{"group":"hexagon_tri","fractal_assignment":["../images/org_blu.png","../images/ylw_slt.png","../images/gry_blk.png","../images/pnk_blu.png","../images/cyn_red.png","../images/blu_wht.png"],"mutagen_generator_assignment":[1,0],"goal":5,"start":1,"action_noise":0,"location_history":"[1,5]","action_history":"[1]","mutagen_history":"[0]","location_rts":"[1945]","trial_type":"fractal-mutation","trial_index":102,"time_elapsed":1734153,"internal_node_id":"0.0-5.0-48.0"},{"group":"hexagon_tri","fractal_assignment":["../images/org_blu.png","../images/ylw_slt.png","../images/gry_blk.png","../images/pnk_blu.png","../images/cyn_red.png","../images/blu_wht.png"],"mutagen_generator_assignment":[1,0],"goal":3,"start":5,"action_noise":0,"location_history":"[5,0,5,0,1,5,4,2,3]","action_history":"[1,0,1,1,1,0,1,1]","mutagen_history":"[0,1,0,0,0,1,0,0]","location_rts":"[452,94,225,159,36,61,366,77]","trial_type":"fractal-mutation","trial_index":103,"time_elapsed":1748095,"internal_node_id":"0.0-5.0-49.0"},{"view_history":"[{\"page_index\":0,\"viewing_time\":7011}]","rt":7011,"trial_type":"instructions","trial_index":104,"time_elapsed":1756108,"internal_node_id":"0.0-6.0"},{"rt":5974,"responses":"{\"Q0\":\"no\"}","trial_type":"survey-text","trial_index":105,"time_elapsed":1763093,"internal_node_id":"0.0-7.0"}]