[{"view_history":"[{\"page_index\":0,\"viewing_time\":3350},{\"page_index\":1,\"viewing_time\":6826}]","rt":10177,"trial_type":"instructions","trial_index":0,"time_elapsed":10181,"internal_node_id":"0.0-0.0"},{"view_history":"[{\"page_index\":0,\"viewing_time\":1890},{\"page_index\":1,\"viewing_time\":10538}]","rt":12429,"trial_type":"instructions","trial_index":1,"time_elapsed":23611,"internal_node_id":"0.0-1.0"},{"group":"hexagon_bi","room_assignment":["purple","grey","yellow","green","red","blue"],"door_color_assignment":["black","white"],"door_generator_assignment":[0,1],"goal":3,"start":5,"action_noise":0,"location_history":"[5,0,5,4,3]","action_history":"[0,0,1,0]","door_history":"[0,0,1,0]","location_rts":"[3322,1423,384,777]","trial_type":"two-door-navigation","trial_index":2,"time_elapsed":37692,"internal_node_id":"0.0-2.0-0.0"},{"group":"hexagon_bi","room_assignment":["purple","grey","yellow","green","red","blue"],"door_color_assignment":["black","white"],"door_generator_assignment":[0,1],"goal":1,"start":3,"action_noise":0,"location_history":"[3,4,5,0,5,0,1]","action_history":"[0,1,0,0,0,1]","door_history":"[0,1,0,0,0,1]","location_rts":"[2918,1651,1255,1749,632,319]","trial_type":"two-door-navigation","trial_index":3,"time_elapsed":56418,"internal_node_id":"0.0-2.0-1.0"},{"group":"hexagon_bi","room_assignment":["purple","grey","yellow","green","red","blue"],"door_color_assignment":["black","white"],"door_generator_assignment":[0,1],"goal":0,"start":1,"action_noise":0,"location_history":"[1,0]","action_history":"[1]","door_history":"[1]","location_rts":"[1426]","trial_type":"two-door-navigation","trial_index":4,"time_elapsed":62924,"internal_node_id":"0.0-2.0-2.0"},{"group":"hexagon_bi","room_assignment":["purple","grey","yellow","green","red","blue"],"door_color_assignment":["black","white"],"door_generator_assignment":[0,1],"goal":3,"start":0,"action_noise":0,"location_history":"[0,5,4,3]","action_history":"[0,1,0]","door_history":"[0,1,0]","location_rts":"[2327,1224,526]","trial_type":"two-door-navigation","trial_index":5,"time_elapsed":74129,"internal_node_id":"0.0-2.0-3.0"},{"group":"hexagon_bi","room_assignment":["purple","grey","yellow","green","red","blue"],"door_color_assignment":["black","white"],"door_generator_assignment":[0,1],"goal":4,"start":3,"action_noise":0,"location_history":"[3,2,1,0,1,2,1,0,1,2,1,2,3,4]","action_history":"[1,0,1,1,0,0,1,1,0,0,0,1,0]","door_history":"[1,0,1,1,0,0,1,1,0,0,0,1,0]","location_rts":"[1896,972,1479,1895,386,979,306,455,284,676,1198,624,848]","trial_type":"two-door-navigation","trial_index":6,"time_elapsed":103588,"internal_node_id":"0.0-2.0-4.0"},{"group":"hexagon_bi","room_assignment":["purple","grey","yellow","green","red","blue"],"door_color_assignment":["black","white"],"door_generator_assignment":[0,1],"goal":2,"start":4,"action_noise":0,"location_history":"[4,3,4,3,2]","action_history":"[0,0,0,1]","door_history":"[0,0,0,1]","location_rts":"[3888,1403,880,289]","trial_type":"two-door-navigation","trial_index":7,"time_elapsed":118210,"internal_node_id":"0.0-2.0-5.0"},{"group":"hexagon_bi","room_assignment":["purple","grey","yellow","green","red","blue"],"door_color_assignment":["black","white"],"door_generator_assignment":[0,1],"goal":1,"start":2,"action_noise":0,"location_history":"[2,1]","action_history":"[0]","door_history":"[0]","location_rts":"[5827]","trial_type":"two-door-navigation","trial_index":8,"time_elapsed":129076,"internal_node_id":"0.0-2.0-6.0"},{"group":"hexagon_bi","room_assignment":["purple","grey","yellow","green","red","blue"],"door_color_assignment":["black","white"],"door_generator_assignment":[0,1],"goal":5,"start":1,"action_noise":0,"location_history":"[1,2,3,4,3,4,5]","action_history":"[0,1,0,0,0,1]","door_history":"[0,1,0,0,0,1]","location_rts":"[3660,5577,1878,884,542,339]","trial_type":"two-door-navigation","trial_index":9,"time_elapsed":152160,"internal_node_id":"0.0-2.0-7.0"},{"group":"hexagon_bi","room_assignment":["purple","grey","yellow","green","red","blue"],"door_color_assignment":["black","white"],"door_generator_assignment":[0,1],"goal":4,"start":5,"action_noise":0,"location_history":"[5,4]","action_history":"[1]","door_history":"[1]","location_rts":"[3781]","trial_type":"two-door-navigation","trial_index":10,"time_elapsed":161002,"internal_node_id":"0.0-2.0-8.0"},{"group":"hexagon_bi","room_assignment":["purple","grey","yellow","green","red","blue"],"door_color_assignment":["black","white"],"door_generator_assignment":[0,1],"goal":2,"start":4,"action_noise":0,"location_history":"[4,3,2]","action_history":"[0,1]","door_history":"[0,1]","location_rts":"[1574,1141]","trial_type":"two-door-navigation","trial_index":11,"time_elapsed":169783,"internal_node_id":"0.0-2.0-9.0"},{"group":"hexagon_bi","room_assignment":["purple","grey","yellow","green","red","blue"],"door_color_assignment":["black","white"],"door_generator_assignment":[0,1],"goal":0,"start":2,"action_noise":0,"location_history":"[2,1,0]","action_history":"[0,1]","door_history":"[0,1]","location_rts":"[6122,1633]","trial_type":"two-door-navigation","trial_index":12,"time_elapsed":183612,"internal_node_id":"0.0-2.0-10.0"},{"group":"hexagon_bi","room_assignment":["purple","grey","yellow","green","red","blue"],"door_color_assignment":["black","white"],"door_generator_assignment":[0,1],"goal":1,"start":0,"action_noise":0,"location_history":"[0,1]","action_history":"[1]","door_history":"[1]","location_rts":"[1391]","trial_type":"two-door-navigation","trial_index":13,"time_elapsed":190060,"internal_node_id":"0.0-2.0-11.0"},{"group":"hexagon_bi","room_assignment":["purple","grey","yellow","green","red","blue"],"door_color_assignment":["black","white"],"door_generator_assignment":[0,1],"goal":3,"start":1,"action_noise":0,"location_history":"[1,2,3]","action_history":"[0,1]","door_history":"[0,1]","location_rts":"[1673,1128]","trial_type":"two-door-navigation","trial_index":14,"time_elapsed":198953,"internal_node_id":"0.0-2.0-12.0"},{"group":"hexagon_bi","room_assignment":["purple","grey","yellow","green","red","blue"],"door_color_assignment":["black","white"],"door_generator_assignment":[0,1],"goal":5,"start":3,"action_noise":0,"location_history":"[3,2,1,2,3,4,5]","action_history":"[1,0,0,1,0,1]","door_history":"[1,0,0,1,0,1]","location_rts":"[5183,5968,2049,641,587,715]","trial_type":"two-door-navigation","trial_index":15,"time_elapsed":224338,"internal_node_id":"0.0-2.0-13.0"},{"group":"hexagon_bi","room_assignment":["purple","grey","yellow","green","red","blue"],"door_color_assignment":["black","white"],"door_generator_assignment":[0,1],"goal":4,"start":5,"action_noise":0,"location_history":"[5,4]","action_history":"[1]","door_history":"[1]","location_rts":"[2060]","trial_type":"two-door-navigation","trial_index":16,"time_elapsed":231434,"internal_node_id":"0.0-2.0-14.0"},{"group":"hexagon_bi","room_assignment":["purple","grey","yellow","green","red","blue"],"door_color_assignment":["black","white"],"door_generator_assignment":[0,1],"goal":0,"start":4,"action_noise":0,"location_history":"[4,3,2,1,0]","action_history":"[0,1,0,1]","door_history":"[0,1,0,1]","location_rts":"[3323,1947,362,1008]","trial_type":"two-door-navigation","trial_index":17,"time_elapsed":246206,"internal_node_id":"0.0-2.0-15.0"},{"group":"hexagon_bi","room_assignment":["purple","grey","yellow","green","red","blue"],"door_color_assignment":["black","white"],"door_generator_assignment":[0,1],"goal":3,"start":0,"action_noise":0,"location_history":"[0,5,4,3]","action_history":"[0,1,0]","door_history":"[0,1,0]","location_rts":"[1839,3070,391]","trial_type":"two-door-navigation","trial_index":18,"time_elapsed":258624,"internal_node_id":"0.0-2.0-16.0"},{"group":"hexagon_bi","room_assignment":["purple","grey","yellow","green","red","blue"],"door_color_assignment":["black","white"],"door_generator_assignment":[0,1],"goal":1,"start":3,"action_noise":0,"location_history":"[3,2,1]","action_history":"[1,0]","door_history":"[1,0]","location_rts":"[6639,409]","trial_type":"two-door-navigation","trial_index":19,"time_elapsed":271836,"internal_node_id":"0.0-2.0-17.0"},{"group":"hexagon_bi","room_assignment":["purple","grey","yellow","green","red","blue"],"door_color_assignment":["black","white"],"door_generator_assignment":[0,1],"goal":5,"start":1,"action_noise":0,"location_history":"[1,2,3,4,5]","action_history":"[0,1,0,1]","door_history":"[0,1,0,1]","location_rts":"[5470,1216,943,595]","trial_type":"two-door-navigation","trial_index":20,"time_elapsed":288201,"internal_node_id":"0.0-2.0-18.0"},{"group":"hexagon_bi","room_assignment":["purple","grey","yellow","green","red","blue"],"door_color_assignment":["black","white"],"door_generator_assignment":[0,1],"goal":2,"start":5,"action_noise":0,"location_history":"[5,0,1,2]","action_history":"[0,1,0]","door_history":"[0,1,0]","location_rts":"[7351,1662,667]","trial_type":"two-door-navigation","trial_index":21,"time_elapsed":304984,"internal_node_id":"0.0-2.0-19.0"},{"group":"hexagon_bi","room_assignment":["purple","grey","yellow","green","red","blue"],"door_color_assignment":["black","white"],"door_generator_assignment":[0,1],"goal":4,"start":2,"action_noise":0,"location_history":"[2,1,0,1,2,3,4]","action_history":"[0,1,1,0,1,0]","door_history":"[0,1,1,0,1,0]","location_rts":"[2567,2149,2487,1665,1776,1136]","trial_type":"two-door-navigation","trial_index":22,"time_elapsed":326999,"internal_node_id":"0.0-2.0-20.0"},{"group":"hexagon_bi","room_assignment":["purple","grey","yellow","green","red","blue"],"door_color_assignment":["black","white"],"door_generator_assignment":[0,1],"goal":1,"start":4,"action_noise":0,"location_history":"[4,3,2,1]","action_history":"[0,1,0]","door_history":"[0,1,0]","location_rts":"[3794,741,904]","trial_type":"two-door-navigation","trial_index":23,"time_elapsed":339592,"internal_node_id":"0.0-2.0-21.0"},{"group":"hexagon_bi","room_assignment":["purple","grey","yellow","green","red","blue"],"door_color_assignment":["black","white"],"door_generator_assignment":[0,1],"goal":3,"start":1,"action_noise":0,"location_history":"[1,2,3]","action_history":"[0,1]","door_history":"[0,1]","location_rts":"[2854,1125]","trial_type":"two-door-navigation","trial_index":24,"time_elapsed":349639,"internal_node_id":"0.0-2.0-22.0"},{"group":"hexagon_bi","room_assignment":["purple","grey","yellow","green","red","blue"],"door_color_assignment":["black","white"],"door_generator_assignment":[0,1],"goal":2,"start":3,"action_noise":0,"location_history":"[3,2]","action_history":"[1]","door_history":"[1]","location_rts":"[4439]","trial_type":"two-door-navigation","trial_index":25,"time_elapsed":359125,"internal_node_id":"0.0-2.0-23.0"},{"group":"hexagon_bi","room_assignment":["purple","grey","yellow","green","red","blue"],"door_color_assignment":["black","white"],"door_generator_assignment":[0,1],"goal":0,"start":2,"action_noise":0,"location_history":"[2,1,0]","action_history":"[0,1]","door_history":"[0,1]","location_rts":"[2596,722]","trial_type":"two-door-navigation","trial_index":26,"time_elapsed":368564,"internal_node_id":"0.0-2.0-24.0"},{"group":"hexagon_bi","room_assignment":["purple","grey","yellow","green","red","blue"],"door_color_assignment":["black","white"],"door_generator_assignment":[0,1],"goal":5,"start":0,"action_noise":0,"location_history":"[0,5]","action_history":"[0]","door_history":"[0]","location_rts":"[3858]","trial_type":"two-door-navigation","trial_index":27,"time_elapsed":377457,"internal_node_id":"0.0-2.0-25.0"},{"group":"hexagon_bi","room_assignment":["purple","grey","yellow","green","red","blue"],"door_color_assignment":["black","white"],"door_generator_assignment":[0,1],"goal":2,"start":5,"action_noise":0,"location_history":"[5,0,1,2]","action_history":"[0,1,0]","door_history":"[0,1,0]","location_rts":"[2551,388,1213]","trial_type":"two-door-navigation","trial_index":28,"time_elapsed":388715,"internal_node_id":"0.0-2.0-26.0"},{"group":"hexagon_bi","room_assignment":["purple","grey","yellow","green","red","blue"],"door_color_assignment":["black","white"],"door_generator_assignment":[0,1],"goal":3,"start":2,"action_noise":0,"location_history":"[2,3]","action_history":"[1]","door_history":"[1]","location_rts":"[2053]","trial_type":"two-door-navigation","trial_index":29,"time_elapsed":395807,"internal_node_id":"0.0-2.0-27.0"},{"group":"hexagon_bi","room_assignment":["purple","grey","yellow","green","red","blue"],"door_color_assignment":["black","white"],"door_generator_assignment":[0,1],"goal":0,"start":3,"action_noise":0,"location_history":"[3,4,5,0]","action_history":"[0,1,0]","door_history":"[0,1,0]","location_rts":"[3579,1079,879]","trial_type":"two-door-navigation","trial_index":30,"time_elapsed":408465,"internal_node_id":"0.0-2.0-28.0"},{"group":"hexagon_bi","room_assignment":["purple","grey","yellow","green","red","blue"],"door_color_assignment":["black","white"],"door_generator_assignment":[0,1],"goal":1,"start":0,"action_noise":0,"location_history":"[0,1]","action_history":"[1]","door_history":"[1]","location_rts":"[1326]","trial_type":"two-door-navigation","trial_index":31,"time_elapsed":414832,"internal_node_id":"0.0-2.0-29.0"},{"group":"hexagon_bi","room_assignment":["purple","grey","yellow","green","red","blue"],"door_color_assignment":["black","white"],"door_generator_assignment":[0,1],"goal":4,"start":1,"action_noise":0,"location_history":"[1,2,3,4]","action_history":"[0,1,0]","door_history":"[0,1,0]","location_rts":"[2687,769,825]","trial_type":"two-door-navigation","trial_index":32,"time_elapsed":426254,"internal_node_id":"0.0-2.0-30.0"},{"group":"hexagon_bi","room_assignment":["purple","grey","yellow","green","red","blue"],"door_color_assignment":["black","white"],"door_generator_assignment":[0,1],"goal":5,"start":4,"action_noise":0,"location_history":"[4,5]","action_history":"[1]","door_history":"[1]","location_rts":"[1522]","trial_type":"two-door-navigation","trial_index":33,"time_elapsed":432812,"internal_node_id":"0.0-2.0-31.0"},{"group":"hexagon_bi","room_assignment":["purple","grey","yellow","green","red","blue"],"door_color_assignment":["black","white"],"door_generator_assignment":[0,1],"goal":0,"start":5,"action_noise":0,"location_history":"[5,0]","action_history":"[0]","door_history":"[0]","location_rts":"[2327]","trial_type":"two-door-navigation","trial_index":34,"time_elapsed":440177,"internal_node_id":"0.0-2.0-32.0"},{"group":"hexagon_bi","room_assignment":["purple","grey","yellow","green","red","blue"],"door_color_assignment":["black","white"],"door_generator_assignment":[0,1],"goal":3,"start":0,"action_noise":0,"location_history":"[0,5,4,3]","action_history":"[0,1,0]","door_history":"[0,1,0]","location_rts":"[2550,704,1128]","trial_type":"two-door-navigation","trial_index":35,"time_elapsed":451656,"internal_node_id":"0.0-2.0-33.0"},{"group":"hexagon_bi","room_assignment":["purple","grey","yellow","green","red","blue"],"door_color_assignment":["black","white"],"door_generator_assignment":[0,1],"goal":1,"start":3,"action_noise":0,"location_history":"[3,4,5,0,1]","action_history":"[0,1,0,1]","door_history":"[0,1,0,1]","location_rts":"[3482,676,799,856]","trial_type":"two-door-navigation","trial_index":36,"time_elapsed":465623,"internal_node_id":"0.0-2.0-34.0"},{"group":"hexagon_bi","room_assignment":["purple","grey","yellow","green","red","blue"],"door_color_assignment":["black","white"],"door_generator_assignment":[0,1],"goal":2,"start":1,"action_noise":0,"location_history":"[1,2]","action_history":"[0]","door_history":"[0]","location_rts":"[2493]","trial_type":"two-door-navigation","trial_index":37,"time_elapsed":473158,"internal_node_id":"0.0-2.0-35.0"},{"group":"hexagon_bi","room_assignment":["purple","grey","yellow","green","red","blue"],"door_color_assignment":["black","white"],"door_generator_assignment":[0,1],"goal":4,"start":2,"action_noise":0,"location_history":"[2,1,0,5,4]","action_history":"[0,1,0,1]","door_history":"[0,1,0,1]","location_rts":"[1970,397,410,926]","trial_type":"two-door-navigation","trial_index":38,"time_elapsed":484999,"internal_node_id":"0.0-2.0-36.0"},{"group":"hexagon_bi","room_assignment":["purple","grey","yellow","green","red","blue"],"door_color_assignment":["black","white"],"door_generator_assignment":[0,1],"goal":5,"start":4,"action_noise":0,"location_history":"[4,5]","action_history":"[1]","door_history":"[1]","location_rts":"[1152]","trial_type":"two-door-navigation","trial_index":39,"time_elapsed":491190,"internal_node_id":"0.0-2.0-37.0"},{"group":"hexagon_bi","room_assignment":["purple","grey","yellow","green","red","blue"],"door_color_assignment":["black","white"],"door_generator_assignment":[0,1],"goal":1,"start":5,"action_noise":0,"location_history":"[5,0,1]","action_history":"[0,1]","door_history":"[0,1]","location_rts":"[2008,983]","trial_type":"two-door-navigation","trial_index":40,"time_elapsed":500276,"internal_node_id":"0.0-2.0-38.0"},{"group":"hexagon_bi","room_assignment":["purple","grey","yellow","green","red","blue"],"door_color_assignment":["black","white"],"door_generator_assignment":[0,1],"goal":4,"start":1,"action_noise":0,"location_history":"[1,2,3,4]","action_history":"[0,1,0]","door_history":"[0,1,0]","location_rts":"[2818,2335,397]","trial_type":"two-door-navigation","trial_index":41,"time_elapsed":512923,"internal_node_id":"0.0-2.0-39.0"},{"group":"hexagon_bi","room_assignment":["purple","grey","yellow","green","red","blue"],"door_color_assignment":["black","white"],"door_generator_assignment":[0,1],"goal":3,"start":4,"action_noise":0,"location_history":"[4,3]","action_history":"[0]","door_history":"[0]","location_rts":"[2897]","trial_type":"two-door-navigation","trial_index":42,"time_elapsed":520864,"internal_node_id":"0.0-2.0-40.0"},{"group":"hexagon_bi","room_assignment":["purple","grey","yellow","green","red","blue"],"door_color_assignment":["black","white"],"door_generator_assignment":[0,1],"goal":2,"start":3,"action_noise":0,"location_history":"[3,2]","action_history":"[1]","door_history":"[1]","location_rts":"[2947]","trial_type":"two-door-navigation","trial_index":43,"time_elapsed":528854,"internal_node_id":"0.0-2.0-41.0"},{"group":"hexagon_bi","room_assignment":["purple","grey","yellow","green","red","blue"],"door_color_assignment":["black","white"],"door_generator_assignment":[0,1],"goal":0,"start":2,"action_noise":0,"location_history":"[2,1,0]","action_history":"[0,1]","door_history":"[0,1]","location_rts":"[2395,699]","trial_type":"two-door-navigation","trial_index":44,"time_elapsed":538054,"internal_node_id":"0.0-2.0-42.0"},{"group":"hexagon_bi","room_assignment":["purple","grey","yellow","green","red","blue"],"door_color_assignment":["black","white"],"door_generator_assignment":[0,1],"goal":5,"start":0,"action_noise":0,"location_history":"[0,5]","action_history":"[0]","door_history":"[0]","location_rts":"[13939]","trial_type":"two-door-navigation","trial_index":45,"time_elapsed":557131,"internal_node_id":"0.0-2.0-43.0"},{"group":"hexagon_bi","room_assignment":["purple","grey","yellow","green","red","blue"],"door_color_assignment":["black","white"],"door_generator_assignment":[0,1],"goal":0,"start":5,"action_noise":0,"location_history":"[5,0]","action_history":"[0]","door_history":"[0]","location_rts":"[3556]","trial_type":"two-door-navigation","trial_index":46,"time_elapsed":565721,"internal_node_id":"0.0-2.0-44.0"},{"group":"hexagon_bi","room_assignment":["purple","grey","yellow","green","red","blue"],"door_color_assignment":["black","white"],"door_generator_assignment":[0,1],"goal":2,"start":0,"action_noise":0,"location_history":"[0,5,4,3,2]","action_history":"[0,1,0,1]","door_history":"[0,1,0,1]","location_rts":"[2865,717,905,876]","trial_type":"two-door-navigation","trial_index":47,"time_elapsed":579297,"internal_node_id":"0.0-2.0-45.0"},{"group":"hexagon_bi","room_assignment":["purple","grey","yellow","green","red","blue"],"door_color_assignment":["black","white"],"door_generator_assignment":[0,1],"goal":4,"start":2,"action_noise":0,"location_history":"[2,1,0,5,4]","action_history":"[0,1,0,1]","door_history":"[0,1,0,1]","location_rts":"[2425,821,335,939]","trial_type":"two-door-navigation","trial_index":48,"time_elapsed":591951,"internal_node_id":"0.0-2.0-46.0"},{"group":"hexagon_bi","room_assignment":["purple","grey","yellow","green","red","blue"],"door_color_assignment":["black","white"],"door_generator_assignment":[0,1],"goal":1,"start":4,"action_noise":0,"location_history":"[4,3,2,1]","action_history":"[0,1,0]","door_history":"[0,1,0]","location_rts":"[2154,778,456]","trial_type":"two-door-navigation","trial_index":49,"time_elapsed":602442,"internal_node_id":"0.0-2.0-47.0"},{"group":"hexagon_bi","room_assignment":["purple","grey","yellow","green","red","blue"],"door_color_assignment":["black","white"],"door_generator_assignment":[0,1],"goal":5,"start":1,"action_noise":0,"location_history":"[1,2,3,4,5]","action_history":"[0,1,0,1]","door_history":"[0,1,0,1]","location_rts":"[2937,1256,872,1087]","trial_type":"two-door-navigation","trial_index":50,"time_elapsed":616723,"internal_node_id":"0.0-2.0-48.0"},{"group":"hexagon_bi","room_assignment":["purple","grey","yellow","green","red","blue"],"door_color_assignment":["black","white"],"door_generator_assignment":[0,1],"goal":3,"start":5,"action_noise":0,"location_history":"[5,0,1,2,3]","action_history":"[0,1,0,1]","door_history":"[0,1,0,1]","location_rts":"[2819,1277,2261,745]","trial_type":"two-door-navigation","trial_index":51,"time_elapsed":632006,"internal_node_id":"0.0-2.0-49.0"},{"view_history":"[{\"page_index\":0,\"viewing_time\":1830}]","rt":1831,"trial_type":"instructions","trial_index":52,"time_elapsed":634838,"internal_node_id":"0.0-3.0"},{"view_history":"[{\"page_index\":0,\"viewing_time\":2980},{\"page_index\":1,\"viewing_time\":3587}]","rt":6567,"trial_type":"instructions","trial_index":53,"time_elapsed":642407,"internal_node_id":"0.0-4.0"},{"group":"hexagon_bi","fractal_assignment":["../images/pnk_blu.png","../images/gry_blk.png","../images/cyn_red.png","../images/ylw_slt.png","../images/org_blu.png","../images/blu_wht.png"],"mutagen_generator_assignment":[0,1],"goal":3,"start":5,"action_noise":0,"location_history":"[5,0,1,2,3]","action_history":"[0,1,0,1]","mutagen_history":"[0,1,0,1]","location_rts":"[1231,1002,617,676]","trial_type":"fractal-mutation","trial_index":54,"time_elapsed":654341,"internal_node_id":"0.0-5.0-0.0"},{"group":"hexagon_bi","fractal_assignment":["../images/pnk_blu.png","../images/gry_blk.png","../images/cyn_red.png","../images/ylw_slt.png","../images/org_blu.png","../images/blu_wht.png"],"mutagen_generator_assignment":[0,1],"goal":1,"start":3,"action_noise":0,"location_history":"[3,2,1]","action_history":"[1,0]","mutagen_history":"[1,0]","location_rts":"[931,523]","trial_type":"fractal-mutation","trial_index":55,"time_elapsed":662089,"internal_node_id":"0.0-5.0-1.0"},{"group":"hexagon_bi","fractal_assignment":["../images/pnk_blu.png","../images/gry_blk.png","../images/cyn_red.png","../images/ylw_slt.png","../images/org_blu.png","../images/blu_wht.png"],"mutagen_generator_assignment":[0,1],"goal":0,"start":1,"action_noise":0,"location_history":"[1,2,3,2,1,0]","action_history":"[0,1,1,0,1]","mutagen_history":"[0,1,1,0,1]","location_rts":"[1140,609,457,259,649]","trial_type":"fractal-mutation","trial_index":56,"time_elapsed":674651,"internal_node_id":"0.0-5.0-2.0"},{"group":"hexagon_bi","fractal_assignment":["../images/pnk_blu.png","../images/gry_blk.png","../images/cyn_red.png","../images/ylw_slt.png","../images/org_blu.png","../images/blu_wht.png"],"mutagen_generator_assignment":[0,1],"goal":3,"start":0,"action_noise":0,"location_history":"[0,1,2,3]","action_history":"[1,0,1]","mutagen_history":"[1,0,1]","location_rts":"[4067,674,748]","trial_type":"fractal-mutation","trial_index":57,"time_elapsed":687391,"internal_node_id":"0.0-5.0-3.0"},{"group":"hexagon_bi","fractal_assignment":["../images/pnk_blu.png","../images/gry_blk.png","../images/cyn_red.png","../images/ylw_slt.png","../images/org_blu.png","../images/blu_wht.png"],"mutagen_generator_assignment":[0,1],"goal":4,"start":3,"action_noise":0,"location_history":"[3,4]","action_history":"[0]","mutagen_history":"[0]","location_rts":"[1084]","trial_type":"fractal-mutation","trial_index":58,"time_elapsed":693543,"internal_node_id":"0.0-5.0-4.0"},{"group":"hexagon_bi","fractal_assignment":["../images/pnk_blu.png","../images/gry_blk.png","../images/cyn_red.png","../images/ylw_slt.png","../images/org_blu.png","../images/blu_wht.png"],"mutagen_generator_assignment":[0,1],"goal":2,"start":4,"action_noise":0,"location_history":"[4,5,0,1,2]","action_history":"[1,0,1,0]","mutagen_history":"[1,0,1,0]","location_rts":"[1417,735,699,552]","trial_type":"fractal-mutation","trial_index":59,"time_elapsed":705243,"internal_node_id":"0.0-5.0-5.0"},{"group":"hexagon_bi","fractal_assignment":["../images/pnk_blu.png","../images/gry_blk.png","../images/cyn_red.png","../images/ylw_slt.png","../images/org_blu.png","../images/blu_wht.png"],"mutagen_generator_assignment":[0,1],"goal":1,"start":2,"action_noise":0,"location_history":"[2,1]","action_history":"[0]","mutagen_history":"[0]","location_rts":"[1036]","trial_type":"fractal-mutation","trial_index":60,"time_elapsed":711367,"internal_node_id":"0.0-5.0-6.0"},{"group":"hexagon_bi","fractal_assignment":["../images/pnk_blu.png","../images/gry_blk.png","../images/cyn_red.png","../images/ylw_slt.png","../images/org_blu.png","../images/blu_wht.png"],"mutagen_generator_assignment":[0,1],"goal":5,"start":1,"action_noise":0,"location_history":"[1,0,5]","action_history":"[1,0]","mutagen_history":"[1,0]","location_rts":"[1301,636]","trial_type":"fractal-mutation","trial_index":61,"time_elapsed":719468,"internal_node_id":"0.0-5.0-7.0"},{"group":"hexagon_bi","fractal_assignment":["../images/pnk_blu.png","../images/gry_blk.png","../images/cyn_red.png","../images/ylw_slt.png","../images/org_blu.png","../images/blu_wht.png"],"mutagen_generator_assignment":[0,1],"goal":4,"start":5,"action_noise":0,"location_history":"[5,0,1,2,3,4]","action_history":"[0,1,0,1,0]","mutagen_history":"[0,1,0,1,0]","location_rts":"[1078,588,465,394,488]","trial_type":"fractal-mutation","trial_index":62,"time_elapsed":731818,"internal_node_id":"0.0-5.0-8.0"},{"group":"hexagon_bi","fractal_assignment":["../images/pnk_blu.png","../images/gry_blk.png","../images/cyn_red.png","../images/ylw_slt.png","../images/org_blu.png","../images/blu_wht.png"],"mutagen_generator_assignment":[0,1],"goal":2,"start":4,"action_noise":0,"location_history":"[4,5,0,1,2]","action_history":"[1,0,1,0]","mutagen_history":"[1,0,1,0]","location_rts":"[1428,521,466,675]","trial_type":"fractal-mutation","trial_index":63,"time_elapsed":743239,"internal_node_id":"0.0-5.0-9.0"},{"group":"hexagon_bi","fractal_assignment":["../images/pnk_blu.png","../images/gry_blk.png","../images/cyn_red.png","../images/ylw_slt.png","../images/org_blu.png","../images/blu_wht.png"],"mutagen_generator_assignment":[0,1],"goal":0,"start":2,"action_noise":0,"location_history":"[2,3,2,1,0]","action_history":"[1,1,0,1]","mutagen_history":"[1,1,0,1]","location_rts":"[3852,11244,791,745]","trial_type":"fractal-mutation","trial_index":64,"time_elapsed":768195,"internal_node_id":"0.0-5.0-10.0"},{"group":"hexagon_bi","fractal_assignment":["../images/pnk_blu.png","../images/gry_blk.png","../images/cyn_red.png","../images/ylw_slt.png","../images/org_blu.png","../images/blu_wht.png"],"mutagen_generator_assignment":[0,1],"goal":1,"start":0,"action_noise":0,"location_history":"[0,1]","action_history":"[1]","mutagen_history":"[1]","location_rts":"[1854]","trial_type":"fractal-mutation","trial_index":65,"time_elapsed":775136,"internal_node_id":"0.0-5.0-11.0"},{"group":"hexagon_bi","fractal_assignment":["../images/pnk_blu.png","../images/gry_blk.png","../images/cyn_red.png","../images/ylw_slt.png","../images/org_blu.png","../images/blu_wht.png"],"mutagen_generator_assignment":[0,1],"goal":3,"start":1,"action_noise":0,"location_history":"[1,2,3]","action_history":"[0,1]","mutagen_history":"[0,1]","location_rts":"[1657,838]","trial_type":"fractal-mutation","trial_index":66,"time_elapsed":783785,"internal_node_id":"0.0-5.0-12.0"},{"group":"hexagon_bi","fractal_assignment":["../images/pnk_blu.png","../images/gry_blk.png","../images/cyn_red.png","../images/ylw_slt.png","../images/org_blu.png","../images/blu_wht.png"],"mutagen_generator_assignment":[0,1],"goal":5,"start":3,"action_noise":0,"location_history":"[3,2,1,0,5]","action_history":"[1,0,1,0]","mutagen_history":"[1,0,1,0]","location_rts":"[1640,1123,2060,752]","trial_type":"fractal-mutation","trial_index":67,"time_elapsed":797658,"internal_node_id":"0.0-5.0-13.0"},{"group":"hexagon_bi","fractal_assignment":["../images/pnk_blu.png","../images/gry_blk.png","../images/cyn_red.png","../images/ylw_slt.png","../images/org_blu.png","../images/blu_wht.png"],"mutagen_generator_assignment":[0,1],"goal":4,"start":5,"action_noise":0,"location_history":"[5,4]","action_history":"[1]","mutagen_history":"[1]","location_rts":"[811]","trial_type":"fractal-mutation","trial_index":68,"time_elapsed":803590,"internal_node_id":"0.0-5.0-14.0"},{"group":"hexagon_bi","fractal_assignment":["../images/pnk_blu.png","../images/gry_blk.png","../images/cyn_red.png","../images/ylw_slt.png","../images/org_blu.png","../images/blu_wht.png"],"mutagen_generator_assignment":[0,1],"goal":0,"start":4,"action_noise":0,"location_history":"[4,3,2,1,0]","action_history":"[0,1,0,1]","mutagen_history":"[0,1,0,1]","location_rts":"[562,2747,750,714]","trial_type":"fractal-mutation","trial_index":69,"time_elapsed":816702,"internal_node_id":"0.0-5.0-15.0"},{"group":"hexagon_bi","fractal_assignment":["../images/pnk_blu.png","../images/gry_blk.png","../images/cyn_red.png","../images/ylw_slt.png","../images/org_blu.png","../images/blu_wht.png"],"mutagen_generator_assignment":[0,1],"goal":3,"start":0,"action_noise":0,"location_history":"[0,1,2,3]","action_history":"[1,0,1]","mutagen_history":"[1,0,1]","location_rts":"[1012,534,587]","trial_type":"fractal-mutation","trial_index":70,"time_elapsed":826112,"internal_node_id":"0.0-5.0-16.0"},{"group":"hexagon_bi","fractal_assignment":["../images/pnk_blu.png","../images/gry_blk.png","../images/cyn_red.png","../images/ylw_slt.png","../images/org_blu.png","../images/blu_wht.png"],"mutagen_generator_assignment":[0,1],"goal":1,"start":3,"action_noise":0,"location_history":"[3,4,5,0,1]","action_history":"[0,1,0,1]","mutagen_history":"[0,1,0,1]","location_rts":"[827,533,574,1445]","trial_type":"fractal-mutation","trial_index":71,"time_elapsed":837994,"internal_node_id":"0.0-5.0-17.0"},{"group":"hexagon_bi","fractal_assignment":["../images/pnk_blu.png","../images/gry_blk.png","../images/cyn_red.png","../images/ylw_slt.png","../images/org_blu.png","../images/blu_wht.png"],"mutagen_generator_assignment":[0,1],"goal":5,"start":1,"action_noise":0,"location_history":"[1,0,5]","action_history":"[1,0]","mutagen_history":"[1,0]","location_rts":"[940,497]","trial_type":"fractal-mutation","trial_index":72,"time_elapsed":845631,"internal_node_id":"0.0-5.0-18.0"},{"group":"hexagon_bi","fractal_assignment":["../images/pnk_blu.png","../images/gry_blk.png","../images/cyn_red.png","../images/ylw_slt.png","../images/org_blu.png","../images/blu_wht.png"],"mutagen_generator_assignment":[0,1],"goal":2,"start":5,"action_noise":0,"location_history":"[5,0,1,2]","action_history":"[0,1,0]","mutagen_history":"[0,1,0]","location_rts":"[569,356,395]","trial_type":"fractal-mutation","trial_index":73,"time_elapsed":854228,"internal_node_id":"0.0-5.0-19.0"},{"group":"hexagon_bi","fractal_assignment":["../images/pnk_blu.png","../images/gry_blk.png","../images/cyn_red.png","../images/ylw_slt.png","../images/org_blu.png","../images/blu_wht.png"],"mutagen_generator_assignment":[0,1],"goal":4,"start":2,"action_noise":0,"location_history":"[2,3,4]","action_history":"[1,0]","mutagen_history":"[1,0]","location_rts":"[723,415]","trial_type":"fractal-mutation","trial_index":74,"time_elapsed":861508,"internal_node_id":"0.0-5.0-20.0"},{"group":"hexagon_bi","fractal_assignment":["../images/pnk_blu.png","../images/gry_blk.png","../images/cyn_red.png","../images/ylw_slt.png","../images/org_blu.png","../images/blu_wht.png"],"mutagen_generator_assignment":[0,1],"goal":1,"start":4,"action_noise":0,"location_history":"[4,5,0,1]","action_history":"[1,0,1]","mutagen_history":"[1,0,1]","location_rts":"[680,542,436]","trial_type":"fractal-mutation","trial_index":75,"time_elapsed":870427,"internal_node_id":"0.0-5.0-21.0"},{"group":"hexagon_bi","fractal_assignment":["../images/pnk_blu.png","../images/gry_blk.png","../images/cyn_red.png","../images/ylw_slt.png","../images/org_blu.png","../images/blu_wht.png"],"mutagen_generator_assignment":[0,1],"goal":3,"start":1,"action_noise":0,"location_history":"[1,2,3]","action_history":"[0,1]","mutagen_history":"[0,1]","location_rts":"[1111,926]","trial_type":"fractal-mutation","trial_index":76,"time_elapsed":878618,"internal_node_id":"0.0-5.0-22.0"},{"group":"hexagon_bi","fractal_assignment":["../images/pnk_blu.png","../images/gry_blk.png","../images/cyn_red.png","../images/ylw_slt.png","../images/org_blu.png","../images/blu_wht.png"],"mutagen_generator_assignment":[0,1],"goal":2,"start":3,"action_noise":0,"location_history":"[3,4,5,0,1,0,5,4,3,2]","action_history":"[0,1,0,1,1,0,1,0,1]","mutagen_history":"[0,1,0,1,1,0,1,0,1]","location_rts":"[710,1031,1369,419,684,413,692,531,1565]","trial_type":"fractal-mutation","trial_index":77,"time_elapsed":899880,"internal_node_id":"0.0-5.0-23.0"},{"group":"hexagon_bi","fractal_assignment":["../images/pnk_blu.png","../images/gry_blk.png","../images/cyn_red.png","../images/ylw_slt.png","../images/org_blu.png","../images/blu_wht.png"],"mutagen_generator_assignment":[0,1],"goal":0,"start":2,"action_noise":0,"location_history":"[2,1,0]","action_history":"[0,1]","mutagen_history":"[0,1]","location_rts":"[935,434]","trial_type":"fractal-mutation","trial_index":78,"time_elapsed":907413,"internal_node_id":"0.0-5.0-24.0"},{"group":"hexagon_bi","fractal_assignment":["../images/pnk_blu.png","../images/gry_blk.png","../images/cyn_red.png","../images/ylw_slt.png","../images/org_blu.png","../images/blu_wht.png"],"mutagen_generator_assignment":[0,1],"goal":5,"start":0,"action_noise":0,"location_history":"[0,1,2,3,4,5]","action_history":"[1,0,1,0,1]","mutagen_history":"[1,0,1,0,1]","location_rts":"[598,362,444,1986,511]","trial_type":"fractal-mutation","trial_index":79,"time_elapsed":920826,"internal_node_id":"0.0-5.0-25.0"},{"group":"hexagon_bi","fractal_assignment":["../images/pnk_blu.png","../images/gry_blk.png","../images/cyn_red.png","../images/ylw_slt.png","../images/org_blu.png","../images/blu_wht.png"],"mutagen_generator_assignment":[0,1],"goal":2,"start":5,"action_noise":0,"location_history":"[5,0,1,2]","action_history":"[0,1,0]","mutagen_history":"[0,1,0]","location_rts":"[1096,575,803]","trial_type":"fractal-mutation","trial_index":80,"time_elapsed":930541,"internal_node_id":"0.0-5.0-26.0"},{"group":"hexagon_bi","fractal_assignment":["../images/pnk_blu.png","../images/gry_blk.png","../images/cyn_red.png","../images/ylw_slt.png","../images/org_blu.png","../images/blu_wht.png"],"mutagen_generator_assignment":[0,1],"goal":3,"start":2,"action_noise":0,"location_history":"[2,3]","action_history":"[1]","mutagen_history":"[1]","location_rts":"[646]","trial_type":"fractal-mutation","trial_index":81,"time_elapsed":936285,"internal_node_id":"0.0-5.0-27.0"},{"group":"hexagon_bi","fractal_assignment":["../images/pnk_blu.png","../images/gry_blk.png","../images/cyn_red.png","../images/ylw_slt.png","../images/org_blu.png","../images/blu_wht.png"],"mutagen_generator_assignment":[0,1],"goal":0,"start":3,"action_noise":0,"location_history":"[3,4,5,0]","action_history":"[0,1,0]","mutagen_history":"[0,1,0]","location_rts":"[918,724,748]","trial_type":"fractal-mutation","trial_index":82,"time_elapsed":945912,"internal_node_id":"0.0-5.0-28.0"},{"group":"hexagon_bi","fractal_assignment":["../images/pnk_blu.png","../images/gry_blk.png","../images/cyn_red.png","../images/ylw_slt.png","../images/org_blu.png","../images/blu_wht.png"],"mutagen_generator_assignment":[0,1],"goal":1,"start":0,"action_noise":0,"location_history":"[0,1]","action_history":"[1]","mutagen_history":"[1]","location_rts":"[654]","trial_type":"fractal-mutation","trial_index":83,"time_elapsed":951665,"internal_node_id":"0.0-5.0-29.0"},{"group":"hexagon_bi","fractal_assignment":["../images/pnk_blu.png","../images/gry_blk.png","../images/cyn_red.png","../images/ylw_slt.png","../images/org_blu.png","../images/blu_wht.png"],"mutagen_generator_assignment":[0,1],"goal":4,"start":1,"action_noise":0,"location_history":"[1,2,3,4]","action_history":"[0,1,0]","mutagen_history":"[0,1,0]","location_rts":"[703,610,767]","trial_type":"fractal-mutation","trial_index":84,"time_elapsed":960997,"internal_node_id":"0.0-5.0-30.0"},{"group":"hexagon_bi","fractal_assignment":["../images/pnk_blu.png","../images/gry_blk.png","../images/cyn_red.png","../images/ylw_slt.png","../images/org_blu.png","../images/blu_wht.png"],"mutagen_generator_assignment":[0,1],"goal":5,"start":4,"action_noise":0,"location_history":"[4,5]","action_history":"[1]","mutagen_history":"[1]","location_rts":"[690]","trial_type":"fractal-mutation","trial_index":85,"time_elapsed":966779,"internal_node_id":"0.0-5.0-31.0"},{"group":"hexagon_bi","fractal_assignment":["../images/pnk_blu.png","../images/gry_blk.png","../images/cyn_red.png","../images/ylw_slt.png","../images/org_blu.png","../images/blu_wht.png"],"mutagen_generator_assignment":[0,1],"goal":0,"start":5,"action_noise":0,"location_history":"[5,0]","action_history":"[0]","mutagen_history":"[0]","location_rts":"[780]","trial_type":"fractal-mutation","trial_index":86,"time_elapsed":972634,"internal_node_id":"0.0-5.0-32.0"},{"group":"hexagon_bi","fractal_assignment":["../images/pnk_blu.png","../images/gry_blk.png","../images/cyn_red.png","../images/ylw_slt.png","../images/org_blu.png","../images/blu_wht.png"],"mutagen_generator_assignment":[0,1],"goal":3,"start":0,"action_noise":0,"location_history":"[0,1,0,5,4,3]","action_history":"[1,1,0,1,0]","mutagen_history":"[1,1,0,1,0]","location_rts":"[696,3674,1139,810,2520]","trial_type":"fractal-mutation","trial_index":87,"time_elapsed":990886,"internal_node_id":"0.0-5.0-33.0"},{"group":"hexagon_bi","fractal_assignment":["../images/pnk_blu.png","../images/gry_blk.png","../images/cyn_red.png","../images/ylw_slt.png","../images/org_blu.png","../images/blu_wht.png"],"mutagen_generator_assignment":[0,1],"goal":1,"start":3,"action_noise":0,"location_history":"[3,2,1]","action_history":"[1,0]","mutagen_history":"[1,0]","location_rts":"[753,1548]","trial_type":"fractal-mutation","trial_index":88,"time_elapsed":999321,"internal_node_id":"0.0-5.0-34.0"},{"group":"hexagon_bi","fractal_assignment":["../images/pnk_blu.png","../images/gry_blk.png","../images/cyn_red.png","../images/ylw_slt.png","../images/org_blu.png","../images/blu_wht.png"],"mutagen_generator_assignment":[0,1],"goal":2,"start":1,"action_noise":0,"location_history":"[1,0,5,4,3,2]","action_history":"[1,0,1,0,1]","mutagen_history":"[1,0,1,0,1]","location_rts":"[1831,1515,578,900,1908]","trial_type":"fractal-mutation","trial_index":89,"time_elapsed":1015451,"internal_node_id":"0.0-5.0-35.0"},{"group":"hexagon_bi","fractal_assignment":["../images/pnk_blu.png","../images/gry_blk.png","../images/cyn_red.png","../images/ylw_slt.png","../images/org_blu.png","../images/blu_wht.png"],"mutagen_generator_assignment":[0,1],"goal":4,"start":2,"action_noise":0,"location_history":"[2,1,0,5,4]","action_history":"[0,1,0,1]","mutagen_history":"[0,1,0,1]","location_rts":"[1095,492,1445,1937]","trial_type":"fractal-mutation","trial_index":90,"time_elapsed":1028759,"internal_node_id":"0.0-5.0-36.0"},{"group":"hexagon_bi","fractal_assignment":["../images/pnk_blu.png","../images/gry_blk.png","../images/cyn_red.png","../images/ylw_slt.png","../images/org_blu.png","../images/blu_wht.png"],"mutagen_generator_assignment":[0,1],"goal":5,"start":4,"action_noise":0,"location_history":"[4,3,2,1,0,5]","action_history":"[0,1,0,1,0]","mutagen_history":"[0,1,0,1,0]","location_rts":"[573,1073,803,3535,1574]","trial_type":"fractal-mutation","trial_index":91,"time_elapsed":1045691,"internal_node_id":"0.0-5.0-37.0"},{"group":"hexagon_bi","fractal_assignment":["../images/pnk_blu.png","../images/gry_blk.png","../images/cyn_red.png","../images/ylw_slt.png","../images/org_blu.png","../images/blu_wht.png"],"mutagen_generator_assignment":[0,1],"goal":1,"start":5,"action_noise":0,"location_history":"[5,4,3,2,1]","action_history":"[1,0,1,0]","mutagen_history":"[1,0,1,0]","location_rts":"[674,428,3427,1039]","trial_type":"fractal-mutation","trial_index":92,"time_elapsed":1059565,"internal_node_id":"0.0-5.0-38.0"},{"group":"hexagon_bi","fractal_assignment":["../images/pnk_blu.png","../images/gry_blk.png","../images/cyn_red.png","../images/ylw_slt.png","../images/org_blu.png","../images/blu_wht.png"],"mutagen_generator_assignment":[0,1],"goal":4,"start":1,"action_noise":0,"location_history":"[1,0,5,4]","action_history":"[1,0,1]","mutagen_history":"[1,0,1]","location_rts":"[692,3873,520]","trial_type":"fractal-mutation","trial_index":93,"time_elapsed":1071906,"internal_node_id":"0.0-5.0-39.0"},{"group":"hexagon_bi","fractal_assignment":["../images/pnk_blu.png","../images/gry_blk.png","../images/cyn_red.png","../images/ylw_slt.png","../images/org_blu.png","../images/blu_wht.png"],"mutagen_generator_assignment":[0,1],"goal":3,"start":4,"action_noise":0,"location_history":"[4,5,0,1,2,3]","action_history":"[1,0,1,0,1]","mutagen_history":"[1,0,1,0,1]","location_rts":"[587,481,528,1473,819]","trial_type":"fractal-mutation","trial_index":94,"time_elapsed":1085124,"internal_node_id":"0.0-5.0-40.0"},{"group":"hexagon_bi","fractal_assignment":["../images/pnk_blu.png","../images/gry_blk.png","../images/cyn_red.png","../images/ylw_slt.png","../images/org_blu.png","../images/blu_wht.png"],"mutagen_generator_assignment":[0,1],"goal":2,"start":3,"action_noise":0,"location_history":"[3,2]","action_history":"[1]","mutagen_history":"[1]","location_rts":"[603]","trial_type":"fractal-mutation","trial_index":95,"time_elapsed":1090825,"internal_node_id":"0.0-5.0-41.0"},{"group":"hexagon_bi","fractal_assignment":["../images/pnk_blu.png","../images/gry_blk.png","../images/cyn_red.png","../images/ylw_slt.png","../images/org_blu.png","../images/blu_wht.png"],"mutagen_generator_assignment":[0,1],"goal":0,"start":2,"action_noise":0,"location_history":"[2,1,0]","action_history":"[0,1]","mutagen_history":"[0,1]","location_rts":"[556,407]","trial_type":"fractal-mutation","trial_index":96,"time_elapsed":1097947,"internal_node_id":"0.0-5.0-42.0"},{"group":"hexagon_bi","fractal_assignment":["../images/pnk_blu.png","../images/gry_blk.png","../images/cyn_red.png","../images/ylw_slt.png","../images/org_blu.png","../images/blu_wht.png"],"mutagen_generator_assignment":[0,1],"goal":5,"start":0,"action_noise":0,"location_history":"[0,5]","action_history":"[0]","mutagen_history":"[0]","location_rts":"[665]","trial_type":"fractal-mutation","trial_index":97,"time_elapsed":1103683,"internal_node_id":"0.0-5.0-43.0"},{"group":"hexagon_bi","fractal_assignment":["../images/pnk_blu.png","../images/gry_blk.png","../images/cyn_red.png","../images/ylw_slt.png","../images/org_blu.png","../images/blu_wht.png"],"mutagen_generator_assignment":[0,1],"goal":0,"start":5,"action_noise":0,"location_history":"[5,4,3,2,1,0]","action_history":"[1,0,1,0,1]","mutagen_history":"[1,0,1,0,1]","location_rts":"[757,482,438,443,785]","trial_type":"fractal-mutation","trial_index":98,"time_elapsed":1115983,"internal_node_id":"0.0-5.0-44.0"},{"group":"hexagon_bi","fractal_assignment":["../images/pnk_blu.png","../images/gry_blk.png","../images/cyn_red.png","../images/ylw_slt.png","../images/org_blu.png","../images/blu_wht.png"],"mutagen_generator_assignment":[0,1],"goal":2,"start":0,"action_noise":0,"location_history":"[0,5,4,3,2]","action_history":"[0,1,0,1]","mutagen_history":"[0,1,0,1]","location_rts":"[699,432,452,584]","trial_type":"fractal-mutation","trial_index":99,"time_elapsed":1126480,"internal_node_id":"0.0-5.0-45.0"},{"group":"hexagon_bi","fractal_assignment":["../images/pnk_blu.png","../images/gry_blk.png","../images/cyn_red.png","../images/ylw_slt.png","../images/org_blu.png","../images/blu_wht.png"],"mutagen_generator_assignment":[0,1],"goal":4,"start":2,"action_noise":0,"location_history":"[2,3,4]","action_history":"[1,0]","mutagen_history":"[1,0]","location_rts":"[944,1553]","trial_type":"fractal-mutation","trial_index":100,"time_elapsed":1135155,"internal_node_id":"0.0-5.0-46.0"},{"group":"hexagon_bi","fractal_assignment":["../images/pnk_blu.png","../images/gry_blk.png","../images/cyn_red.png","../images/ylw_slt.png","../images/org_blu.png","../images/blu_wht.png"],"mutagen_generator_assignment":[0,1],"goal":1,"start":4,"action_noise":0,"location_history":"[4,5,0,1]","action_history":"[1,0,1]","mutagen_history":"[1,0,1]","location_rts":"[668,854,918]","trial_type":"fractal-mutation","trial_index":101,"time_elapsed":1144824,"internal_node_id":"0.0-5.0-47.0"},{"group":"hexagon_bi","fractal_assignment":["../images/pnk_blu.png","../images/gry_blk.png","../images/cyn_red.png","../images/ylw_slt.png","../images/org_blu.png","../images/blu_wht.png"],"mutagen_generator_assignment":[0,1],"goal":5,"start":1,"action_noise":0,"location_history":"[1,2,3,4,5]","action_history":"[0,1,0,1]","mutagen_history":"[0,1,0,1]","location_rts":"[714,795,722,655]","trial_type":"fractal-mutation","trial_index":102,"time_elapsed":1156026,"internal_node_id":"0.0-5.0-48.0"},{"group":"hexagon_bi","fractal_assignment":["../images/pnk_blu.png","../images/gry_blk.png","../images/cyn_red.png","../images/ylw_slt.png","../images/org_blu.png","../images/blu_wht.png"],"mutagen_generator_assignment":[0,1],"goal":3,"start":5,"action_noise":0,"location_history":"[5,0,1,2,3]","action_history":"[0,1,0,1]","mutagen_history":"[0,1,0,1]","location_rts":"[974,2136,1584,3139]","trial_type":"fractal-mutation","trial_index":103,"time_elapsed":1172196,"internal_node_id":"0.0-5.0-49.0"},{"view_history":"[{\"page_index\":0,\"viewing_time\":10214}]","rt":10215,"trial_type":"instructions","trial_index":104,"time_elapsed":1183412,"internal_node_id":"0.0-6.0"},{"rt":3364,"responses":"{\"Q0\":\"\"}","trial_type":"survey-text","trial_index":105,"time_elapsed":1187792,"internal_node_id":"0.0-7.0"}]