[{"view_history":"[{\"page_index\":0,\"viewing_time\":2686},{\"page_index\":1,\"viewing_time\":18010}]","rt":20697,"trial_type":"instructions","trial_index":0,"time_elapsed":20698,"internal_node_id":"0.0-0.0"},{"view_history":"[{\"page_index\":0,\"viewing_time\":3789},{\"page_index\":1,\"viewing_time\":14202}]","rt":17991,"trial_type":"instructions","trial_index":1,"time_elapsed":39690,"internal_node_id":"0.0-1.0"},{"group":"hexagon_bi","room_assignment":["green","purple","grey","blue","red","yellow"],"door_color_assignment":["white","black"],"door_generator_assignment":[0,1],"goal":3,"start":5,"action_noise":0,"location_history":"[5,4,3]","action_history":"[1,0]","door_history":"[1,0]","location_rts":"[3652,509]","trial_type":"two-door-navigation","trial_index":2,"time_elapsed":49921,"internal_node_id":"0.0-2.0-0.0"},{"group":"hexagon_bi","room_assignment":["green","purple","grey","blue","red","yellow"],"door_color_assignment":["white","black"],"door_generator_assignment":[0,1],"goal":1,"start":3,"action_noise":0,"location_history":"[3,2,1]","action_history":"[1,0]","door_history":"[1,0]","location_rts":"[3418,557]","trial_type":"two-door-navigation","trial_index":3,"time_elapsed":59956,"internal_node_id":"0.0-2.0-1.0"},{"group":"hexagon_bi","room_assignment":["green","purple","grey","blue","red","yellow"],"door_color_assignment":["white","black"],"door_generator_assignment":[0,1],"goal":0,"start":1,"action_noise":0,"location_history":"[1,0]","action_history":"[1]","door_history":"[1]","location_rts":"[1577]","trial_type":"two-door-navigation","trial_index":4,"time_elapsed":66565,"internal_node_id":"0.0-2.0-2.0"},{"group":"hexagon_bi","room_assignment":["green","purple","grey","blue","red","yellow"],"door_color_assignment":["white","black"],"door_generator_assignment":[0,1],"goal":3,"start":0,"action_noise":0,"location_history":"[0,1,2,3]","action_history":"[1,0,1]","door_history":"[1,0,1]","location_rts":"[5107,488,381]","trial_type":"two-door-navigation","trial_index":5,"time_elapsed":79625,"internal_node_id":"0.0-2.0-3.0"},{"group":"hexagon_bi","room_assignment":["green","purple","grey","blue","red","yellow"],"door_color_assignment":["white","black"],"door_generator_assignment":[0,1],"goal":4,"start":3,"action_noise":0,"location_history":"[3,4]","action_history":"[0]","door_history":"[0]","location_rts":"[1222]","trial_type":"two-door-navigation","trial_index":6,"time_elapsed":85879,"internal_node_id":"0.0-2.0-4.0"},{"group":"hexagon_bi","room_assignment":["green","purple","grey","blue","red","yellow"],"door_color_assignment":["white","black"],"door_generator_assignment":[0,1],"goal":2,"start":4,"action_noise":0,"location_history":"[4,5,4,3,4,3,2]","action_history":"[1,1,0,0,0,1]","door_history":"[1,1,0,0,0,1]","location_rts":"[1226,340,811,473,1471,326]","trial_type":"two-door-navigation","trial_index":7,"time_elapsed":100694,"internal_node_id":"0.0-2.0-5.0"},{"group":"hexagon_bi","room_assignment":["green","purple","grey","blue","red","yellow"],"door_color_assignment":["white","black"],"door_generator_assignment":[0,1],"goal":1,"start":2,"action_noise":0,"location_history":"[2,1]","action_history":"[0]","door_history":"[0]","location_rts":"[1325]","trial_type":"two-door-navigation","trial_index":8,"time_elapsed":107048,"internal_node_id":"0.0-2.0-6.0"},{"group":"hexagon_bi","room_assignment":["green","purple","grey","blue","red","yellow"],"door_color_assignment":["white","black"],"door_generator_assignment":[0,1],"goal":5,"start":1,"action_noise":0,"location_history":"[1,0,5]","action_history":"[1,0]","door_history":"[1,0]","location_rts":"[1146,916]","trial_type":"two-door-navigation","trial_index":9,"time_elapsed":115171,"internal_node_id":"0.0-2.0-7.0"},{"group":"hexagon_bi","room_assignment":["green","purple","grey","blue","red","yellow"],"door_color_assignment":["white","black"],"door_generator_assignment":[0,1],"goal":4,"start":5,"action_noise":0,"location_history":"[5,0,5,4]","action_history":"[0,0,1]","door_history":"[0,0,1]","location_rts":"[1402,1094,691]","trial_type":"two-door-navigation","trial_index":10,"time_elapsed":125444,"internal_node_id":"0.0-2.0-8.0"},{"group":"hexagon_bi","room_assignment":["green","purple","grey","blue","red","yellow"],"door_color_assignment":["white","black"],"door_generator_assignment":[0,1],"goal":2,"start":4,"action_noise":0,"location_history":"[4,3,2]","action_history":"[0,1]","door_history":"[0,1]","location_rts":"[2601,559]","trial_type":"two-door-navigation","trial_index":11,"time_elapsed":134658,"internal_node_id":"0.0-2.0-9.0"},{"group":"hexagon_bi","room_assignment":["green","purple","grey","blue","red","yellow"],"door_color_assignment":["white","black"],"door_generator_assignment":[0,1],"goal":0,"start":2,"action_noise":0,"location_history":"[2,3,4,5,4,3,4,3,2,1,0]","action_history":"[1,0,1,1,0,0,0,1,0,1]","door_history":"[1,0,1,1,0,0,0,1,0,1]","location_rts":"[2356,1341,558,924,829,740,829,476,553,776]","trial_type":"two-door-navigation","trial_index":12,"time_elapsed":158294,"internal_node_id":"0.0-2.0-10.0"},{"group":"hexagon_bi","room_assignment":["green","purple","grey","blue","red","yellow"],"door_color_assignment":["white","black"],"door_generator_assignment":[0,1],"goal":1,"start":0,"action_noise":0,"location_history":"[0,5,4,3,4,5,0,1]","action_history":"[0,1,0,0,1,0,1]","door_history":"[0,1,0,0,1,0,1]","location_rts":"[1700,1696,731,802,428,527,543]","trial_type":"two-door-navigation","trial_index":13,"time_elapsed":175909,"internal_node_id":"0.0-2.0-11.0"},{"group":"hexagon_bi","room_assignment":["green","purple","grey","blue","red","yellow"],"door_color_assignment":["white","black"],"door_generator_assignment":[0,1],"goal":3,"start":1,"action_noise":0,"location_history":"[1,0,5,4,3]","action_history":"[1,0,1,0]","door_history":"[1,0,1,0]","location_rts":"[2584,1292,439,712]","trial_type":"two-door-navigation","trial_index":14,"time_elapsed":189042,"internal_node_id":"0.0-2.0-12.0"},{"group":"hexagon_bi","room_assignment":["green","purple","grey","blue","red","yellow"],"door_color_assignment":["white","black"],"door_generator_assignment":[0,1],"goal":5,"start":3,"action_noise":0,"location_history":"[3,2,1,0,1,2,1,0,5]","action_history":"[1,0,1,1,0,0,1,0]","door_history":"[1,0,1,1,0,0,1,0]","location_rts":"[8812,1088,1079,1422,657,396,1096,448]","trial_type":"two-door-navigation","trial_index":15,"time_elapsed":216184,"internal_node_id":"0.0-2.0-13.0"},{"group":"hexagon_bi","room_assignment":["green","purple","grey","blue","red","yellow"],"door_color_assignment":["white","black"],"door_generator_assignment":[0,1],"goal":4,"start":5,"action_noise":0,"location_history":"[5,4]","action_history":"[1]","door_history":"[1]","location_rts":"[1744]","trial_type":"two-door-navigation","trial_index":16,"time_elapsed":222954,"internal_node_id":"0.0-2.0-14.0"},{"group":"hexagon_bi","room_assignment":["green","purple","grey","blue","red","yellow"],"door_color_assignment":["white","black"],"door_generator_assignment":[0,1],"goal":0,"start":4,"action_noise":0,"location_history":"[4,3,2,1,0]","action_history":"[0,1,0,1]","door_history":"[0,1,0,1]","location_rts":"[1143,558,1048,524]","trial_type":"two-door-navigation","trial_index":17,"time_elapsed":234308,"internal_node_id":"0.0-2.0-15.0"},{"group":"hexagon_bi","room_assignment":["green","purple","grey","blue","red","yellow"],"door_color_assignment":["white","black"],"door_generator_assignment":[0,1],"goal":3,"start":0,"action_noise":0,"location_history":"[0,1,2,3]","action_history":"[1,0,1]","door_history":"[1,0,1]","location_rts":"[2775,611,508]","trial_type":"two-door-navigation","trial_index":18,"time_elapsed":245263,"internal_node_id":"0.0-2.0-16.0"},{"group":"hexagon_bi","room_assignment":["green","purple","grey","blue","red","yellow"],"door_color_assignment":["white","black"],"door_generator_assignment":[0,1],"goal":1,"start":3,"action_noise":0,"location_history":"[3,4,5,0,5,4,5,4,3,4,3,2,3,2,1]","action_history":"[0,1,0,0,1,1,1,0,0,0,1,1,1,0]","door_history":"[0,1,0,0,1,1,1,0,0,0,1,1,1,0]","location_rts":"[950,378,829,986,274,408,1275,344,884,454,341,498,396,245]","trial_type":"two-door-navigation","trial_index":19,"time_elapsed":271795,"internal_node_id":"0.0-2.0-17.0"},{"group":"hexagon_bi","room_assignment":["green","purple","grey","blue","red","yellow"],"door_color_assignment":["white","black"],"door_generator_assignment":[0,1],"goal":5,"start":1,"action_noise":0,"location_history":"[1,0,5]","action_history":"[1,0]","door_history":"[1,0]","location_rts":"[1004,621]","trial_type":"two-door-navigation","trial_index":20,"time_elapsed":279461,"internal_node_id":"0.0-2.0-18.0"},{"group":"hexagon_bi","room_assignment":["green","purple","grey","blue","red","yellow"],"door_color_assignment":["white","black"],"door_generator_assignment":[0,1],"goal":2,"start":5,"action_noise":0,"location_history":"[5,0,1,0,1,0,5,0,1,0,5,0,1,2]","action_history":"[0,1,1,1,1,0,0,1,1,0,0,1,0]","door_history":"[0,1,1,1,1,0,0,1,1,0,0,1,0]","location_rts":"[3397,1083,1438,1901,9189,1199,471,676,270,507,982,771,843]","trial_type":"two-door-navigation","trial_index":21,"time_elapsed":319447,"internal_node_id":"0.0-2.0-19.0"},{"group":"hexagon_bi","room_assignment":["green","purple","grey","blue","red","yellow"],"door_color_assignment":["white","black"],"door_generator_assignment":[0,1],"goal":4,"start":2,"action_noise":0,"location_history":"[2,3,4]","action_history":"[1,0]","door_history":"[1,0]","location_rts":"[511,349]","trial_type":"two-door-navigation","trial_index":22,"time_elapsed":326346,"internal_node_id":"0.0-2.0-20.0"},{"group":"hexagon_bi","room_assignment":["green","purple","grey","blue","red","yellow"],"door_color_assignment":["white","black"],"door_generator_assignment":[0,1],"goal":1,"start":4,"action_noise":0,"location_history":"[4,5,0,5,4,5,0,1]","action_history":"[1,0,0,1,1,0,1]","door_history":"[1,0,0,1,1,0,1]","location_rts":"[1571,439,650,273,544,747,554]","trial_type":"two-door-navigation","trial_index":23,"time_elapsed":342272,"internal_node_id":"0.0-2.0-21.0"},{"group":"hexagon_bi","room_assignment":["green","purple","grey","blue","red","yellow"],"door_color_assignment":["white","black"],"door_generator_assignment":[0,1],"goal":3,"start":1,"action_noise":0,"location_history":"[1,0,5,0,1,0,5,4,3]","action_history":"[1,0,0,1,1,0,1,0]","door_history":"[1,0,0,1,1,0,1,0]","location_rts":"[2043,901,560,594,356,1056,1204,571]","trial_type":"two-door-navigation","trial_index":24,"time_elapsed":361711,"internal_node_id":"0.0-2.0-22.0"},{"group":"hexagon_bi","room_assignment":["green","purple","grey","blue","red","yellow"],"door_color_assignment":["white","black"],"door_generator_assignment":[0,1],"goal":2,"start":3,"action_noise":0,"location_history":"[3,2]","action_history":"[1]","door_history":"[1]","location_rts":"[725]","trial_type":"two-door-navigation","trial_index":25,"time_elapsed":367457,"internal_node_id":"0.0-2.0-23.0"},{"group":"hexagon_bi","room_assignment":["green","purple","grey","blue","red","yellow"],"door_color_assignment":["white","black"],"door_generator_assignment":[0,1],"goal":0,"start":2,"action_noise":0,"location_history":"[2,3,4,5,4,3,4,3,2,3,4,5,4,5,0]","action_history":"[1,0,1,1,0,0,0,1,1,0,1,1,1,0]","door_history":"[1,0,1,1,0,0,0,1,1,0,1,1,1,0]","location_rts":"[1028,339,350,405,574,312,405,153,380,305,420,531,514,390]","trial_type":"two-door-navigation","trial_index":26,"time_elapsed":391838,"internal_node_id":"0.0-2.0-24.0"},{"group":"hexagon_bi","room_assignment":["green","purple","grey","blue","red","yellow"],"door_color_assignment":["white","black"],"door_generator_assignment":[0,1],"goal":5,"start":0,"action_noise":0,"location_history":"[0,1,2,1,0,5]","action_history":"[1,0,0,1,0]","door_history":"[1,0,0,1,0]","location_rts":"[971,751,8362,885,318]","trial_type":"two-door-navigation","trial_index":27,"time_elapsed":412219,"internal_node_id":"0.0-2.0-25.0"},{"group":"hexagon_bi","room_assignment":["green","purple","grey","blue","red","yellow"],"door_color_assignment":["white","black"],"door_generator_assignment":[0,1],"goal":2,"start":5,"action_noise":0,"location_history":"[5,4,3,2]","action_history":"[1,0,1]","door_history":"[1,0,1]","location_rts":"[6049,703,224]","trial_type":"two-door-navigation","trial_index":28,"time_elapsed":426256,"internal_node_id":"0.0-2.0-26.0"},{"group":"hexagon_bi","room_assignment":["green","purple","grey","blue","red","yellow"],"door_color_assignment":["white","black"],"door_generator_assignment":[0,1],"goal":3,"start":2,"action_noise":0,"location_history":"[2,3]","action_history":"[1]","door_history":"[1]","location_rts":"[3750]","trial_type":"two-door-navigation","trial_index":29,"time_elapsed":435029,"internal_node_id":"0.0-2.0-27.0"},{"group":"hexagon_bi","room_assignment":["green","purple","grey","blue","red","yellow"],"door_color_assignment":["white","black"],"door_generator_assignment":[0,1],"goal":0,"start":3,"action_noise":0,"location_history":"[3,4,5,0]","action_history":"[0,1,0]","door_history":"[0,1,0]","location_rts":"[12224,685,332]","trial_type":"two-door-navigation","trial_index":30,"time_elapsed":455334,"internal_node_id":"0.0-2.0-28.0"},{"group":"hexagon_bi","room_assignment":["green","purple","grey","blue","red","yellow"],"door_color_assignment":["white","black"],"door_generator_assignment":[0,1],"goal":1,"start":0,"action_noise":0,"location_history":"[0,1]","action_history":"[1]","door_history":"[1]","location_rts":"[1322]","trial_type":"two-door-navigation","trial_index":31,"time_elapsed":461679,"internal_node_id":"0.0-2.0-29.0"},{"group":"hexagon_bi","room_assignment":["green","purple","grey","blue","red","yellow"],"door_color_assignment":["white","black"],"door_generator_assignment":[0,1],"goal":4,"start":1,"action_noise":0,"location_history":"[1,2,3,4]","action_history":"[0,1,0]","door_history":"[0,1,0]","location_rts":"[1219,397,956]","trial_type":"two-door-navigation","trial_index":32,"time_elapsed":471310,"internal_node_id":"0.0-2.0-30.0"},{"group":"hexagon_bi","room_assignment":["green","purple","grey","blue","red","yellow"],"door_color_assignment":["white","black"],"door_generator_assignment":[0,1],"goal":5,"start":4,"action_noise":0,"location_history":"[4,5]","action_history":"[1]","door_history":"[1]","location_rts":"[2453]","trial_type":"two-door-navigation","trial_index":33,"time_elapsed":478785,"internal_node_id":"0.0-2.0-31.0"},{"group":"hexagon_bi","room_assignment":["green","purple","grey","blue","red","yellow"],"door_color_assignment":["white","black"],"door_generator_assignment":[0,1],"goal":0,"start":5,"action_noise":0,"location_history":"[5,0]","action_history":"[0]","door_history":"[0]","location_rts":"[2641]","trial_type":"two-door-navigation","trial_index":34,"time_elapsed":486453,"internal_node_id":"0.0-2.0-32.0"},{"group":"hexagon_bi","room_assignment":["green","purple","grey","blue","red","yellow"],"door_color_assignment":["white","black"],"door_generator_assignment":[0,1],"goal":3,"start":0,"action_noise":0,"location_history":"[0,5,0,5,4,3]","action_history":"[0,0,0,1,0]","door_history":"[0,0,0,1,0]","location_rts":"[13584,475,277,334,539]","trial_type":"two-door-navigation","trial_index":35,"time_elapsed":510765,"internal_node_id":"0.0-2.0-33.0"},{"group":"hexagon_bi","room_assignment":["green","purple","grey","blue","red","yellow"],"door_color_assignment":["white","black"],"door_generator_assignment":[0,1],"goal":1,"start":3,"action_noise":0,"location_history":"[3,2,1]","action_history":"[1,0]","door_history":"[1,0]","location_rts":"[5476,291]","trial_type":"two-door-navigation","trial_index":36,"time_elapsed":522573,"internal_node_id":"0.0-2.0-34.0"},{"group":"hexagon_bi","room_assignment":["green","purple","grey","blue","red","yellow"],"door_color_assignment":["white","black"],"door_generator_assignment":[0,1],"goal":2,"start":1,"action_noise":0,"location_history":"[1,2]","action_history":"[0]","door_history":"[0]","location_rts":"[2571]","trial_type":"two-door-navigation","trial_index":37,"time_elapsed":530168,"internal_node_id":"0.0-2.0-35.0"},{"group":"hexagon_bi","room_assignment":["green","purple","grey","blue","red","yellow"],"door_color_assignment":["white","black"],"door_generator_assignment":[0,1],"goal":4,"start":2,"action_noise":0,"location_history":"[2,3,4]","action_history":"[1,0]","door_history":"[1,0]","location_rts":"[2244,808]","trial_type":"two-door-navigation","trial_index":38,"time_elapsed":539258,"internal_node_id":"0.0-2.0-36.0"},{"group":"hexagon_bi","room_assignment":["green","purple","grey","blue","red","yellow"],"door_color_assignment":["white","black"],"door_generator_assignment":[0,1],"goal":5,"start":4,"action_noise":0,"location_history":"[4,3,2,3,4,3,2,3,4,5]","action_history":"[0,1,1,0,0,1,1,0,1]","door_history":"[0,1,1,0,0,1,1,0,1]","location_rts":"[1722,341,891,852,405,1196,387,543,705]","trial_type":"two-door-navigation","trial_index":39,"time_elapsed":559484,"internal_node_id":"0.0-2.0-37.0"},{"group":"hexagon_bi","room_assignment":["green","purple","grey","blue","red","yellow"],"door_color_assignment":["white","black"],"door_generator_assignment":[0,1],"goal":1,"start":5,"action_noise":0,"location_history":"[5,0,1]","action_history":"[0,1]","door_history":"[0,1]","location_rts":"[2114,1085]","trial_type":"two-door-navigation","trial_index":40,"time_elapsed":568723,"internal_node_id":"0.0-2.0-38.0"},{"group":"hexagon_bi","room_assignment":["green","purple","grey","blue","red","yellow"],"door_color_assignment":["white","black"],"door_generator_assignment":[0,1],"goal":4,"start":1,"action_noise":0,"location_history":"[1,2,3,4]","action_history":"[0,1,0]","door_history":"[0,1,0]","location_rts":"[2238,395,616]","trial_type":"two-door-navigation","trial_index":41,"time_elapsed":579030,"internal_node_id":"0.0-2.0-39.0"},{"group":"hexagon_bi","room_assignment":["green","purple","grey","blue","red","yellow"],"door_color_assignment":["white","black"],"door_generator_assignment":[0,1],"goal":3,"start":4,"action_noise":0,"location_history":"[4,5,0,5,0,1,0,5,0,5,4,3]","action_history":"[1,0,0,0,1,1,0,0,0,1,0]","door_history":"[1,0,0,0,1,1,0,0,0,1,0]","location_rts":"[7268,553,731,10579,397,318,496,267,1498,418,912]","trial_type":"two-door-navigation","trial_index":42,"time_elapsed":617689,"internal_node_id":"0.0-2.0-40.0"},{"group":"hexagon_bi","room_assignment":["green","purple","grey","blue","red","yellow"],"door_color_assignment":["white","black"],"door_generator_assignment":[0,1],"goal":2,"start":3,"action_noise":0,"location_history":"[3,4,3,2]","action_history":"[0,0,1]","door_history":"[0,0,1]","location_rts":"[6582,1404,653]","trial_type":"two-door-navigation","trial_index":43,"time_elapsed":633386,"internal_node_id":"0.0-2.0-41.0"},{"group":"hexagon_bi","room_assignment":["green","purple","grey","blue","red","yellow"],"door_color_assignment":["white","black"],"door_generator_assignment":[0,1],"goal":0,"start":2,"action_noise":0,"location_history":"[2,3,4,5,0]","action_history":"[1,0,1,0]","door_history":"[1,0,1,0]","location_rts":"[1871,445,517,1512]","trial_type":"two-door-navigation","trial_index":44,"time_elapsed":645806,"internal_node_id":"0.0-2.0-42.0"},{"group":"hexagon_bi","room_assignment":["green","purple","grey","blue","red","yellow"],"door_color_assignment":["white","black"],"door_generator_assignment":[0,1],"goal":5,"start":0,"action_noise":0,"location_history":"[0,5]","action_history":"[0]","door_history":"[0]","location_rts":"[1442]","trial_type":"two-door-navigation","trial_index":45,"time_elapsed":652272,"internal_node_id":"0.0-2.0-43.0"},{"group":"hexagon_bi","room_assignment":["green","purple","grey","blue","red","yellow"],"door_color_assignment":["white","black"],"door_generator_assignment":[0,1],"goal":0,"start":5,"action_noise":0,"location_history":"[5,0]","action_history":"[0]","door_history":"[0]","location_rts":"[1626]","trial_type":"two-door-navigation","trial_index":46,"time_elapsed":658920,"internal_node_id":"0.0-2.0-44.0"},{"group":"hexagon_bi","room_assignment":["green","purple","grey","blue","red","yellow"],"door_color_assignment":["white","black"],"door_generator_assignment":[0,1],"goal":2,"start":0,"action_noise":0,"location_history":"[0,5,4,3,4,5,0,1,0,5,0,1,0,1,2]","action_history":"[0,1,0,0,1,0,1,1,0,0,1,1,1,0]","door_history":"[0,1,0,0,1,0,1,1,0,0,1,1,1,0]","location_rts":"[3157,530,619,615,887,324,534,2613,760,1278,548,959,529,291]","trial_type":"two-door-navigation","trial_index":47,"time_elapsed":690838,"internal_node_id":"0.0-2.0-45.0"},{"group":"hexagon_bi","room_assignment":["green","purple","grey","blue","red","yellow"],"door_color_assignment":["white","black"],"door_generator_assignment":[0,1],"goal":4,"start":2,"action_noise":0,"location_history":"[2,3,4]","action_history":"[1,0]","door_history":"[1,0]","location_rts":"[2384,1280]","trial_type":"two-door-navigation","trial_index":48,"time_elapsed":700539,"internal_node_id":"0.0-2.0-46.0"},{"group":"hexagon_bi","room_assignment":["green","purple","grey","blue","red","yellow"],"door_color_assignment":["white","black"],"door_generator_assignment":[0,1],"goal":1,"start":4,"action_noise":0,"location_history":"[4,5,0,5,4,5,0,5,0,1]","action_history":"[1,0,0,1,1,0,0,0,1]","door_history":"[1,0,0,1,1,0,0,0,1]","location_rts":"[2462,1917,366,287,1233,1615,3410,1447,405]","trial_type":"two-door-navigation","trial_index":49,"time_elapsed":726861,"internal_node_id":"0.0-2.0-47.0"},{"group":"hexagon_bi","room_assignment":["green","purple","grey","blue","red","yellow"],"door_color_assignment":["white","black"],"door_generator_assignment":[0,1],"goal":5,"start":1,"action_noise":0,"location_history":"[1,2,3,2,1,2,1,0,1,2,3,2,1,2,1,0,5]","action_history":"[0,1,1,0,0,0,1,1,0,1,1,0,0,0,1,0]","door_history":"[0,1,1,0,0,0,1,1,0,1,1,0,0,0,1,0]","location_rts":"[1511,1606,816,358,486,639,237,580,1145,267,882,630,773,414,533,997]","trial_type":"two-door-navigation","trial_index":50,"time_elapsed":759033,"internal_node_id":"0.0-2.0-48.0"},{"group":"hexagon_bi","room_assignment":["green","purple","grey","blue","red","yellow"],"door_color_assignment":["white","black"],"door_generator_assignment":[0,1],"goal":3,"start":5,"action_noise":0,"location_history":"[5,4,3]","action_history":"[1,0]","door_history":"[1,0]","location_rts":"[3728,810]","trial_type":"two-door-navigation","trial_index":51,"time_elapsed":769615,"internal_node_id":"0.0-2.0-49.0"},{"view_history":"[{\"page_index\":0,\"viewing_time\":4601}]","rt":4601,"trial_type":"instructions","trial_index":52,"time_elapsed":775218,"internal_node_id":"0.0-3.0"},{"view_history":"[{\"page_index\":0,\"viewing_time\":22251},{\"page_index\":1,\"viewing_time\":23498}]","rt":45749,"trial_type":"instructions","trial_index":53,"time_elapsed":821969,"internal_node_id":"0.0-4.0"},{"group":"hexagon_tri","fractal_assignment":["../images/org_blu.png","../images/cyn_red.png","../images/gry_blk.png","../images/blu_wht.png","../images/pnk_blu.png","../images/ylw_slt.png"],"mutagen_generator_assignment":[1,0],"goal":3,"start":5,"action_noise":0,"location_history":"[5,0,5,4,2,1,5,0,5,4,2,1,3]","action_history":"[1,0,0,1,0,1,1,0,0,1,0,0]","mutagen_history":"[0,1,1,0,1,0,0,1,1,0,1,1]","location_rts":"[5906,1381,462,396,1911,313,1613,1021,419,975,511,401]","trial_type":"fractal-mutation","trial_index":54,"time_elapsed":853751,"internal_node_id":"0.0-5.0-0.0"},{"group":"hexagon_tri","fractal_assignment":["../images/org_blu.png","../images/cyn_red.png","../images/gry_blk.png","../images/blu_wht.png","../images/pnk_blu.png","../images/ylw_slt.png"],"mutagen_generator_assignment":[1,0],"goal":1,"start":3,"action_noise":0,"location_history":"[3,2,1]","action_history":"[0,0]","mutagen_history":"[1,1]","location_rts":"[2434,334]","trial_type":"fractal-mutation","trial_index":55,"time_elapsed":862616,"internal_node_id":"0.0-5.0-1.0"},{"group":"hexagon_tri","fractal_assignment":["../images/org_blu.png","../images/cyn_red.png","../images/gry_blk.png","../images/blu_wht.png","../images/pnk_blu.png","../images/ylw_slt.png"],"mutagen_generator_assignment":[1,0],"goal":0,"start":1,"action_noise":0,"location_history":"[1,5,4,0]","action_history":"[1,0,0]","mutagen_history":"[0,1,1]","location_rts":"[1231,350,376]","trial_type":"fractal-mutation","trial_index":56,"time_elapsed":871698,"internal_node_id":"0.0-5.0-2.0"},{"group":"hexagon_tri","fractal_assignment":["../images/org_blu.png","../images/cyn_red.png","../images/gry_blk.png","../images/blu_wht.png","../images/pnk_blu.png","../images/ylw_slt.png"],"mutagen_generator_assignment":[1,0],"goal":3,"start":0,"action_noise":0,"location_history":"[0,5,0,5,0,5,4,2,3]","action_history":"[0,1,0,1,0,0,1,1]","mutagen_history":"[1,0,1,0,1,1,0,0]","location_rts":"[596,809,1047,892,783,667,860,779]","trial_type":"fractal-mutation","trial_index":57,"time_elapsed":890417,"internal_node_id":"0.0-5.0-3.0"},{"group":"hexagon_tri","fractal_assignment":["../images/org_blu.png","../images/cyn_red.png","../images/gry_blk.png","../images/blu_wht.png","../images/pnk_blu.png","../images/ylw_slt.png"],"mutagen_generator_assignment":[1,0],"goal":4,"start":3,"action_noise":0,"location_history":"[3,2,3,2,3,2,1,5,4]","action_history":"[0,1,0,1,0,0,1,0]","mutagen_history":"[1,0,1,0,1,1,0,1]","location_rts":"[5579,2900,4611,529,920,427,548,324]","trial_type":"fractal-mutation","trial_index":58,"time_elapsed":918559,"internal_node_id":"0.0-5.0-4.0"},{"group":"hexagon_tri","fractal_assignment":["../images/org_blu.png","../images/cyn_red.png","../images/gry_blk.png","../images/blu_wht.png","../images/pnk_blu.png","../images/ylw_slt.png"],"mutagen_generator_assignment":[1,0],"goal":2,"start":4,"action_noise":0,"location_history":"[4,2]","action_history":"[1]","mutagen_history":"[0]","location_rts":"[8035]","trial_type":"fractal-mutation","trial_index":59,"time_elapsed":931628,"internal_node_id":"0.0-5.0-5.0"},{"group":"hexagon_tri","fractal_assignment":["../images/org_blu.png","../images/cyn_red.png","../images/gry_blk.png","../images/blu_wht.png","../images/pnk_blu.png","../images/ylw_slt.png"],"mutagen_generator_assignment":[1,0],"goal":1,"start":2,"action_noise":0,"location_history":"[2,3,2,1]","action_history":"[1,0,0]","mutagen_history":"[0,1,1]","location_rts":"[1112,386,393]","trial_type":"fractal-mutation","trial_index":60,"time_elapsed":940633,"internal_node_id":"0.0-5.0-6.0"},{"group":"hexagon_tri","fractal_assignment":["../images/org_blu.png","../images/cyn_red.png","../images/gry_blk.png","../images/blu_wht.png","../images/pnk_blu.png","../images/ylw_slt.png"],"mutagen_generator_assignment":[1,0],"goal":5,"start":1,"action_noise":0,"location_history":"[1,5]","action_history":"[1]","mutagen_history":"[0]","location_rts":"[2058]","trial_type":"fractal-mutation","trial_index":61,"time_elapsed":947727,"internal_node_id":"0.0-5.0-7.0"},{"group":"hexagon_tri","fractal_assignment":["../images/org_blu.png","../images/cyn_red.png","../images/gry_blk.png","../images/blu_wht.png","../images/pnk_blu.png","../images/ylw_slt.png"],"mutagen_generator_assignment":[1,0],"goal":4,"start":5,"action_noise":0,"location_history":"[5,4]","action_history":"[0]","mutagen_history":"[1]","location_rts":"[1245]","trial_type":"fractal-mutation","trial_index":62,"time_elapsed":954011,"internal_node_id":"0.0-5.0-8.0"},{"group":"hexagon_tri","fractal_assignment":["../images/org_blu.png","../images/cyn_red.png","../images/gry_blk.png","../images/blu_wht.png","../images/pnk_blu.png","../images/ylw_slt.png"],"mutagen_generator_assignment":[1,0],"goal":2,"start":4,"action_noise":0,"location_history":"[4,2]","action_history":"[1]","mutagen_history":"[0]","location_rts":"[1563]","trial_type":"fractal-mutation","trial_index":63,"time_elapsed":960612,"internal_node_id":"0.0-5.0-9.0"},{"group":"hexagon_tri","fractal_assignment":["../images/org_blu.png","../images/cyn_red.png","../images/gry_blk.png","../images/blu_wht.png","../images/pnk_blu.png","../images/ylw_slt.png"],"mutagen_generator_assignment":[1,0],"goal":0,"start":2,"action_noise":0,"location_history":"[2,3,2,1,5,4,0]","action_history":"[1,0,0,1,0,0]","mutagen_history":"[0,1,1,0,1,1]","location_rts":"[995,335,502,806,493,389]","trial_type":"fractal-mutation","trial_index":64,"time_elapsed":974353,"internal_node_id":"0.0-5.0-10.0"},{"group":"hexagon_tri","fractal_assignment":["../images/org_blu.png","../images/cyn_red.png","../images/gry_blk.png","../images/blu_wht.png","../images/pnk_blu.png","../images/ylw_slt.png"],"mutagen_generator_assignment":[1,0],"goal":1,"start":0,"action_noise":0,"location_history":"[0,1]","action_history":"[1]","mutagen_history":"[0]","location_rts":"[1605]","trial_type":"fractal-mutation","trial_index":65,"time_elapsed":980991,"internal_node_id":"0.0-5.0-11.0"},{"group":"hexagon_tri","fractal_assignment":["../images/org_blu.png","../images/cyn_red.png","../images/gry_blk.png","../images/blu_wht.png","../images/pnk_blu.png","../images/ylw_slt.png"],"mutagen_generator_assignment":[1,0],"goal":3,"start":1,"action_noise":0,"location_history":"[1,3]","action_history":"[0]","mutagen_history":"[1]","location_rts":"[1231]","trial_type":"fractal-mutation","trial_index":66,"time_elapsed":987268,"internal_node_id":"0.0-5.0-12.0"},{"group":"hexagon_tri","fractal_assignment":["../images/org_blu.png","../images/cyn_red.png","../images/gry_blk.png","../images/blu_wht.png","../images/pnk_blu.png","../images/ylw_slt.png"],"mutagen_generator_assignment":[1,0],"goal":5,"start":3,"action_noise":0,"location_history":"[3,4,2,3,2,1,3,2,1,5]","action_history":"[1,1,1,0,0,0,0,0,1]","mutagen_history":"[0,0,0,1,1,1,1,1,0]","location_rts":"[1467,815,753,474,509,449,1055,965,299]","trial_type":"fractal-mutation","trial_index":67,"time_elapsed":1007344,"internal_node_id":"0.0-5.0-13.0"},{"group":"hexagon_tri","fractal_assignment":["../images/org_blu.png","../images/cyn_red.png","../images/gry_blk.png","../images/blu_wht.png","../images/pnk_blu.png","../images/ylw_slt.png"],"mutagen_generator_assignment":[1,0],"goal":4,"start":5,"action_noise":0,"location_history":"[5,4]","action_history":"[0]","mutagen_history":"[1]","location_rts":"[2188]","trial_type":"fractal-mutation","trial_index":68,"time_elapsed":1014574,"internal_node_id":"0.0-5.0-14.0"},{"group":"hexagon_tri","fractal_assignment":["../images/org_blu.png","../images/cyn_red.png","../images/gry_blk.png","../images/blu_wht.png","../images/pnk_blu.png","../images/ylw_slt.png"],"mutagen_generator_assignment":[1,0],"goal":0,"start":4,"action_noise":0,"location_history":"[4,2,1,3,4,0]","action_history":"[1,0,0,1,0]","mutagen_history":"[0,1,1,0,1]","location_rts":"[3128,452,940,690,898]","trial_type":"fractal-mutation","trial_index":69,"time_elapsed":1029860,"internal_node_id":"0.0-5.0-15.0"},{"group":"hexagon_tri","fractal_assignment":["../images/org_blu.png","../images/cyn_red.png","../images/gry_blk.png","../images/blu_wht.png","../images/pnk_blu.png","../images/ylw_slt.png"],"mutagen_generator_assignment":[1,0],"goal":3,"start":0,"action_noise":0,"location_history":"[0,1,5,4,0,1,3]","action_history":"[1,1,0,0,1,0]","mutagen_history":"[0,0,1,1,0,1]","location_rts":"[1221,419,759,506,491,724]","trial_type":"fractal-mutation","trial_index":70,"time_elapsed":1044174,"internal_node_id":"0.0-5.0-16.0"},{"group":"hexagon_tri","fractal_assignment":["../images/org_blu.png","../images/cyn_red.png","../images/gry_blk.png","../images/blu_wht.png","../images/pnk_blu.png","../images/ylw_slt.png"],"mutagen_generator_assignment":[1,0],"goal":1,"start":3,"action_noise":0,"location_history":"[3,2,3,4,0,5,0,1]","action_history":"[0,1,1,0,0,1,1]","mutagen_history":"[1,0,0,1,1,0,0]","location_rts":"[2245,453,429,497,479,422,837]","trial_type":"fractal-mutation","trial_index":71,"time_elapsed":1060773,"internal_node_id":"0.0-5.0-17.0"},{"group":"hexagon_tri","fractal_assignment":["../images/org_blu.png","../images/cyn_red.png","../images/gry_blk.png","../images/blu_wht.png","../images/pnk_blu.png","../images/ylw_slt.png"],"mutagen_generator_assignment":[1,0],"goal":5,"start":1,"action_noise":0,"location_history":"[1,5]","action_history":"[1]","mutagen_history":"[0]","location_rts":"[1741]","trial_type":"fractal-mutation","trial_index":72,"time_elapsed":1067552,"internal_node_id":"0.0-5.0-18.0"},{"group":"hexagon_tri","fractal_assignment":["../images/org_blu.png","../images/cyn_red.png","../images/gry_blk.png","../images/blu_wht.png","../images/pnk_blu.png","../images/ylw_slt.png"],"mutagen_generator_assignment":[1,0],"goal":2,"start":5,"action_noise":0,"location_history":"[5,4,2]","action_history":"[0,1]","mutagen_history":"[1,0]","location_rts":"[363,325]","trial_type":"fractal-mutation","trial_index":73,"time_elapsed":1074319,"internal_node_id":"0.0-5.0-19.0"},{"group":"hexagon_tri","fractal_assignment":["../images/org_blu.png","../images/cyn_red.png","../images/gry_blk.png","../images/blu_wht.png","../images/pnk_blu.png","../images/ylw_slt.png"],"mutagen_generator_assignment":[1,0],"goal":4,"start":2,"action_noise":0,"location_history":"[2,3,2,1,3,4]","action_history":"[1,0,0,0,1]","mutagen_history":"[0,1,1,1,0]","location_rts":"[979,454,598,741,456]","trial_type":"fractal-mutation","trial_index":74,"time_elapsed":1086755,"internal_node_id":"0.0-5.0-20.0"},{"group":"hexagon_tri","fractal_assignment":["../images/org_blu.png","../images/cyn_red.png","../images/gry_blk.png","../images/blu_wht.png","../images/pnk_blu.png","../images/ylw_slt.png"],"mutagen_generator_assignment":[1,0],"goal":1,"start":4,"action_noise":0,"location_history":"[4,2,1]","action_history":"[1,0]","mutagen_history":"[0,1]","location_rts":"[1695,1208]","trial_type":"fractal-mutation","trial_index":75,"time_elapsed":1095732,"internal_node_id":"0.0-5.0-21.0"},{"group":"hexagon_tri","fractal_assignment":["../images/org_blu.png","../images/cyn_red.png","../images/gry_blk.png","../images/blu_wht.png","../images/pnk_blu.png","../images/ylw_slt.png"],"mutagen_generator_assignment":[1,0],"goal":3,"start":1,"action_noise":0,"location_history":"[1,3]","action_history":"[0]","mutagen_history":"[1]","location_rts":"[1141]","trial_type":"fractal-mutation","trial_index":76,"time_elapsed":1101916,"internal_node_id":"0.0-5.0-22.0"},{"group":"hexagon_tri","fractal_assignment":["../images/org_blu.png","../images/cyn_red.png","../images/gry_blk.png","../images/blu_wht.png","../images/pnk_blu.png","../images/ylw_slt.png"],"mutagen_generator_assignment":[1,0],"goal":2,"start":3,"action_noise":0,"location_history":"[3,4,2]","action_history":"[1,1]","mutagen_history":"[0,0]","location_rts":"[962,657]","trial_type":"fractal-mutation","trial_index":77,"time_elapsed":1109596,"internal_node_id":"0.0-5.0-23.0"},{"group":"hexagon_tri","fractal_assignment":["../images/org_blu.png","../images/cyn_red.png","../images/gry_blk.png","../images/blu_wht.png","../images/pnk_blu.png","../images/ylw_slt.png"],"mutagen_generator_assignment":[1,0],"goal":0,"start":2,"action_noise":0,"location_history":"[2,1,5,0]","action_history":"[0,1,1]","mutagen_history":"[1,0,0]","location_rts":"[1612,510,511]","trial_type":"fractal-mutation","trial_index":78,"time_elapsed":1119347,"internal_node_id":"0.0-5.0-24.0"},{"group":"hexagon_tri","fractal_assignment":["../images/org_blu.png","../images/cyn_red.png","../images/gry_blk.png","../images/blu_wht.png","../images/pnk_blu.png","../images/ylw_slt.png"],"mutagen_generator_assignment":[1,0],"goal":5,"start":0,"action_noise":0,"location_history":"[0,5]","action_history":"[0]","mutagen_history":"[1]","location_rts":"[1594]","trial_type":"fractal-mutation","trial_index":79,"time_elapsed":1125985,"internal_node_id":"0.0-5.0-25.0"},{"group":"hexagon_tri","fractal_assignment":["../images/org_blu.png","../images/cyn_red.png","../images/gry_blk.png","../images/blu_wht.png","../images/pnk_blu.png","../images/ylw_slt.png"],"mutagen_generator_assignment":[1,0],"goal":2,"start":5,"action_noise":0,"location_history":"[5,0,1,3,2]","action_history":"[1,1,0,0]","mutagen_history":"[0,0,1,1]","location_rts":"[1099,725,401,426]","trial_type":"fractal-mutation","trial_index":80,"time_elapsed":1136783,"internal_node_id":"0.0-5.0-26.0"},{"group":"hexagon_tri","fractal_assignment":["../images/org_blu.png","../images/cyn_red.png","../images/gry_blk.png","../images/blu_wht.png","../images/pnk_blu.png","../images/ylw_slt.png"],"mutagen_generator_assignment":[1,0],"goal":3,"start":2,"action_noise":0,"location_history":"[2,1,5,0,1,3]","action_history":"[0,1,1,1,0]","mutagen_history":"[1,0,0,0,1]","location_rts":"[950,478,654,470,334]","trial_type":"fractal-mutation","trial_index":81,"time_elapsed":1148835,"internal_node_id":"0.0-5.0-27.0"},{"group":"hexagon_tri","fractal_assignment":["../images/org_blu.png","../images/cyn_red.png","../images/gry_blk.png","../images/blu_wht.png","../images/pnk_blu.png","../images/ylw_slt.png"],"mutagen_generator_assignment":[1,0],"goal":0,"start":3,"action_noise":0,"location_history":"[3,2,3,4,2,3,2,1,3,4,0]","action_history":"[0,1,1,1,1,0,0,0,1,0]","mutagen_history":"[1,0,0,0,0,1,1,1,0,1]","location_rts":"[688,291,465,461,604,478,454,555,437,236]","trial_type":"fractal-mutation","trial_index":82,"time_elapsed":1167845,"internal_node_id":"0.0-5.0-28.0"},{"group":"hexagon_tri","fractal_assignment":["../images/org_blu.png","../images/cyn_red.png","../images/gry_blk.png","../images/blu_wht.png","../images/pnk_blu.png","../images/ylw_slt.png"],"mutagen_generator_assignment":[1,0],"goal":1,"start":0,"action_noise":0,"location_history":"[0,1]","action_history":"[1]","mutagen_history":"[0]","location_rts":"[963]","trial_type":"fractal-mutation","trial_index":83,"time_elapsed":1173845,"internal_node_id":"0.0-5.0-29.0"},{"group":"hexagon_tri","fractal_assignment":["../images/org_blu.png","../images/cyn_red.png","../images/gry_blk.png","../images/blu_wht.png","../images/pnk_blu.png","../images/ylw_slt.png"],"mutagen_generator_assignment":[1,0],"goal":4,"start":1,"action_noise":0,"location_history":"[1,3,2,3,2,1,3,4]","action_history":"[0,0,1,0,0,0,1]","mutagen_history":"[1,1,0,1,1,1,0]","location_rts":"[363,540,467,538,637,559,338]","trial_type":"fractal-mutation","trial_index":84,"time_elapsed":1188539,"internal_node_id":"0.0-5.0-30.0"},{"group":"hexagon_tri","fractal_assignment":["../images/org_blu.png","../images/cyn_red.png","../images/gry_blk.png","../images/blu_wht.png","../images/pnk_blu.png","../images/ylw_slt.png"],"mutagen_generator_assignment":[1,0],"goal":5,"start":4,"action_noise":0,"location_history":"[4,0,1,3,2,3,4,0,5]","action_history":"[0,1,0,0,1,1,0,0]","mutagen_history":"[1,0,1,1,0,0,1,1]","location_rts":"[17359,357,459,359,552,566,545,365]","trial_type":"fractal-mutation","trial_index":85,"time_elapsed":1221400,"internal_node_id":"0.0-5.0-31.0"},{"group":"hexagon_tri","fractal_assignment":["../images/org_blu.png","../images/cyn_red.png","../images/gry_blk.png","../images/blu_wht.png","../images/pnk_blu.png","../images/ylw_slt.png"],"mutagen_generator_assignment":[1,0],"goal":0,"start":5,"action_noise":0,"location_history":"[5,0]","action_history":"[1]","mutagen_history":"[0]","location_rts":"[1372]","trial_type":"fractal-mutation","trial_index":86,"time_elapsed":1227808,"internal_node_id":"0.0-5.0-32.0"},{"group":"hexagon_tri","fractal_assignment":["../images/org_blu.png","../images/cyn_red.png","../images/gry_blk.png","../images/blu_wht.png","../images/pnk_blu.png","../images/ylw_slt.png"],"mutagen_generator_assignment":[1,0],"goal":3,"start":0,"action_noise":0,"location_history":"[0,1,3]","action_history":"[1,0]","mutagen_history":"[0,1]","location_rts":"[736,483]","trial_type":"fractal-mutation","trial_index":87,"time_elapsed":1235103,"internal_node_id":"0.0-5.0-33.0"},{"group":"hexagon_tri","fractal_assignment":["../images/org_blu.png","../images/cyn_red.png","../images/gry_blk.png","../images/blu_wht.png","../images/pnk_blu.png","../images/ylw_slt.png"],"mutagen_generator_assignment":[1,0],"goal":1,"start":3,"action_noise":0,"location_history":"[3,2,1]","action_history":"[0,0]","mutagen_history":"[1,1]","location_rts":"[9052,4508]","trial_type":"fractal-mutation","trial_index":88,"time_elapsed":1254744,"internal_node_id":"0.0-5.0-34.0"},{"group":"hexagon_tri","fractal_assignment":["../images/org_blu.png","../images/cyn_red.png","../images/gry_blk.png","../images/blu_wht.png","../images/pnk_blu.png","../images/ylw_slt.png"],"mutagen_generator_assignment":[1,0],"goal":2,"start":1,"action_noise":0,"location_history":"[1,5,0,1,3,4,0,5,0,5,0,1,5,4,0,1,3,2]","action_history":"[1,1,1,0,1,0,0,1,0,1,1,1,0,0,1,0,0]","mutagen_history":"[0,0,0,1,0,1,1,0,1,0,0,0,1,1,0,1,1]","location_rts":"[750,399,463,390,395,366,447,723,329,669,393,447,313,294,578,456,277]","trial_type":"fractal-mutation","trial_index":89,"time_elapsed":1283998,"internal_node_id":"0.0-5.0-35.0"},{"group":"hexagon_tri","fractal_assignment":["../images/org_blu.png","../images/cyn_red.png","../images/gry_blk.png","../images/blu_wht.png","../images/pnk_blu.png","../images/ylw_slt.png"],"mutagen_generator_assignment":[1,0],"goal":4,"start":2,"action_noise":0,"location_history":"[2,3,2,1,3,4]","action_history":"[1,0,0,0,1]","mutagen_history":"[0,1,1,1,0]","location_rts":"[868,377,461,521,481]","trial_type":"fractal-mutation","trial_index":90,"time_elapsed":1295886,"internal_node_id":"0.0-5.0-36.0"},{"group":"hexagon_tri","fractal_assignment":["../images/org_blu.png","../images/cyn_red.png","../images/gry_blk.png","../images/blu_wht.png","../images/pnk_blu.png","../images/ylw_slt.png"],"mutagen_generator_assignment":[1,0],"goal":5,"start":4,"action_noise":0,"location_history":"[4,0,1,5]","action_history":"[0,1,1]","mutagen_history":"[1,0,0]","location_rts":"[8976,498,484]","trial_type":"fractal-mutation","trial_index":91,"time_elapsed":1312940,"internal_node_id":"0.0-5.0-37.0"},{"group":"hexagon_tri","fractal_assignment":["../images/org_blu.png","../images/cyn_red.png","../images/gry_blk.png","../images/blu_wht.png","../images/pnk_blu.png","../images/ylw_slt.png"],"mutagen_generator_assignment":[1,0],"goal":1,"start":5,"action_noise":0,"location_history":"[5,4,0,5,0,1]","action_history":"[0,0,0,1,1]","mutagen_history":"[1,1,1,0,0]","location_rts":"[5806,6816,604,551,623]","trial_type":"fractal-mutation","trial_index":92,"time_elapsed":1336516,"internal_node_id":"0.0-5.0-38.0"},{"group":"hexagon_tri","fractal_assignment":["../images/org_blu.png","../images/cyn_red.png","../images/gry_blk.png","../images/blu_wht.png","../images/pnk_blu.png","../images/ylw_slt.png"],"mutagen_generator_assignment":[1,0],"goal":4,"start":1,"action_noise":0,"location_history":"[1,5,0,5,4]","action_history":"[1,1,0,0]","mutagen_history":"[0,0,1,1]","location_rts":"[1002,398,614,348]","trial_type":"fractal-mutation","trial_index":93,"time_elapsed":1347008,"internal_node_id":"0.0-5.0-39.0"},{"group":"hexagon_tri","fractal_assignment":["../images/org_blu.png","../images/cyn_red.png","../images/gry_blk.png","../images/blu_wht.png","../images/pnk_blu.png","../images/ylw_slt.png"],"mutagen_generator_assignment":[1,0],"goal":3,"start":4,"action_noise":0,"location_history":"[4,0,1,3]","action_history":"[0,1,0]","mutagen_history":"[1,0,1]","location_rts":"[20433,511,440]","trial_type":"fractal-mutation","trial_index":94,"time_elapsed":1375494,"internal_node_id":"0.0-5.0-40.0"},{"group":"hexagon_tri","fractal_assignment":["../images/org_blu.png","../images/cyn_red.png","../images/gry_blk.png","../images/blu_wht.png","../images/pnk_blu.png","../images/ylw_slt.png"],"mutagen_generator_assignment":[1,0],"goal":2,"start":3,"action_noise":0,"location_history":"[3,4,2]","action_history":"[1,1]","mutagen_history":"[0,0]","location_rts":"[644,3537]","trial_type":"fractal-mutation","trial_index":95,"time_elapsed":1385741,"internal_node_id":"0.0-5.0-41.0"},{"group":"hexagon_tri","fractal_assignment":["../images/org_blu.png","../images/cyn_red.png","../images/gry_blk.png","../images/blu_wht.png","../images/pnk_blu.png","../images/ylw_slt.png"],"mutagen_generator_assignment":[1,0],"goal":0,"start":2,"action_noise":0,"location_history":"[2,3,4,0]","action_history":"[1,1,0]","mutagen_history":"[0,0,1]","location_rts":"[1012,400,348]","trial_type":"fractal-mutation","trial_index":96,"time_elapsed":1394600,"internal_node_id":"0.0-5.0-42.0"},{"group":"hexagon_tri","fractal_assignment":["../images/org_blu.png","../images/cyn_red.png","../images/gry_blk.png","../images/blu_wht.png","../images/pnk_blu.png","../images/ylw_slt.png"],"mutagen_generator_assignment":[1,0],"goal":5,"start":0,"action_noise":0,"location_history":"[0,5]","action_history":"[0]","mutagen_history":"[1]","location_rts":"[11962]","trial_type":"fractal-mutation","trial_index":97,"time_elapsed":1411618,"internal_node_id":"0.0-5.0-43.0"},{"group":"hexagon_tri","fractal_assignment":["../images/org_blu.png","../images/cyn_red.png","../images/gry_blk.png","../images/blu_wht.png","../images/pnk_blu.png","../images/ylw_slt.png"],"mutagen_generator_assignment":[1,0],"goal":0,"start":5,"action_noise":0,"location_history":"[5,0]","action_history":"[1]","mutagen_history":"[0]","location_rts":"[9976]","trial_type":"fractal-mutation","trial_index":98,"time_elapsed":1426633,"internal_node_id":"0.0-5.0-44.0"},{"group":"hexagon_tri","fractal_assignment":["../images/org_blu.png","../images/cyn_red.png","../images/gry_blk.png","../images/blu_wht.png","../images/pnk_blu.png","../images/ylw_slt.png"],"mutagen_generator_assignment":[1,0],"goal":2,"start":0,"action_noise":0,"location_history":"[0,5,0,5,4,0,1,5,4,0,5,4,2]","action_history":"[0,1,0,0,0,1,1,0,0,0,0,1]","mutagen_history":"[1,0,1,1,1,0,0,1,1,1,1,0]","location_rts":"[4912,740,451,438,1489,352,774,409,340,908,694,423]","trial_type":"fractal-mutation","trial_index":99,"time_elapsed":1454977,"internal_node_id":"0.0-5.0-45.0"},{"group":"hexagon_tri","fractal_assignment":["../images/org_blu.png","../images/cyn_red.png","../images/gry_blk.png","../images/blu_wht.png","../images/pnk_blu.png","../images/ylw_slt.png"],"mutagen_generator_assignment":[1,0],"goal":4,"start":2,"action_noise":0,"location_history":"[2,3,2,1,3,4]","action_history":"[1,0,0,0,1]","mutagen_history":"[0,1,1,1,0]","location_rts":"[4474,525,2372,529,482]","trial_type":"fractal-mutation","trial_index":100,"time_elapsed":1472522,"internal_node_id":"0.0-5.0-46.0"},{"group":"hexagon_tri","fractal_assignment":["../images/org_blu.png","../images/cyn_red.png","../images/gry_blk.png","../images/blu_wht.png","../images/pnk_blu.png","../images/ylw_slt.png"],"mutagen_generator_assignment":[1,0],"goal":1,"start":4,"action_noise":0,"location_history":"[4,0,1]","action_history":"[0,1]","mutagen_history":"[1,0]","location_rts":"[505,633]","trial_type":"fractal-mutation","trial_index":101,"time_elapsed":1479736,"internal_node_id":"0.0-5.0-47.0"},{"group":"hexagon_tri","fractal_assignment":["../images/org_blu.png","../images/cyn_red.png","../images/gry_blk.png","../images/blu_wht.png","../images/pnk_blu.png","../images/ylw_slt.png"],"mutagen_generator_assignment":[1,0],"goal":5,"start":1,"action_noise":0,"location_history":"[1,3,4,0,5]","action_history":"[0,1,0,0]","mutagen_history":"[1,0,1,1]","location_rts":"[612,670,594,478]","trial_type":"fractal-mutation","trial_index":102,"time_elapsed":1490243,"internal_node_id":"0.0-5.0-48.0"},{"group":"hexagon_tri","fractal_assignment":["../images/org_blu.png","../images/cyn_red.png","../images/gry_blk.png","../images/blu_wht.png","../images/pnk_blu.png","../images/ylw_slt.png"],"mutagen_generator_assignment":[1,0],"goal":3,"start":5,"action_noise":0,"location_history":"[5,4,0,1,5,4,0,1,5,4,0,5,4,2,3]","action_history":"[0,0,1,1,0,0,1,1,0,0,0,0,1,1]","mutagen_history":"[1,1,0,0,1,1,0,0,1,1,1,1,0,0]","location_rts":"[5135,973,475,686,640,558,668,760,379,539,399,482,939,740]","trial_type":"fractal-mutation","trial_index":103,"time_elapsed":1522111,"internal_node_id":"0.0-5.0-49.0"},{"view_history":"[{\"page_index\":0,\"viewing_time\":11964}]","rt":11964,"trial_type":"instructions","trial_index":104,"time_elapsed":1535077,"internal_node_id":"0.0-6.0"},{"rt":31233,"responses":"{\"Q0\":\"\"}","trial_type":"survey-text","trial_index":105,"time_elapsed":1567316,"internal_node_id":"0.0-7.0"}]