[{"view_history":"[{\"page_index\":0,\"viewing_time\":4069},{\"page_index\":1,\"viewing_time\":74759}]","rt":78829,"trial_type":"instructions","trial_index":0,"time_elapsed":78830,"internal_node_id":"0.0-0.0"},{"view_history":"[{\"page_index\":0,\"viewing_time\":5901},{\"page_index\":1,\"viewing_time\":4913}]","rt":10815,"trial_type":"instructions","trial_index":1,"time_elapsed":90647,"internal_node_id":"0.0-1.0"},{"group":"hexagon_tri","room_assignment":["red","purple","green","blue","yellow","grey"],"door_color_assignment":["black","white"],"door_generator_assignment":[1,0],"goal":3,"start":5,"action_noise":0,"location_history":"[5,0,1,3]","action_history":"[1,1,0]","door_history":"[0,0,1]","location_rts":"[6438,1494,574]","trial_type":"two-door-navigation","trial_index":2,"time_elapsed":106266,"internal_node_id":"0.0-2.0-0.0"},{"group":"hexagon_tri","room_assignment":["red","purple","green","blue","yellow","grey"],"door_color_assignment":["black","white"],"door_generator_assignment":[1,0],"goal":1,"start":3,"action_noise":0,"location_history":"[3,2,1]","action_history":"[0,0]","door_history":"[1,1]","location_rts":"[1952,341]","trial_type":"two-door-navigation","trial_index":3,"time_elapsed":114609,"internal_node_id":"0.0-2.0-1.0"},{"group":"hexagon_tri","room_assignment":["red","purple","green","blue","yellow","grey"],"door_color_assignment":["black","white"],"door_generator_assignment":[1,0],"goal":0,"start":1,"action_noise":0,"location_history":"[1,3,4,2,3,4,0]","action_history":"[0,1,1,1,1,0]","door_history":"[1,0,0,0,0,1]","location_rts":"[2984,363,1361,822,819,888]","trial_type":"two-door-navigation","trial_index":4,"time_elapsed":132020,"internal_node_id":"0.0-2.0-2.0"},{"group":"hexagon_tri","room_assignment":["red","purple","green","blue","yellow","grey"],"door_color_assignment":["black","white"],"door_generator_assignment":[1,0],"goal":3,"start":0,"action_noise":0,"location_history":"[0,5,0,5,4,2,1,3]","action_history":"[0,1,0,0,1,0,0]","door_history":"[1,0,1,1,0,1,1]","location_rts":"[2322,2137,726,47,792,645,519]","trial_type":"two-door-navigation","trial_index":5,"time_elapsed":150399,"internal_node_id":"0.0-2.0-3.0"},{"group":"hexagon_tri","room_assignment":["red","purple","green","blue","yellow","grey"],"door_color_assignment":["black","white"],"door_generator_assignment":[1,0],"goal":4,"start":3,"action_noise":0,"location_history":"[3,4]","action_history":"[1]","door_history":"[0]","location_rts":"[2081]","trial_type":"two-door-navigation","trial_index":6,"time_elapsed":157510,"internal_node_id":"0.0-2.0-4.0"},{"group":"hexagon_tri","room_assignment":["red","purple","green","blue","yellow","grey"],"door_color_assignment":["black","white"],"door_generator_assignment":[1,0],"goal":2,"start":4,"action_noise":0,"location_history":"[4,0,5,4,2]","action_history":"[0,0,0,1]","door_history":"[1,1,1,0]","location_rts":"[3488,1692,1996,764]","trial_type":"two-door-navigation","trial_index":7,"time_elapsed":173545,"internal_node_id":"0.0-2.0-5.0"},{"group":"hexagon_tri","room_assignment":["red","purple","green","blue","yellow","grey"],"door_color_assignment":["black","white"],"door_generator_assignment":[1,0],"goal":1,"start":2,"action_noise":0,"location_history":"[2,1]","action_history":"[0]","door_history":"[1]","location_rts":"[3216]","trial_type":"two-door-navigation","trial_index":8,"time_elapsed":181788,"internal_node_id":"0.0-2.0-6.0"},{"group":"hexagon_tri","room_assignment":["red","purple","green","blue","yellow","grey"],"door_color_assignment":["black","white"],"door_generator_assignment":[1,0],"goal":5,"start":1,"action_noise":0,"location_history":"[1,5]","action_history":"[1]","door_history":"[0]","location_rts":"[3660]","trial_type":"two-door-navigation","trial_index":9,"time_elapsed":190482,"internal_node_id":"0.0-2.0-7.0"},{"group":"hexagon_tri","room_assignment":["red","purple","green","blue","yellow","grey"],"door_color_assignment":["black","white"],"door_generator_assignment":[1,0],"goal":4,"start":5,"action_noise":0,"location_history":"[5,4]","action_history":"[0]","door_history":"[1]","location_rts":"[4812]","trial_type":"two-door-navigation","trial_index":10,"time_elapsed":200320,"internal_node_id":"0.0-2.0-8.0"},{"group":"hexagon_tri","room_assignment":["red","purple","green","blue","yellow","grey"],"door_color_assignment":["black","white"],"door_generator_assignment":[1,0],"goal":2,"start":4,"action_noise":0,"location_history":"[4,2]","action_history":"[1]","door_history":"[0]","location_rts":"[3159]","trial_type":"two-door-navigation","trial_index":11,"time_elapsed":208506,"internal_node_id":"0.0-2.0-9.0"},{"group":"hexagon_tri","room_assignment":["red","purple","green","blue","yellow","grey"],"door_color_assignment":["black","white"],"door_generator_assignment":[1,0],"goal":0,"start":2,"action_noise":0,"location_history":"[2,3,2,3,4,0]","action_history":"[1,0,1,1,0]","door_history":"[0,1,0,0,1]","location_rts":"[1929,2013,789,340,587]","trial_type":"two-door-navigation","trial_index":12,"time_elapsed":223287,"internal_node_id":"0.0-2.0-10.0"},{"group":"hexagon_tri","room_assignment":["red","purple","green","blue","yellow","grey"],"door_color_assignment":["black","white"],"door_generator_assignment":[1,0],"goal":1,"start":0,"action_noise":0,"location_history":"[0,5,4,2,1]","action_history":"[0,0,1,0]","door_history":"[1,1,0,1]","location_rts":"[1915,1628,1052,854]","trial_type":"two-door-navigation","trial_index":13,"time_elapsed":236862,"internal_node_id":"0.0-2.0-11.0"},{"group":"hexagon_tri","room_assignment":["red","purple","green","blue","yellow","grey"],"door_color_assignment":["black","white"],"door_generator_assignment":[1,0],"goal":3,"start":1,"action_noise":0,"location_history":"[1,5,4,0,1,3]","action_history":"[1,0,0,1,0]","door_history":"[0,1,1,0,1]","location_rts":"[1140,667,1281,873,943]","trial_type":"two-door-navigation","trial_index":14,"time_elapsed":250875,"internal_node_id":"0.0-2.0-12.0"},{"group":"hexagon_tri","room_assignment":["red","purple","green","blue","yellow","grey"],"door_color_assignment":["black","white"],"door_generator_assignment":[1,0],"goal":5,"start":3,"action_noise":0,"location_history":"[3,4,0,1,5]","action_history":"[1,0,1,1]","door_history":"[0,1,0,0]","location_rts":"[2467,769,900,1024]","trial_type":"two-door-navigation","trial_index":15,"time_elapsed":264130,"internal_node_id":"0.0-2.0-13.0"},{"group":"hexagon_tri","room_assignment":["red","purple","green","blue","yellow","grey"],"door_color_assignment":["black","white"],"door_generator_assignment":[1,0],"goal":4,"start":5,"action_noise":0,"location_history":"[5,4]","action_history":"[0]","door_history":"[1]","location_rts":"[2215]","trial_type":"two-door-navigation","trial_index":16,"time_elapsed":271371,"internal_node_id":"0.0-2.0-14.0"},{"group":"hexagon_tri","room_assignment":["red","purple","green","blue","yellow","grey"],"door_color_assignment":["black","white"],"door_generator_assignment":[1,0],"goal":0,"start":4,"action_noise":0,"location_history":"[4,0]","action_history":"[0]","door_history":"[1]","location_rts":"[8791]","trial_type":"two-door-navigation","trial_index":17,"time_elapsed":285189,"internal_node_id":"0.0-2.0-15.0"},{"group":"hexagon_tri","room_assignment":["red","purple","green","blue","yellow","grey"],"door_color_assignment":["black","white"],"door_generator_assignment":[1,0],"goal":3,"start":0,"action_noise":0,"location_history":"[0,1,3]","action_history":"[1,0]","door_history":"[0,1]","location_rts":"[2213,674]","trial_type":"two-door-navigation","trial_index":18,"time_elapsed":294124,"internal_node_id":"0.0-2.0-16.0"},{"group":"hexagon_tri","room_assignment":["red","purple","green","blue","yellow","grey"],"door_color_assignment":["black","white"],"door_generator_assignment":[1,0],"goal":1,"start":3,"action_noise":0,"location_history":"[3,2,1]","action_history":"[0,0]","door_history":"[1,1]","location_rts":"[1769,282]","trial_type":"two-door-navigation","trial_index":19,"time_elapsed":302234,"internal_node_id":"0.0-2.0-17.0"},{"group":"hexagon_tri","room_assignment":["red","purple","green","blue","yellow","grey"],"door_color_assignment":["black","white"],"door_generator_assignment":[1,0],"goal":5,"start":1,"action_noise":0,"location_history":"[1,5]","action_history":"[1]","door_history":"[0]","location_rts":"[1547]","trial_type":"two-door-navigation","trial_index":20,"time_elapsed":308806,"internal_node_id":"0.0-2.0-18.0"},{"group":"hexagon_tri","room_assignment":["red","purple","green","blue","yellow","grey"],"door_color_assignment":["black","white"],"door_generator_assignment":[1,0],"goal":2,"start":5,"action_noise":0,"location_history":"[5,0,5,4,0,1,3,2]","action_history":"[1,0,0,0,1,0,0]","door_history":"[0,1,1,1,0,1,1]","location_rts":"[2983,501,921,1212,1398,1813,183]","trial_type":"two-door-navigation","trial_index":21,"time_elapsed":328978,"internal_node_id":"0.0-2.0-19.0"},{"group":"hexagon_tri","room_assignment":["red","purple","green","blue","yellow","grey"],"door_color_assignment":["black","white"],"door_generator_assignment":[1,0],"goal":4,"start":2,"action_noise":0,"location_history":"[2,1,5,4]","action_history":"[0,1,0]","door_history":"[1,0,1]","location_rts":"[2477,836,901]","trial_type":"two-door-navigation","trial_index":22,"time_elapsed":340264,"internal_node_id":"0.0-2.0-20.0"},{"group":"hexagon_tri","room_assignment":["red","purple","green","blue","yellow","grey"],"door_color_assignment":["black","white"],"door_generator_assignment":[1,0],"goal":1,"start":4,"action_noise":0,"location_history":"[4,0,1]","action_history":"[0,1]","door_history":"[1,0]","location_rts":"[2126,876]","trial_type":"two-door-navigation","trial_index":23,"time_elapsed":349319,"internal_node_id":"0.0-2.0-21.0"},{"group":"hexagon_tri","room_assignment":["red","purple","green","blue","yellow","grey"],"door_color_assignment":["black","white"],"door_generator_assignment":[1,0],"goal":3,"start":1,"action_noise":0,"location_history":"[1,3]","action_history":"[0]","door_history":"[1]","location_rts":"[1336]","trial_type":"two-door-navigation","trial_index":24,"time_elapsed":355686,"internal_node_id":"0.0-2.0-22.0"},{"group":"hexagon_tri","room_assignment":["red","purple","green","blue","yellow","grey"],"door_color_assignment":["black","white"],"door_generator_assignment":[1,0],"goal":2,"start":3,"action_noise":0,"location_history":"[3,2]","action_history":"[0]","door_history":"[1]","location_rts":"[1351]","trial_type":"two-door-navigation","trial_index":25,"time_elapsed":362065,"internal_node_id":"0.0-2.0-23.0"},{"group":"hexagon_tri","room_assignment":["red","purple","green","blue","yellow","grey"],"door_color_assignment":["black","white"],"door_generator_assignment":[1,0],"goal":0,"start":2,"action_noise":0,"location_history":"[2,3,4,0]","action_history":"[1,1,0]","door_history":"[0,0,1]","location_rts":"[2633,3815,1336]","trial_type":"two-door-navigation","trial_index":26,"time_elapsed":376922,"internal_node_id":"0.0-2.0-24.0"},{"group":"hexagon_tri","room_assignment":["red","purple","green","blue","yellow","grey"],"door_color_assignment":["black","white"],"door_generator_assignment":[1,0],"goal":5,"start":0,"action_noise":0,"location_history":"[0,1,5]","action_history":"[1,1]","door_history":"[0,0]","location_rts":"[1552,1618]","trial_type":"two-door-navigation","trial_index":27,"time_elapsed":386141,"internal_node_id":"0.0-2.0-25.0"},{"group":"hexagon_tri","room_assignment":["red","purple","green","blue","yellow","grey"],"door_color_assignment":["black","white"],"door_generator_assignment":[1,0],"goal":2,"start":5,"action_noise":0,"location_history":"[5,0,5,4,2]","action_history":"[1,0,0,1]","door_history":"[0,1,1,0]","location_rts":"[1156,670,1116,485]","trial_type":"two-door-navigation","trial_index":28,"time_elapsed":397666,"internal_node_id":"0.0-2.0-26.0"},{"group":"hexagon_tri","room_assignment":["red","purple","green","blue","yellow","grey"],"door_color_assignment":["black","white"],"door_generator_assignment":[1,0],"goal":3,"start":2,"action_noise":0,"location_history":"[2,1,3]","action_history":"[0,0]","door_history":"[1,1]","location_rts":"[1116,607]","trial_type":"two-door-navigation","trial_index":29,"time_elapsed":405439,"internal_node_id":"0.0-2.0-27.0"},{"group":"hexagon_tri","room_assignment":["red","purple","green","blue","yellow","grey"],"door_color_assignment":["black","white"],"door_generator_assignment":[1,0],"goal":0,"start":3,"action_noise":0,"location_history":"[3,4,2,3,2,3,4,2,3,4,0]","action_history":"[1,1,1,0,1,1,1,1,1,0]","door_history":"[0,0,0,1,0,0,0,0,0,1]","location_rts":"[1319,900,1118,717,442,1428,1491,732,494,281]","trial_type":"two-door-navigation","trial_index":30,"time_elapsed":428605,"internal_node_id":"0.0-2.0-28.0"},{"group":"hexagon_tri","room_assignment":["red","purple","green","blue","yellow","grey"],"door_color_assignment":["black","white"],"door_generator_assignment":[1,0],"goal":1,"start":0,"action_noise":0,"location_history":"[0,1]","action_history":"[1]","door_history":"[0]","location_rts":"[3388]","trial_type":"two-door-navigation","trial_index":31,"time_elapsed":437022,"internal_node_id":"0.0-2.0-29.0"},{"group":"hexagon_tri","room_assignment":["red","purple","green","blue","yellow","grey"],"door_color_assignment":["black","white"],"door_generator_assignment":[1,0],"goal":4,"start":1,"action_noise":0,"location_history":"[1,3,2,3,2,3,4]","action_history":"[0,0,1,0,1,1]","door_history":"[1,1,0,1,0,0]","location_rts":"[2204,2284,360,1019,401,343]","trial_type":"two-door-navigation","trial_index":32,"time_elapsed":453767,"internal_node_id":"0.0-2.0-30.0"},{"group":"hexagon_tri","room_assignment":["red","purple","green","blue","yellow","grey"],"door_color_assignment":["black","white"],"door_generator_assignment":[1,0],"goal":5,"start":4,"action_noise":0,"location_history":"[4,2,1,5]","action_history":"[1,0,1]","door_history":"[0,1,0]","location_rts":"[1702,272,190]","trial_type":"two-door-navigation","trial_index":33,"time_elapsed":463006,"internal_node_id":"0.0-2.0-31.0"},{"group":"hexagon_tri","room_assignment":["red","purple","green","blue","yellow","grey"],"door_color_assignment":["black","white"],"door_generator_assignment":[1,0],"goal":0,"start":5,"action_noise":0,"location_history":"[5,0]","action_history":"[1]","door_history":"[0]","location_rts":"[1603]","trial_type":"two-door-navigation","trial_index":34,"time_elapsed":469641,"internal_node_id":"0.0-2.0-32.0"},{"group":"hexagon_tri","room_assignment":["red","purple","green","blue","yellow","grey"],"door_color_assignment":["black","white"],"door_generator_assignment":[1,0],"goal":3,"start":0,"action_noise":0,"location_history":"[0,1,3]","action_history":"[1,0]","door_history":"[0,1]","location_rts":"[1245,459]","trial_type":"two-door-navigation","trial_index":35,"time_elapsed":477393,"internal_node_id":"0.0-2.0-33.0"},{"group":"hexagon_tri","room_assignment":["red","purple","green","blue","yellow","grey"],"door_color_assignment":["black","white"],"door_generator_assignment":[1,0],"goal":1,"start":3,"action_noise":0,"location_history":"[3,2,1]","action_history":"[0,0]","door_history":"[1,1]","location_rts":"[1432,575]","trial_type":"two-door-navigation","trial_index":36,"time_elapsed":485456,"internal_node_id":"0.0-2.0-34.0"},{"group":"hexagon_tri","room_assignment":["red","purple","green","blue","yellow","grey"],"door_color_assignment":["black","white"],"door_generator_assignment":[1,0],"goal":2,"start":1,"action_noise":0,"location_history":"[1,3,2]","action_history":"[0,0]","door_history":"[1,1]","location_rts":"[1315,469]","trial_type":"two-door-navigation","trial_index":37,"time_elapsed":493326,"internal_node_id":"0.0-2.0-35.0"},{"group":"hexagon_tri","room_assignment":["red","purple","green","blue","yellow","grey"],"door_color_assignment":["black","white"],"door_generator_assignment":[1,0],"goal":4,"start":2,"action_noise":0,"location_history":"[2,1,5,4]","action_history":"[0,1,0]","door_history":"[1,0,1]","location_rts":"[1564,872,898]","trial_type":"two-door-navigation","trial_index":38,"time_elapsed":503731,"internal_node_id":"0.0-2.0-36.0"},{"group":"hexagon_tri","room_assignment":["red","purple","green","blue","yellow","grey"],"door_color_assignment":["black","white"],"door_generator_assignment":[1,0],"goal":5,"start":4,"action_noise":0,"location_history":"[4,2,1,5]","action_history":"[1,0,1]","door_history":"[0,1,0]","location_rts":"[1997,956,455]","trial_type":"two-door-navigation","trial_index":39,"time_elapsed":514207,"internal_node_id":"0.0-2.0-37.0"},{"group":"hexagon_tri","room_assignment":["red","purple","green","blue","yellow","grey"],"door_color_assignment":["black","white"],"door_generator_assignment":[1,0],"goal":1,"start":5,"action_noise":0,"location_history":"[5,0,5,4,2,1]","action_history":"[1,0,0,1,0]","door_history":"[0,1,1,0,1]","location_rts":"[61443,338,783,1332,831]","trial_type":"two-door-navigation","trial_index":40,"time_elapsed":588600,"internal_node_id":"0.0-2.0-38.0"},{"group":"hexagon_tri","room_assignment":["red","purple","green","blue","yellow","grey"],"door_color_assignment":["black","white"],"door_generator_assignment":[1,0],"goal":4,"start":1,"action_noise":0,"location_history":"[1,3,4]","action_history":"[0,1]","door_history":"[1,0]","location_rts":"[4577,900]","trial_type":"two-door-navigation","trial_index":41,"time_elapsed":601122,"internal_node_id":"0.0-2.0-39.0"},{"group":"hexagon_tri","room_assignment":["red","purple","green","blue","yellow","grey"],"door_color_assignment":["black","white"],"door_generator_assignment":[1,0],"goal":3,"start":4,"action_noise":0,"location_history":"[4,2,1,3]","action_history":"[1,0,0]","door_history":"[0,1,1]","location_rts":"[1374,1912,354]","trial_type":"two-door-navigation","trial_index":42,"time_elapsed":611849,"internal_node_id":"0.0-2.0-40.0"},{"group":"hexagon_tri","room_assignment":["red","purple","green","blue","yellow","grey"],"door_color_assignment":["black","white"],"door_generator_assignment":[1,0],"goal":2,"start":3,"action_noise":0,"location_history":"[3,2]","action_history":"[0]","door_history":"[1]","location_rts":"[1498]","trial_type":"two-door-navigation","trial_index":43,"time_elapsed":618600,"internal_node_id":"0.0-2.0-41.0"},{"group":"hexagon_tri","room_assignment":["red","purple","green","blue","yellow","grey"],"door_color_assignment":["black","white"],"door_generator_assignment":[1,0],"goal":0,"start":2,"action_noise":0,"location_history":"[2,3,2,1,5,0]","action_history":"[1,0,0,1,1]","door_history":"[0,1,1,0,0]","location_rts":"[17834,1469,537,814,816]","trial_type":"two-door-navigation","trial_index":44,"time_elapsed":650199,"internal_node_id":"0.0-2.0-42.0"},{"group":"hexagon_tri","room_assignment":["red","purple","green","blue","yellow","grey"],"door_color_assignment":["black","white"],"door_generator_assignment":[1,0],"goal":5,"start":0,"action_noise":0,"location_history":"[0,1,5]","action_history":"[1,1]","door_history":"[0,0]","location_rts":"[1544,2996]","trial_type":"two-door-navigation","trial_index":45,"time_elapsed":660789,"internal_node_id":"0.0-2.0-43.0"},{"group":"hexagon_tri","room_assignment":["red","purple","green","blue","yellow","grey"],"door_color_assignment":["black","white"],"door_generator_assignment":[1,0],"goal":0,"start":5,"action_noise":0,"location_history":"[5,0]","action_history":"[1]","door_history":"[0]","location_rts":"[1379]","trial_type":"two-door-navigation","trial_index":46,"time_elapsed":667602,"internal_node_id":"0.0-2.0-44.0"},{"group":"hexagon_tri","room_assignment":["red","purple","green","blue","yellow","grey"],"door_color_assignment":["black","white"],"door_generator_assignment":[1,0],"goal":2,"start":0,"action_noise":0,"location_history":"[0,1,3,2]","action_history":"[1,0,0]","door_history":"[0,1,1]","location_rts":"[1480,678,409]","trial_type":"two-door-navigation","trial_index":47,"time_elapsed":678237,"internal_node_id":"0.0-2.0-45.0"},{"group":"hexagon_tri","room_assignment":["red","purple","green","blue","yellow","grey"],"door_color_assignment":["black","white"],"door_generator_assignment":[1,0],"goal":4,"start":2,"action_noise":0,"location_history":"[2,1,5,0,5,4]","action_history":"[0,1,1,0,0]","door_history":"[1,0,0,1,1]","location_rts":"[1986,297,1077,817,913]","trial_type":"two-door-navigation","trial_index":48,"time_elapsed":692449,"internal_node_id":"0.0-2.0-46.0"},{"group":"hexagon_tri","room_assignment":["red","purple","green","blue","yellow","grey"],"door_color_assignment":["black","white"],"door_generator_assignment":[1,0],"goal":1,"start":4,"action_noise":0,"location_history":"[4,2,1]","action_history":"[1,0]","door_history":"[0,1]","location_rts":"[1393,677]","trial_type":"two-door-navigation","trial_index":49,"time_elapsed":700574,"internal_node_id":"0.0-2.0-47.0"},{"group":"hexagon_tri","room_assignment":["red","purple","green","blue","yellow","grey"],"door_color_assignment":["black","white"],"door_generator_assignment":[1,0],"goal":5,"start":1,"action_noise":0,"location_history":"[1,5]","action_history":"[1]","door_history":"[0]","location_rts":"[2583]","trial_type":"two-door-navigation","trial_index":50,"time_elapsed":708185,"internal_node_id":"0.0-2.0-48.0"},{"group":"hexagon_tri","room_assignment":["red","purple","green","blue","yellow","grey"],"door_color_assignment":["black","white"],"door_generator_assignment":[1,0],"goal":3,"start":5,"action_noise":0,"location_history":"[5,0,5,4,0,1,3]","action_history":"[1,0,0,0,1,0]","door_history":"[0,1,1,1,0,1]","location_rts":"[1477,712,632,646,1293,841]","trial_type":"two-door-navigation","trial_index":51,"time_elapsed":723927,"internal_node_id":"0.0-2.0-49.0"},{"view_history":"[{\"page_index\":0,\"viewing_time\":223947}]","rt":223947,"trial_type":"instructions","trial_index":52,"time_elapsed":948875,"internal_node_id":"0.0-3.0"},{"view_history":"[{\"page_index\":0,\"viewing_time\":3823},{\"page_index\":1,\"viewing_time\":6883}]","rt":10706,"trial_type":"instructions","trial_index":53,"time_elapsed":960584,"internal_node_id":"0.0-4.0"},{"group":"hexagon_tri","fractal_assignment":["../images/ylw_slt.png","../images/blu_wht.png","../images/cyn_red.png","../images/org_blu.png","../images/gry_blk.png","../images/pnk_blu.png"],"mutagen_generator_assignment":[1,0],"goal":3,"start":5,"action_noise":0,"location_history":"[5,4,0,1,3]","action_history":"[0,0,1,0]","mutagen_history":"[1,1,0,1]","location_rts":"[3491,773,846,308]","trial_type":"fractal-mutation","trial_index":54,"time_elapsed":974203,"internal_node_id":"0.0-5.0-0.0"},{"group":"hexagon_tri","fractal_assignment":["../images/ylw_slt.png","../images/blu_wht.png","../images/cyn_red.png","../images/org_blu.png","../images/gry_blk.png","../images/pnk_blu.png"],"mutagen_generator_assignment":[1,0],"goal":1,"start":3,"action_noise":0,"location_history":"[3,2,3,2,1]","action_history":"[0,1,0,0]","mutagen_history":"[1,0,1,1]","location_rts":"[1903,503,631,159]","trial_type":"fractal-mutation","trial_index":55,"time_elapsed":985587,"internal_node_id":"0.0-5.0-1.0"},{"group":"hexagon_tri","fractal_assignment":["../images/ylw_slt.png","../images/blu_wht.png","../images/cyn_red.png","../images/org_blu.png","../images/gry_blk.png","../images/pnk_blu.png"],"mutagen_generator_assignment":[1,0],"goal":0,"start":1,"action_noise":0,"location_history":"[1,5,4,0]","action_history":"[1,0,0]","mutagen_history":"[0,1,1]","location_rts":"[4223,902,398]","trial_type":"fractal-mutation","trial_index":56,"time_elapsed":998236,"internal_node_id":"0.0-5.0-2.0"},{"group":"hexagon_tri","fractal_assignment":["../images/ylw_slt.png","../images/blu_wht.png","../images/cyn_red.png","../images/org_blu.png","../images/gry_blk.png","../images/pnk_blu.png"],"mutagen_generator_assignment":[1,0],"goal":3,"start":0,"action_noise":0,"location_history":"[0,1,3]","action_history":"[1,0]","mutagen_history":"[0,1]","location_rts":"[1361,505]","trial_type":"fractal-mutation","trial_index":57,"time_elapsed":1006192,"internal_node_id":"0.0-5.0-3.0"},{"group":"hexagon_tri","fractal_assignment":["../images/ylw_slt.png","../images/blu_wht.png","../images/cyn_red.png","../images/org_blu.png","../images/gry_blk.png","../images/pnk_blu.png"],"mutagen_generator_assignment":[1,0],"goal":4,"start":3,"action_noise":0,"location_history":"[3,4]","action_history":"[1]","mutagen_history":"[0]","location_rts":"[2389]","trial_type":"fractal-mutation","trial_index":58,"time_elapsed":1013614,"internal_node_id":"0.0-5.0-4.0"},{"group":"hexagon_tri","fractal_assignment":["../images/ylw_slt.png","../images/blu_wht.png","../images/cyn_red.png","../images/org_blu.png","../images/gry_blk.png","../images/pnk_blu.png"],"mutagen_generator_assignment":[1,0],"goal":2,"start":4,"action_noise":0,"location_history":"[4,0,1,3,2]","action_history":"[0,1,0,0]","mutagen_history":"[1,0,1,1]","location_rts":"[1513,627,353,347]","trial_type":"fractal-mutation","trial_index":59,"time_elapsed":1024615,"internal_node_id":"0.0-5.0-5.0"},{"group":"hexagon_tri","fractal_assignment":["../images/ylw_slt.png","../images/blu_wht.png","../images/cyn_red.png","../images/org_blu.png","../images/gry_blk.png","../images/pnk_blu.png"],"mutagen_generator_assignment":[1,0],"goal":1,"start":2,"action_noise":0,"location_history":"[2,3,4,2,1]","action_history":"[1,1,1,0]","mutagen_history":"[0,0,0,1]","location_rts":"[2351,524,975,606]","trial_type":"fractal-mutation","trial_index":60,"time_elapsed":1037232,"internal_node_id":"0.0-5.0-6.0"},{"group":"hexagon_tri","fractal_assignment":["../images/ylw_slt.png","../images/blu_wht.png","../images/cyn_red.png","../images/org_blu.png","../images/gry_blk.png","../images/pnk_blu.png"],"mutagen_generator_assignment":[1,0],"goal":5,"start":1,"action_noise":0,"location_history":"[1,3,4,0,1,3,2,1,3,2,3,2,1,5]","action_history":"[0,1,0,1,0,0,0,0,0,1,0,0,1]","mutagen_history":"[1,0,1,0,1,1,1,1,1,0,1,1,0]","location_rts":"[590,380,220,1089,441,110,13,814,482,276,191,222,263]","trial_type":"fractal-mutation","trial_index":61,"time_elapsed":1059824,"internal_node_id":"0.0-5.0-7.0"},{"group":"hexagon_tri","fractal_assignment":["../images/ylw_slt.png","../images/blu_wht.png","../images/cyn_red.png","../images/org_blu.png","../images/gry_blk.png","../images/pnk_blu.png"],"mutagen_generator_assignment":[1,0],"goal":4,"start":5,"action_noise":0,"location_history":"[5,0,5,0,1,5,0,5,0,1,3,2,3,2,3,2,1,5,4]","action_history":"[1,0,1,1,1,1,0,1,1,0,0,1,0,1,0,0,1,0]","mutagen_history":"[0,1,0,0,0,0,1,0,0,1,1,0,1,0,1,1,0,1]","location_rts":"[2719,739,426,274,472,1596,288,644,238,279,398,311,511,317,144,460,744,516]","trial_type":"fractal-mutation","trial_index":62,"time_elapsed":1093499,"internal_node_id":"0.0-5.0-8.0"},{"group":"hexagon_tri","fractal_assignment":["../images/ylw_slt.png","../images/blu_wht.png","../images/cyn_red.png","../images/org_blu.png","../images/gry_blk.png","../images/pnk_blu.png"],"mutagen_generator_assignment":[1,0],"goal":2,"start":4,"action_noise":0,"location_history":"[4,0,1,3,2]","action_history":"[0,1,0,0]","mutagen_history":"[1,0,1,1]","location_rts":"[1761,541,380,233]","trial_type":"fractal-mutation","trial_index":63,"time_elapsed":1104556,"internal_node_id":"0.0-5.0-9.0"},{"group":"hexagon_tri","fractal_assignment":["../images/ylw_slt.png","../images/blu_wht.png","../images/cyn_red.png","../images/org_blu.png","../images/gry_blk.png","../images/pnk_blu.png"],"mutagen_generator_assignment":[1,0],"goal":0,"start":2,"action_noise":0,"location_history":"[2,3,2,1,5,0]","action_history":"[1,0,0,1,1]","mutagen_history":"[0,1,1,0,0]","location_rts":"[1283,685,227,252,735]","trial_type":"fractal-mutation","trial_index":64,"time_elapsed":1116907,"internal_node_id":"0.0-5.0-10.0"},{"group":"hexagon_tri","fractal_assignment":["../images/ylw_slt.png","../images/blu_wht.png","../images/cyn_red.png","../images/org_blu.png","../images/gry_blk.png","../images/pnk_blu.png"],"mutagen_generator_assignment":[1,0],"goal":1,"start":0,"action_noise":0,"location_history":"[0,1]","action_history":"[1]","mutagen_history":"[0]","location_rts":"[1467]","trial_type":"fractal-mutation","trial_index":65,"time_elapsed":1123406,"internal_node_id":"0.0-5.0-11.0"},{"group":"hexagon_tri","fractal_assignment":["../images/ylw_slt.png","../images/blu_wht.png","../images/cyn_red.png","../images/org_blu.png","../images/gry_blk.png","../images/pnk_blu.png"],"mutagen_generator_assignment":[1,0],"goal":3,"start":1,"action_noise":0,"location_history":"[1,3]","action_history":"[0]","mutagen_history":"[1]","location_rts":"[1324]","trial_type":"fractal-mutation","trial_index":66,"time_elapsed":1129771,"internal_node_id":"0.0-5.0-12.0"},{"group":"hexagon_tri","fractal_assignment":["../images/ylw_slt.png","../images/blu_wht.png","../images/cyn_red.png","../images/org_blu.png","../images/gry_blk.png","../images/pnk_blu.png"],"mutagen_generator_assignment":[1,0],"goal":5,"start":3,"action_noise":0,"location_history":"[3,2,3,2,1,5]","action_history":"[0,1,0,0,1]","mutagen_history":"[1,0,1,1,0]","location_rts":"[1265,211,24,80,308]","trial_type":"fractal-mutation","trial_index":67,"time_elapsed":1140842,"internal_node_id":"0.0-5.0-13.0"},{"group":"hexagon_tri","fractal_assignment":["../images/ylw_slt.png","../images/blu_wht.png","../images/cyn_red.png","../images/org_blu.png","../images/gry_blk.png","../images/pnk_blu.png"],"mutagen_generator_assignment":[1,0],"goal":4,"start":5,"action_noise":0,"location_history":"[5,0,5,0,1,3,4]","action_history":"[1,0,1,1,0,1]","mutagen_history":"[0,1,0,0,1,0]","location_rts":"[3719,432,369,300,729,219]","trial_type":"fractal-mutation","trial_index":68,"time_elapsed":1156786,"internal_node_id":"0.0-5.0-14.0"},{"group":"hexagon_tri","fractal_assignment":["../images/ylw_slt.png","../images/blu_wht.png","../images/cyn_red.png","../images/org_blu.png","../images/gry_blk.png","../images/pnk_blu.png"],"mutagen_generator_assignment":[1,0],"goal":0,"start":4,"action_noise":0,"location_history":"[4,2,3,2,1,5,0]","action_history":"[1,1,0,0,1,1]","mutagen_history":"[0,0,1,1,0,0]","location_rts":"[1023,838,70,159,262,301]","trial_type":"fractal-mutation","trial_index":69,"time_elapsed":1170611,"internal_node_id":"0.0-5.0-15.0"},{"group":"hexagon_tri","fractal_assignment":["../images/ylw_slt.png","../images/blu_wht.png","../images/cyn_red.png","../images/org_blu.png","../images/gry_blk.png","../images/pnk_blu.png"],"mutagen_generator_assignment":[1,0],"goal":3,"start":0,"action_noise":0,"location_history":"[0,1,3]","action_history":"[1,0]","mutagen_history":"[0,1]","location_rts":"[1501,938]","trial_type":"fractal-mutation","trial_index":70,"time_elapsed":1179160,"internal_node_id":"0.0-5.0-16.0"},{"group":"hexagon_tri","fractal_assignment":["../images/ylw_slt.png","../images/blu_wht.png","../images/cyn_red.png","../images/org_blu.png","../images/gry_blk.png","../images/pnk_blu.png"],"mutagen_generator_assignment":[1,0],"goal":1,"start":3,"action_noise":0,"location_history":"[3,2,1]","action_history":"[0,0]","mutagen_history":"[1,1]","location_rts":"[1943,423]","trial_type":"fractal-mutation","trial_index":71,"time_elapsed":1187606,"internal_node_id":"0.0-5.0-17.0"},{"group":"hexagon_tri","fractal_assignment":["../images/ylw_slt.png","../images/blu_wht.png","../images/cyn_red.png","../images/org_blu.png","../images/gry_blk.png","../images/pnk_blu.png"],"mutagen_generator_assignment":[1,0],"goal":5,"start":1,"action_noise":0,"location_history":"[1,5]","action_history":"[1]","mutagen_history":"[0]","location_rts":"[1900]","trial_type":"fractal-mutation","trial_index":72,"time_elapsed":1194538,"internal_node_id":"0.0-5.0-18.0"},{"group":"hexagon_tri","fractal_assignment":["../images/ylw_slt.png","../images/blu_wht.png","../images/cyn_red.png","../images/org_blu.png","../images/gry_blk.png","../images/pnk_blu.png"],"mutagen_generator_assignment":[1,0],"goal":2,"start":5,"action_noise":0,"location_history":"[5,0,1,3,2]","action_history":"[1,1,0,0]","mutagen_history":"[0,0,1,1]","location_rts":"[1237,388,545,287]","trial_type":"fractal-mutation","trial_index":73,"time_elapsed":1205138,"internal_node_id":"0.0-5.0-19.0"},{"group":"hexagon_tri","fractal_assignment":["../images/ylw_slt.png","../images/blu_wht.png","../images/cyn_red.png","../images/org_blu.png","../images/gry_blk.png","../images/pnk_blu.png"],"mutagen_generator_assignment":[1,0],"goal":4,"start":2,"action_noise":0,"location_history":"[2,1,5,4]","action_history":"[0,1,0]","mutagen_history":"[1,0,1]","location_rts":"[2982,514,1695]","trial_type":"fractal-mutation","trial_index":74,"time_elapsed":1217432,"internal_node_id":"0.0-5.0-20.0"},{"group":"hexagon_tri","fractal_assignment":["../images/ylw_slt.png","../images/blu_wht.png","../images/cyn_red.png","../images/org_blu.png","../images/gry_blk.png","../images/pnk_blu.png"],"mutagen_generator_assignment":[1,0],"goal":1,"start":4,"action_noise":0,"location_history":"[4,2,1]","action_history":"[1,0]","mutagen_history":"[0,1]","location_rts":"[1890,1075]","trial_type":"fractal-mutation","trial_index":75,"time_elapsed":1226613,"internal_node_id":"0.0-5.0-21.0"},{"group":"hexagon_tri","fractal_assignment":["../images/ylw_slt.png","../images/blu_wht.png","../images/cyn_red.png","../images/org_blu.png","../images/gry_blk.png","../images/pnk_blu.png"],"mutagen_generator_assignment":[1,0],"goal":3,"start":1,"action_noise":0,"location_history":"[1,3]","action_history":"[0]","mutagen_history":"[1]","location_rts":"[2872]","trial_type":"fractal-mutation","trial_index":76,"time_elapsed":1234526,"internal_node_id":"0.0-5.0-22.0"},{"group":"hexagon_tri","fractal_assignment":["../images/ylw_slt.png","../images/blu_wht.png","../images/cyn_red.png","../images/org_blu.png","../images/gry_blk.png","../images/pnk_blu.png"],"mutagen_generator_assignment":[1,0],"goal":2,"start":3,"action_noise":0,"location_history":"[3,2]","action_history":"[0]","mutagen_history":"[1]","location_rts":"[928]","trial_type":"fractal-mutation","trial_index":77,"time_elapsed":1240495,"internal_node_id":"0.0-5.0-23.0"},{"group":"hexagon_tri","fractal_assignment":["../images/ylw_slt.png","../images/blu_wht.png","../images/cyn_red.png","../images/org_blu.png","../images/gry_blk.png","../images/pnk_blu.png"],"mutagen_generator_assignment":[1,0],"goal":0,"start":2,"action_noise":0,"location_history":"[2,1,5,0]","action_history":"[0,1,1]","mutagen_history":"[1,0,0]","location_rts":"[1334,520,459]","trial_type":"fractal-mutation","trial_index":78,"time_elapsed":1249907,"internal_node_id":"0.0-5.0-24.0"},{"group":"hexagon_tri","fractal_assignment":["../images/ylw_slt.png","../images/blu_wht.png","../images/cyn_red.png","../images/org_blu.png","../images/gry_blk.png","../images/pnk_blu.png"],"mutagen_generator_assignment":[1,0],"goal":5,"start":0,"action_noise":0,"location_history":"[0,5]","action_history":"[0]","mutagen_history":"[1]","location_rts":"[820]","trial_type":"fractal-mutation","trial_index":79,"time_elapsed":1255780,"internal_node_id":"0.0-5.0-25.0"},{"group":"hexagon_tri","fractal_assignment":["../images/ylw_slt.png","../images/blu_wht.png","../images/cyn_red.png","../images/org_blu.png","../images/gry_blk.png","../images/pnk_blu.png"],"mutagen_generator_assignment":[1,0],"goal":2,"start":5,"action_noise":0,"location_history":"[5,0,1,3,2]","action_history":"[1,1,0,0]","mutagen_history":"[0,0,1,1]","location_rts":"[1192,430,393,285]","trial_type":"fractal-mutation","trial_index":80,"time_elapsed":1266226,"internal_node_id":"0.0-5.0-26.0"},{"group":"hexagon_tri","fractal_assignment":["../images/ylw_slt.png","../images/blu_wht.png","../images/cyn_red.png","../images/org_blu.png","../images/gry_blk.png","../images/pnk_blu.png"],"mutagen_generator_assignment":[1,0],"goal":3,"start":2,"action_noise":0,"location_history":"[2,3]","action_history":"[1]","mutagen_history":"[0]","location_rts":"[4368]","trial_type":"fractal-mutation","trial_index":81,"time_elapsed":1275629,"internal_node_id":"0.0-5.0-27.0"},{"group":"hexagon_tri","fractal_assignment":["../images/ylw_slt.png","../images/blu_wht.png","../images/cyn_red.png","../images/org_blu.png","../images/gry_blk.png","../images/pnk_blu.png"],"mutagen_generator_assignment":[1,0],"goal":0,"start":3,"action_noise":0,"location_history":"[3,2,1,5,0]","action_history":"[0,0,1,1]","mutagen_history":"[1,1,0,0]","location_rts":"[1874,203,350,676]","trial_type":"fractal-mutation","trial_index":82,"time_elapsed":1286883,"internal_node_id":"0.0-5.0-28.0"},{"group":"hexagon_tri","fractal_assignment":["../images/ylw_slt.png","../images/blu_wht.png","../images/cyn_red.png","../images/org_blu.png","../images/gry_blk.png","../images/pnk_blu.png"],"mutagen_generator_assignment":[1,0],"goal":1,"start":0,"action_noise":0,"location_history":"[0,1]","action_history":"[1]","mutagen_history":"[0]","location_rts":"[1234]","trial_type":"fractal-mutation","trial_index":83,"time_elapsed":1293152,"internal_node_id":"0.0-5.0-29.0"},{"group":"hexagon_tri","fractal_assignment":["../images/ylw_slt.png","../images/blu_wht.png","../images/cyn_red.png","../images/org_blu.png","../images/gry_blk.png","../images/pnk_blu.png"],"mutagen_generator_assignment":[1,0],"goal":4,"start":1,"action_noise":0,"location_history":"[1,3,2,1,5,0,5,0,1,5,0,1,5,4]","action_history":"[0,0,0,1,1,0,1,1,1,1,1,1,0]","mutagen_history":"[1,1,1,0,0,1,0,0,0,0,0,0,1]","location_rts":"[1001,615,646,432,410,166,173,423,352,661,430,773,250]","trial_type":"fractal-mutation","trial_index":84,"time_elapsed":1317618,"internal_node_id":"0.0-5.0-30.0"},{"group":"hexagon_tri","fractal_assignment":["../images/ylw_slt.png","../images/blu_wht.png","../images/cyn_red.png","../images/org_blu.png","../images/gry_blk.png","../images/pnk_blu.png"],"mutagen_generator_assignment":[1,0],"goal":5,"start":4,"action_noise":0,"location_history":"[4,2,3,2,1,5]","action_history":"[1,1,0,0,1]","mutagen_history":"[0,0,1,1,0]","location_rts":"[29241,583,3888,331,1094]","trial_type":"fractal-mutation","trial_index":85,"time_elapsed":1362909,"internal_node_id":"0.0-5.0-31.0"},{"group":"hexagon_tri","fractal_assignment":["../images/ylw_slt.png","../images/blu_wht.png","../images/cyn_red.png","../images/org_blu.png","../images/gry_blk.png","../images/pnk_blu.png"],"mutagen_generator_assignment":[1,0],"goal":0,"start":5,"action_noise":0,"location_history":"[5,0]","action_history":"[1]","mutagen_history":"[0]","location_rts":"[3176]","trial_type":"fractal-mutation","trial_index":86,"time_elapsed":1371125,"internal_node_id":"0.0-5.0-32.0"},{"group":"hexagon_tri","fractal_assignment":["../images/ylw_slt.png","../images/blu_wht.png","../images/cyn_red.png","../images/org_blu.png","../images/gry_blk.png","../images/pnk_blu.png"],"mutagen_generator_assignment":[1,0],"goal":3,"start":0,"action_noise":0,"location_history":"[0,1,3]","action_history":"[1,0]","mutagen_history":"[0,1]","location_rts":"[1456,185]","trial_type":"fractal-mutation","trial_index":87,"time_elapsed":1378832,"internal_node_id":"0.0-5.0-33.0"},{"group":"hexagon_tri","fractal_assignment":["../images/ylw_slt.png","../images/blu_wht.png","../images/cyn_red.png","../images/org_blu.png","../images/gry_blk.png","../images/pnk_blu.png"],"mutagen_generator_assignment":[1,0],"goal":1,"start":3,"action_noise":0,"location_history":"[3,2,1]","action_history":"[0,0]","mutagen_history":"[1,1]","location_rts":"[1830,226]","trial_type":"fractal-mutation","trial_index":88,"time_elapsed":1386968,"internal_node_id":"0.0-5.0-34.0"},{"group":"hexagon_tri","fractal_assignment":["../images/ylw_slt.png","../images/blu_wht.png","../images/cyn_red.png","../images/org_blu.png","../images/gry_blk.png","../images/pnk_blu.png"],"mutagen_generator_assignment":[1,0],"goal":2,"start":1,"action_noise":0,"location_history":"[1,3,2]","action_history":"[0,0]","mutagen_history":"[1,1]","location_rts":"[10598,351]","trial_type":"fractal-mutation","trial_index":89,"time_elapsed":1403997,"internal_node_id":"0.0-5.0-35.0"},{"group":"hexagon_tri","fractal_assignment":["../images/ylw_slt.png","../images/blu_wht.png","../images/cyn_red.png","../images/org_blu.png","../images/gry_blk.png","../images/pnk_blu.png"],"mutagen_generator_assignment":[1,0],"goal":4,"start":2,"action_noise":0,"location_history":"[2,1,5,4]","action_history":"[0,1,0]","mutagen_history":"[1,0,1]","location_rts":"[4849,1202,412]","trial_type":"fractal-mutation","trial_index":90,"time_elapsed":1417569,"internal_node_id":"0.0-5.0-36.0"},{"group":"hexagon_tri","fractal_assignment":["../images/ylw_slt.png","../images/blu_wht.png","../images/cyn_red.png","../images/org_blu.png","../images/gry_blk.png","../images/pnk_blu.png"],"mutagen_generator_assignment":[1,0],"goal":5,"start":4,"action_noise":0,"location_history":"[4,2,1,3,2,1,5]","action_history":"[1,0,0,0,0,1]","mutagen_history":"[0,1,1,1,1,0]","location_rts":"[3239,901,555,173,484,195]","trial_type":"fractal-mutation","trial_index":91,"time_elapsed":1433349,"internal_node_id":"0.0-5.0-37.0"},{"group":"hexagon_tri","fractal_assignment":["../images/ylw_slt.png","../images/blu_wht.png","../images/cyn_red.png","../images/org_blu.png","../images/gry_blk.png","../images/pnk_blu.png"],"mutagen_generator_assignment":[1,0],"goal":1,"start":5,"action_noise":0,"location_history":"[5,0,1]","action_history":"[1,1]","mutagen_history":"[0,0]","location_rts":"[2088,510]","trial_type":"fractal-mutation","trial_index":92,"time_elapsed":1442003,"internal_node_id":"0.0-5.0-38.0"},{"group":"hexagon_tri","fractal_assignment":["../images/ylw_slt.png","../images/blu_wht.png","../images/cyn_red.png","../images/org_blu.png","../images/gry_blk.png","../images/pnk_blu.png"],"mutagen_generator_assignment":[1,0],"goal":4,"start":1,"action_noise":0,"location_history":"[1,5,4]","action_history":"[1,0]","mutagen_history":"[0,1]","location_rts":"[4341,252]","trial_type":"fractal-mutation","trial_index":93,"time_elapsed":1452670,"internal_node_id":"0.0-5.0-39.0"},{"group":"hexagon_tri","fractal_assignment":["../images/ylw_slt.png","../images/blu_wht.png","../images/cyn_red.png","../images/org_blu.png","../images/gry_blk.png","../images/pnk_blu.png"],"mutagen_generator_assignment":[1,0],"goal":3,"start":4,"action_noise":0,"location_history":"[4,2,3]","action_history":"[1,1]","mutagen_history":"[0,0]","location_rts":"[1838,233]","trial_type":"fractal-mutation","trial_index":94,"time_elapsed":1460808,"internal_node_id":"0.0-5.0-40.0"},{"group":"hexagon_tri","fractal_assignment":["../images/ylw_slt.png","../images/blu_wht.png","../images/cyn_red.png","../images/org_blu.png","../images/gry_blk.png","../images/pnk_blu.png"],"mutagen_generator_assignment":[1,0],"goal":2,"start":3,"action_noise":0,"location_history":"[3,2]","action_history":"[0]","mutagen_history":"[1]","location_rts":"[1150]","trial_type":"fractal-mutation","trial_index":95,"time_elapsed":1467011,"internal_node_id":"0.0-5.0-41.0"},{"group":"hexagon_tri","fractal_assignment":["../images/ylw_slt.png","../images/blu_wht.png","../images/cyn_red.png","../images/org_blu.png","../images/gry_blk.png","../images/pnk_blu.png"],"mutagen_generator_assignment":[1,0],"goal":0,"start":2,"action_noise":0,"location_history":"[2,1,5,0]","action_history":"[0,1,1]","mutagen_history":"[1,0,0]","location_rts":"[1748,355,207]","trial_type":"fractal-mutation","trial_index":96,"time_elapsed":1476423,"internal_node_id":"0.0-5.0-42.0"},{"group":"hexagon_tri","fractal_assignment":["../images/ylw_slt.png","../images/blu_wht.png","../images/cyn_red.png","../images/org_blu.png","../images/gry_blk.png","../images/pnk_blu.png"],"mutagen_generator_assignment":[1,0],"goal":5,"start":0,"action_noise":0,"location_history":"[0,1,5]","action_history":"[1,1]","mutagen_history":"[0,0]","location_rts":"[1166,218]","trial_type":"fractal-mutation","trial_index":97,"time_elapsed":1483865,"internal_node_id":"0.0-5.0-43.0"},{"group":"hexagon_tri","fractal_assignment":["../images/ylw_slt.png","../images/blu_wht.png","../images/cyn_red.png","../images/org_blu.png","../images/gry_blk.png","../images/pnk_blu.png"],"mutagen_generator_assignment":[1,0],"goal":0,"start":5,"action_noise":0,"location_history":"[5,0]","action_history":"[1]","mutagen_history":"[0]","location_rts":"[928]","trial_type":"fractal-mutation","trial_index":98,"time_elapsed":1489827,"internal_node_id":"0.0-5.0-44.0"},{"group":"hexagon_tri","fractal_assignment":["../images/ylw_slt.png","../images/blu_wht.png","../images/cyn_red.png","../images/org_blu.png","../images/gry_blk.png","../images/pnk_blu.png"],"mutagen_generator_assignment":[1,0],"goal":2,"start":0,"action_noise":0,"location_history":"[0,1,3,2]","action_history":"[1,0,0]","mutagen_history":"[0,1,1]","location_rts":"[1411,592,220]","trial_type":"fractal-mutation","trial_index":99,"time_elapsed":1499171,"internal_node_id":"0.0-5.0-45.0"},{"group":"hexagon_tri","fractal_assignment":["../images/ylw_slt.png","../images/blu_wht.png","../images/cyn_red.png","../images/org_blu.png","../images/gry_blk.png","../images/pnk_blu.png"],"mutagen_generator_assignment":[1,0],"goal":4,"start":2,"action_noise":0,"location_history":"[2,1,5,4]","action_history":"[0,1,0]","mutagen_history":"[1,0,1]","location_rts":"[1590,1064,232]","trial_type":"fractal-mutation","trial_index":100,"time_elapsed":1509174,"internal_node_id":"0.0-5.0-46.0"},{"group":"hexagon_tri","fractal_assignment":["../images/ylw_slt.png","../images/blu_wht.png","../images/cyn_red.png","../images/org_blu.png","../images/gry_blk.png","../images/pnk_blu.png"],"mutagen_generator_assignment":[1,0],"goal":1,"start":4,"action_noise":0,"location_history":"[4,2,3,2,1]","action_history":"[1,1,0,0]","mutagen_history":"[0,0,1,1]","location_rts":"[4305,328,312,669]","trial_type":"fractal-mutation","trial_index":101,"time_elapsed":1522912,"internal_node_id":"0.0-5.0-47.0"},{"group":"hexagon_tri","fractal_assignment":["../images/ylw_slt.png","../images/blu_wht.png","../images/cyn_red.png","../images/org_blu.png","../images/gry_blk.png","../images/pnk_blu.png"],"mutagen_generator_assignment":[1,0],"goal":5,"start":1,"action_noise":0,"location_history":"[1,5]","action_history":"[1]","mutagen_history":"[0]","location_rts":"[2400]","trial_type":"fractal-mutation","trial_index":102,"time_elapsed":1530349,"internal_node_id":"0.0-5.0-48.0"},{"group":"hexagon_tri","fractal_assignment":["../images/ylw_slt.png","../images/blu_wht.png","../images/cyn_red.png","../images/org_blu.png","../images/gry_blk.png","../images/pnk_blu.png"],"mutagen_generator_assignment":[1,0],"goal":3,"start":5,"action_noise":0,"location_history":"[5,0,1,3]","action_history":"[1,1,0]","mutagen_history":"[0,0,1]","location_rts":"[1554,191,147]","trial_type":"fractal-mutation","trial_index":103,"time_elapsed":1539332,"internal_node_id":"0.0-5.0-49.0"},{"view_history":"[{\"page_index\":0,\"viewing_time\":8818}]","rt":8819,"trial_type":"instructions","trial_index":104,"time_elapsed":1549152,"internal_node_id":"0.0-6.0"},{"rt":10999,"responses":"{\"Q0\":\"I do not have any comments on this HIT.\"}","trial_type":"survey-text","trial_index":105,"time_elapsed":1561166,"internal_node_id":"0.0-7.0"}]