[{"view_history":"[{\"page_index\":0,\"viewing_time\":114183},{\"page_index\":1,\"viewing_time\":1672}]","rt":115855,"trial_type":"instructions","trial_index":0,"time_elapsed":115855,"internal_node_id":"0.0-0.0"},{"view_history":"[{\"page_index\":0,\"viewing_time\":1071},{\"page_index\":1,\"viewing_time\":1063}]","rt":2135,"trial_type":"instructions","trial_index":1,"time_elapsed":118991,"internal_node_id":"0.0-1.0"},{"group":"hexagon_tri","room_assignment":["yellow","green","blue","grey","red","purple"],"door_color_assignment":["black","white"],"door_generator_assignment":[1,0],"goal":3,"start":5,"action_noise":0,"location_history":"[5,4,2,3]","action_history":"[0,1,1]","door_history":"[1,0,0]","location_rts":"[749,115,1123]","trial_type":"two-door-navigation","trial_index":2,"time_elapsed":128048,"internal_node_id":"0.0-2.0-0.0"},{"group":"hexagon_tri","room_assignment":["yellow","green","blue","grey","red","purple"],"door_color_assignment":["black","white"],"door_generator_assignment":[1,0],"goal":1,"start":3,"action_noise":0,"location_history":"[3,4,0,1]","action_history":"[1,0,1]","door_history":"[0,1,0]","location_rts":"[341,790,214]","trial_type":"two-door-navigation","trial_index":3,"time_elapsed":136452,"internal_node_id":"0.0-2.0-1.0"},{"group":"hexagon_tri","room_assignment":["yellow","green","blue","grey","red","purple"],"door_color_assignment":["black","white"],"door_generator_assignment":[1,0],"goal":0,"start":1,"action_noise":0,"location_history":"[1,5,0]","action_history":"[1,1]","door_history":"[0,0]","location_rts":"[490,3933]","trial_type":"two-door-navigation","trial_index":4,"time_elapsed":146914,"internal_node_id":"0.0-2.0-2.0"},{"group":"hexagon_tri","room_assignment":["yellow","green","blue","grey","red","purple"],"door_color_assignment":["black","white"],"door_generator_assignment":[1,0],"goal":3,"start":0,"action_noise":0,"location_history":"[0,5,0,5,0,5,0,5,4,2,3]","action_history":"[0,1,0,1,0,1,0,0,1,1]","door_history":"[1,0,1,0,1,0,1,1,0,0]","location_rts":"[1043,3,540,213,660,668,708,83,3,80]","trial_type":"two-door-navigation","trial_index":5,"time_elapsed":165126,"internal_node_id":"0.0-2.0-3.0"},{"group":"hexagon_tri","room_assignment":["yellow","green","blue","grey","red","purple"],"door_color_assignment":["black","white"],"door_generator_assignment":[1,0],"goal":4,"start":3,"action_noise":0,"location_history":"[3,2,1,5,0,5,0,5,0,5,0,5,0,5,0,5,4]","action_history":"[0,0,1,1,0,1,0,1,0,1,0,1,0,1,0,0]","door_history":"[1,1,0,0,1,0,1,0,1,0,1,0,1,0,1,1]","location_rts":"[768,29,604,708,1721,2387,78,906,778,844,2619,2035,598,836,691,581]","trial_type":"two-door-navigation","trial_index":6,"time_elapsed":201636,"internal_node_id":"0.0-2.0-4.0"},{"group":"hexagon_tri","room_assignment":["yellow","green","blue","grey","red","purple"],"door_color_assignment":["black","white"],"door_generator_assignment":[1,0],"goal":2,"start":4,"action_noise":0,"location_history":"[4,0,1,3,4,2]","action_history":"[0,1,0,1,1]","door_history":"[1,0,1,0,0]","location_rts":"[169,28,2539,1036,708]","trial_type":"two-door-navigation","trial_index":7,"time_elapsed":215220,"internal_node_id":"0.0-2.0-5.0"},{"group":"hexagon_tri","room_assignment":["yellow","green","blue","grey","red","purple"],"door_color_assignment":["black","white"],"door_generator_assignment":[1,0],"goal":1,"start":2,"action_noise":0,"location_history":"[2,1]","action_history":"[0]","door_history":"[1]","location_rts":"[266083]","trial_type":"two-door-navigation","trial_index":8,"time_elapsed":486326,"internal_node_id":"0.0-2.0-6.0"},{"group":"hexagon_tri","room_assignment":["yellow","green","blue","grey","red","purple"],"door_color_assignment":["black","white"],"door_generator_assignment":[1,0],"goal":5,"start":1,"action_noise":0,"location_history":"[1,3,4,2,1,3,4,0,1,5]","action_history":"[0,1,1,0,0,1,0,1,1]","door_history":"[1,0,0,1,1,0,1,0,0]","location_rts":"[71,147,1051,14,2426,917,906,1141,84]","trial_type":"two-door-navigation","trial_index":9,"time_elapsed":506270,"internal_node_id":"0.0-2.0-7.0"},{"group":"hexagon_tri","room_assignment":["yellow","green","blue","grey","red","purple"],"door_color_assignment":["black","white"],"door_generator_assignment":[1,0],"goal":4,"start":5,"action_noise":0,"location_history":"[5,4]","action_history":"[0]","door_history":"[1]","location_rts":"[615]","trial_type":"two-door-navigation","trial_index":10,"time_elapsed":511909,"internal_node_id":"0.0-2.0-8.0"},{"group":"hexagon_tri","room_assignment":["yellow","green","blue","grey","red","purple"],"door_color_assignment":["black","white"],"door_generator_assignment":[1,0],"goal":2,"start":4,"action_noise":0,"location_history":"[4,2]","action_history":"[1]","door_history":"[0]","location_rts":"[57263]","trial_type":"two-door-navigation","trial_index":11,"time_elapsed":574798,"internal_node_id":"0.0-2.0-9.0"},{"group":"hexagon_tri","room_assignment":["yellow","green","blue","grey","red","purple"],"door_color_assignment":["black","white"],"door_generator_assignment":[1,0],"goal":0,"start":2,"action_noise":0,"location_history":"[2,3,4,0]","action_history":"[1,1,0]","door_history":"[0,0,1]","location_rts":"[183,21,412]","trial_type":"two-door-navigation","trial_index":12,"time_elapsed":582478,"internal_node_id":"0.0-2.0-10.0"},{"group":"hexagon_tri","room_assignment":["yellow","green","blue","grey","red","purple"],"door_color_assignment":["black","white"],"door_generator_assignment":[1,0],"goal":1,"start":0,"action_noise":0,"location_history":"[0,5,4,2,3,4,2,3,4,2,1]","action_history":"[0,0,1,1,1,1,1,1,1,0]","door_history":"[1,1,0,0,0,0,0,0,0,1]","location_rts":"[106,3739,44,467,140,3,123,20,43,197]","trial_type":"two-door-navigation","trial_index":13,"time_elapsed":601565,"internal_node_id":"0.0-2.0-11.0"},{"group":"hexagon_tri","room_assignment":["yellow","green","blue","grey","red","purple"],"door_color_assignment":["black","white"],"door_generator_assignment":[1,0],"goal":3,"start":1,"action_noise":0,"location_history":"[1,5,0,1,5,4,0,5,4,2,1,3]","action_history":"[1,1,1,1,0,0,0,0,1,0,0]","door_history":"[0,0,0,0,1,1,1,1,0,1,1]","location_rts":"[1258,76,84,211,156,13,53,36,140,1907,44]","trial_type":"two-door-navigation","trial_index":14,"time_elapsed":620766,"internal_node_id":"0.0-2.0-12.0"},{"group":"hexagon_tri","room_assignment":["yellow","green","blue","grey","red","purple"],"door_color_assignment":["black","white"],"door_generator_assignment":[1,0],"goal":5,"start":3,"action_noise":0,"location_history":"[3,4,2,3,4,2,3,4,2,1,3,2,1,3,4,2,3,2,1,3,4,2,3,2,1,3,4,2,1,3,2,1,3,2,3,4,2,3,4,2,3,4,2,3,4,2,3,4,2,1,3,4,0,5]","action_history":"[1,1,1,1,1,1,1,1,0,0,0,0,0,1,1,1,0,0,0,1,1,1,0,0,0,1,1,0,0,0,0,0,0,1,1,1,1,1,1,1,1,1,1,1,1,1,1,1,0,0,1,0,0]","door_history":"[0,0,0,0,0,0,0,0,1,1,1,1,1,0,0,0,1,1,1,0,0,0,1,1,1,0,0,1,1,1,1,1,1,0,0,0,0,0,0,0,0,0,0,0,0,0,0,0,1,1,0,1,1]","location_rts":"[1167,196,476,60,75,201,2683,107,197,174,702,155,165,51,93,122,579,140,219,165,83,147,467,70,45,1603,1021,451,68,228,44,91,92,922,467,42,99,20,403,45,315,43,2,37,140,924,140,133,299,123,602,2620,4]","trial_type":"two-door-navigation","trial_index":15,"time_elapsed":698366,"internal_node_id":"0.0-2.0-13.0"},{"group":"hexagon_tri","room_assignment":["yellow","green","blue","grey","red","purple"],"door_color_assignment":["black","white"],"door_generator_assignment":[1,0],"goal":4,"start":5,"action_noise":0,"location_history":"[5,0,1,5,4]","action_history":"[1,1,1,0]","door_history":"[0,0,0,1]","location_rts":"[457,37,133,612]","trial_type":"two-door-navigation","trial_index":16,"time_elapsed":707685,"internal_node_id":"0.0-2.0-14.0"},{"group":"hexagon_tri","room_assignment":["yellow","green","blue","grey","red","purple"],"door_color_assignment":["black","white"],"door_generator_assignment":[1,0],"goal":0,"start":4,"action_noise":0,"location_history":"[4,0]","action_history":"[0]","door_history":"[1]","location_rts":"[680]","trial_type":"two-door-navigation","trial_index":17,"time_elapsed":713389,"internal_node_id":"0.0-2.0-15.0"},{"group":"hexagon_tri","room_assignment":["yellow","green","blue","grey","red","purple"],"door_color_assignment":["black","white"],"door_generator_assignment":[1,0],"goal":3,"start":0,"action_noise":0,"location_history":"[0,5,0,5,0,1,5,4,2,1,5,4,2,1,5,0,5,4,2,1,5,0,1,3]","action_history":"[0,1,0,1,1,1,0,1,0,1,0,1,0,1,1,0,0,1,0,1,1,1,0]","door_history":"[1,0,1,0,0,0,1,0,1,0,1,0,1,0,0,1,1,0,1,0,0,0,1]","location_rts":"[129,859,76,596,84,76,770,21,1219,166,782,100,755,180,10,204,109,8,116,68,173,188,107]","trial_type":"two-door-navigation","trial_index":18,"time_elapsed":747646,"internal_node_id":"0.0-2.0-16.0"},{"group":"hexagon_tri","room_assignment":["yellow","green","blue","grey","red","purple"],"door_color_assignment":["black","white"],"door_generator_assignment":[1,0],"goal":1,"start":3,"action_noise":0,"location_history":"[3,2,3,4,2,3,4,2,1]","action_history":"[0,1,1,1,1,1,1,0]","door_history":"[1,0,0,0,0,0,0,1]","location_rts":"[24,170,37,115,164,107,226,20]","trial_type":"two-door-navigation","trial_index":19,"time_elapsed":760677,"internal_node_id":"0.0-2.0-17.0"},{"group":"hexagon_tri","room_assignment":["yellow","green","blue","grey","red","purple"],"door_color_assignment":["black","white"],"door_generator_assignment":[1,0],"goal":5,"start":1,"action_noise":0,"location_history":"[1,3,4,2,3,4,2,3,4,2,1,3,4,2,1,5]","action_history":"[0,1,1,1,1,1,1,1,1,0,0,1,1,0,1]","door_history":"[1,0,0,0,0,0,0,0,0,1,1,0,0,1,0]","location_rts":"[128,293,67,51,77,444,11,147,443,709,139,26,235,219,180]","trial_type":"two-door-navigation","trial_index":20,"time_elapsed":783158,"internal_node_id":"0.0-2.0-18.0"},{"group":"hexagon_tri","room_assignment":["yellow","green","blue","grey","red","purple"],"door_color_assignment":["black","white"],"door_generator_assignment":[1,0],"goal":2,"start":5,"action_noise":0,"location_history":"[5,0,1,5,4,0,5,4,0,5,4,2]","action_history":"[1,1,1,0,0,0,0,0,0,0,1]","door_history":"[0,0,0,1,1,1,1,1,1,1,0]","location_rts":"[239,190,140,2372,27,100,164,131,107,116,3341]","trial_type":"two-door-navigation","trial_index":21,"time_elapsed":805309,"internal_node_id":"0.0-2.0-19.0"},{"group":"hexagon_tri","room_assignment":["yellow","green","blue","grey","red","purple"],"door_color_assignment":["black","white"],"door_generator_assignment":[1,0],"goal":4,"start":2,"action_noise":0,"location_history":"[2,3,4]","action_history":"[1,1]","door_history":"[0,0]","location_rts":"[240,622]","trial_type":"two-door-navigation","trial_index":22,"time_elapsed":812213,"internal_node_id":"0.0-2.0-20.0"},{"group":"hexagon_tri","room_assignment":["yellow","green","blue","grey","red","purple"],"door_color_assignment":["black","white"],"door_generator_assignment":[1,0],"goal":1,"start":4,"action_noise":0,"location_history":"[4,0,1]","action_history":"[0,1]","door_history":"[1,0]","location_rts":"[1594,1795]","trial_type":"two-door-navigation","trial_index":23,"time_elapsed":821643,"internal_node_id":"0.0-2.0-21.0"},{"group":"hexagon_tri","room_assignment":["yellow","green","blue","grey","red","purple"],"door_color_assignment":["black","white"],"door_generator_assignment":[1,0],"goal":3,"start":1,"action_noise":0,"location_history":"[1,3]","action_history":"[0]","door_history":"[1]","location_rts":"[2132]","trial_type":"two-door-navigation","trial_index":24,"time_elapsed":828794,"internal_node_id":"0.0-2.0-22.0"},{"group":"hexagon_tri","room_assignment":["yellow","green","blue","grey","red","purple"],"door_color_assignment":["black","white"],"door_generator_assignment":[1,0],"goal":2,"start":3,"action_noise":0,"location_history":"[3,2]","action_history":"[0]","door_history":"[1]","location_rts":"[972]","trial_type":"two-door-navigation","trial_index":25,"time_elapsed":835514,"internal_node_id":"0.0-2.0-23.0"},{"group":"hexagon_tri","room_assignment":["yellow","green","blue","grey","red","purple"],"door_color_assignment":["black","white"],"door_generator_assignment":[1,0],"goal":0,"start":2,"action_noise":0,"location_history":"[2,1,5,4,2,1,3,2,3,4,0]","action_history":"[0,1,0,1,0,0,0,1,1,0]","door_history":"[1,0,1,0,1,1,1,0,0,1]","location_rts":"[11702,662,726,151,62,1283,915,54,1685,3533]","trial_type":"two-door-navigation","trial_index":26,"time_elapsed":871479,"internal_node_id":"0.0-2.0-24.0"},{"group":"hexagon_tri","room_assignment":["yellow","green","blue","grey","red","purple"],"door_color_assignment":["black","white"],"door_generator_assignment":[1,0],"goal":5,"start":0,"action_noise":0,"location_history":"[0,5]","action_history":"[0]","door_history":"[1]","location_rts":"[230]","trial_type":"two-door-navigation","trial_index":27,"time_elapsed":876734,"internal_node_id":"0.0-2.0-25.0"},{"group":"hexagon_tri","room_assignment":["yellow","green","blue","grey","red","purple"],"door_color_assignment":["black","white"],"door_generator_assignment":[1,0],"goal":2,"start":5,"action_noise":0,"location_history":"[5,0,1,3,2]","action_history":"[1,1,0,0]","door_history":"[0,0,1,1]","location_rts":"[135,131,749,789]","trial_type":"two-door-navigation","trial_index":28,"time_elapsed":886623,"internal_node_id":"0.0-2.0-26.0"},{"group":"hexagon_tri","room_assignment":["yellow","green","blue","grey","red","purple"],"door_color_assignment":["black","white"],"door_generator_assignment":[1,0],"goal":3,"start":2,"action_noise":0,"location_history":"[2,1,3]","action_history":"[0,0]","door_history":"[1,1]","location_rts":"[222,164]","trial_type":"two-door-navigation","trial_index":29,"time_elapsed":893052,"internal_node_id":"0.0-2.0-27.0"},{"group":"hexagon_tri","room_assignment":["yellow","green","blue","grey","red","purple"],"door_color_assignment":["black","white"],"door_generator_assignment":[1,0],"goal":0,"start":3,"action_noise":0,"location_history":"[3,4,0]","action_history":"[1,0]","door_history":"[0,1]","location_rts":"[65,2060]","trial_type":"two-door-navigation","trial_index":30,"time_elapsed":901223,"internal_node_id":"0.0-2.0-28.0"},{"group":"hexagon_tri","room_assignment":["yellow","green","blue","grey","red","purple"],"door_color_assignment":["black","white"],"door_generator_assignment":[1,0],"goal":1,"start":0,"action_noise":0,"location_history":"[0,1]","action_history":"[1]","door_history":"[0]","location_rts":"[10]","trial_type":"two-door-navigation","trial_index":31,"time_elapsed":906257,"internal_node_id":"0.0-2.0-29.0"},{"group":"hexagon_tri","room_assignment":["yellow","green","blue","grey","red","purple"],"door_color_assignment":["black","white"],"door_generator_assignment":[1,0],"goal":4,"start":1,"action_noise":0,"location_history":"[1,3,4]","action_history":"[0,1]","door_history":"[1,0]","location_rts":"[2268,204]","trial_type":"two-door-navigation","trial_index":32,"time_elapsed":914774,"internal_node_id":"0.0-2.0-30.0"},{"group":"hexagon_tri","room_assignment":["yellow","green","blue","grey","red","purple"],"door_color_assignment":["black","white"],"door_generator_assignment":[1,0],"goal":5,"start":4,"action_noise":0,"location_history":"[4,2,1,5]","action_history":"[1,0,1]","door_history":"[0,1,0]","location_rts":"[720,355,678]","trial_type":"two-door-navigation","trial_index":33,"time_elapsed":923589,"internal_node_id":"0.0-2.0-31.0"},{"group":"hexagon_tri","room_assignment":["yellow","green","blue","grey","red","purple"],"door_color_assignment":["black","white"],"door_generator_assignment":[1,0],"goal":0,"start":5,"action_noise":0,"location_history":"[5,0]","action_history":"[1]","door_history":"[0]","location_rts":"[10]","trial_type":"two-door-navigation","trial_index":34,"time_elapsed":928622,"internal_node_id":"0.0-2.0-32.0"},{"group":"hexagon_tri","room_assignment":["yellow","green","blue","grey","red","purple"],"door_color_assignment":["black","white"],"door_generator_assignment":[1,0],"goal":3,"start":0,"action_noise":0,"location_history":"[0,5,4,0,1,5,4,0,5,0,5,4,2,3]","action_history":"[0,0,0,1,1,0,0,0,1,0,0,1,1]","door_history":"[1,1,1,0,0,1,1,1,0,1,1,0,0]","location_rts":"[74,209,82,1131,2052,140,151,132,124,2539,876,180,2540]","trial_type":"two-door-navigation","trial_index":35,"time_elapsed":956116,"internal_node_id":"0.0-2.0-33.0"},{"group":"hexagon_tri","room_assignment":["yellow","green","blue","grey","red","purple"],"door_color_assignment":["black","white"],"door_generator_assignment":[1,0],"goal":1,"start":3,"action_noise":0,"location_history":"[3,2,1]","action_history":"[0,0]","door_history":"[1,1]","location_rts":"[233,107]","trial_type":"two-door-navigation","trial_index":36,"time_elapsed":962501,"internal_node_id":"0.0-2.0-34.0"},{"group":"hexagon_tri","room_assignment":["yellow","green","blue","grey","red","purple"],"door_color_assignment":["black","white"],"door_generator_assignment":[1,0],"goal":2,"start":1,"action_noise":0,"location_history":"[1,3,4,2]","action_history":"[0,1,1]","door_history":"[1,0,0]","location_rts":"[128,2700,99]","trial_type":"two-door-navigation","trial_index":37,"time_elapsed":972493,"internal_node_id":"0.0-2.0-35.0"},{"group":"hexagon_tri","room_assignment":["yellow","green","blue","grey","red","purple"],"door_color_assignment":["black","white"],"door_generator_assignment":[1,0],"goal":4,"start":2,"action_noise":0,"location_history":"[2,1,3,4]","action_history":"[0,0,1]","door_history":"[1,1,0]","location_rts":"[2535,2494,349]","trial_type":"two-door-navigation","trial_index":38,"time_elapsed":984932,"internal_node_id":"0.0-2.0-36.0"},{"group":"hexagon_tri","room_assignment":["yellow","green","blue","grey","red","purple"],"door_color_assignment":["black","white"],"door_generator_assignment":[1,0],"goal":5,"start":4,"action_noise":0,"location_history":"[4,2,3,2,3,2,3,2,3,2,3,4,0,5]","action_history":"[1,1,0,1,0,1,0,1,0,1,1,0,0]","door_history":"[0,0,1,0,1,0,1,0,1,0,0,1,1]","location_rts":"[137,147,116,2892,108,808,607,436,396,892,1267,108,570]","trial_type":"two-door-navigation","trial_index":39,"time_elapsed":1010676,"internal_node_id":"0.0-2.0-37.0"},{"group":"hexagon_tri","room_assignment":["yellow","green","blue","grey","red","purple"],"door_color_assignment":["black","white"],"door_generator_assignment":[1,0],"goal":1,"start":5,"action_noise":0,"location_history":"[5,4,2,1]","action_history":"[0,1,0]","door_history":"[1,0,1]","location_rts":"[521,1933,501]","trial_type":"two-door-navigation","trial_index":40,"time_elapsed":1020693,"internal_node_id":"0.0-2.0-38.0"},{"group":"hexagon_tri","room_assignment":["yellow","green","blue","grey","red","purple"],"door_color_assignment":["black","white"],"door_generator_assignment":[1,0],"goal":4,"start":1,"action_noise":0,"location_history":"[1,5,4]","action_history":"[1,0]","door_history":"[0,1]","location_rts":"[122,891]","trial_type":"two-door-navigation","trial_index":41,"time_elapsed":1027748,"internal_node_id":"0.0-2.0-39.0"},{"group":"hexagon_tri","room_assignment":["yellow","green","blue","grey","red","purple"],"door_color_assignment":["black","white"],"door_generator_assignment":[1,0],"goal":3,"start":4,"action_noise":0,"location_history":"[4,0,1,3]","action_history":"[0,1,0]","door_history":"[1,0,1]","location_rts":"[178,52,892]","trial_type":"two-door-navigation","trial_index":42,"time_elapsed":1035934,"internal_node_id":"0.0-2.0-40.0"},{"group":"hexagon_tri","room_assignment":["yellow","green","blue","grey","red","purple"],"door_color_assignment":["black","white"],"door_generator_assignment":[1,0],"goal":2,"start":3,"action_noise":0,"location_history":"[3,2]","action_history":"[0]","door_history":"[1]","location_rts":"[72]","trial_type":"two-door-navigation","trial_index":43,"time_elapsed":1041031,"internal_node_id":"0.0-2.0-41.0"},{"group":"hexagon_tri","room_assignment":["yellow","green","blue","grey","red","purple"],"door_color_assignment":["black","white"],"door_generator_assignment":[1,0],"goal":0,"start":2,"action_noise":0,"location_history":"[2,3,2,1,3,2,1,3,4,0]","action_history":"[1,0,0,0,0,0,0,1,0]","door_history":"[0,1,1,1,1,1,1,0,1]","location_rts":"[239,8362,644,221,300,76,444,84,251]","trial_type":"two-door-navigation","trial_index":44,"time_elapsed":1064836,"internal_node_id":"0.0-2.0-42.0"},{"group":"hexagon_tri","room_assignment":["yellow","green","blue","grey","red","purple"],"door_color_assignment":["black","white"],"door_generator_assignment":[1,0],"goal":5,"start":0,"action_noise":0,"location_history":"[0,5]","action_history":"[0]","door_history":"[1]","location_rts":"[2120]","trial_type":"two-door-navigation","trial_index":45,"time_elapsed":1071981,"internal_node_id":"0.0-2.0-43.0"},{"group":"hexagon_tri","room_assignment":["yellow","green","blue","grey","red","purple"],"door_color_assignment":["black","white"],"door_generator_assignment":[1,0],"goal":0,"start":5,"action_noise":0,"location_history":"[5,4,2,3,4,2,3,2,3,2,1,3,4,0]","action_history":"[0,1,1,1,1,1,0,1,0,0,0,1,0]","door_history":"[1,0,0,0,0,0,1,0,1,1,1,0,1]","location_rts":"[168,274,4,37,246,244,83,517,805,19,122,83,1580]","trial_type":"two-door-navigation","trial_index":46,"time_elapsed":1093431,"internal_node_id":"0.0-2.0-44.0"},{"group":"hexagon_tri","room_assignment":["yellow","green","blue","grey","red","purple"],"door_color_assignment":["black","white"],"door_generator_assignment":[1,0],"goal":2,"start":0,"action_noise":0,"location_history":"[0,5,0,1,3,4,2]","action_history":"[0,1,1,0,1,1]","door_history":"[1,0,0,1,0,0]","location_rts":"[375,1587,259,674,2061,354]","trial_type":"two-door-navigation","trial_index":47,"time_elapsed":1108869,"internal_node_id":"0.0-2.0-45.0"},{"group":"hexagon_tri","room_assignment":["yellow","green","blue","grey","red","purple"],"door_color_assignment":["black","white"],"door_generator_assignment":[1,0],"goal":4,"start":2,"action_noise":0,"location_history":"[2,1,5,4]","action_history":"[0,1,0]","door_history":"[1,0,1]","location_rts":"[249,826,781]","trial_type":"two-door-navigation","trial_index":48,"time_elapsed":1117789,"internal_node_id":"0.0-2.0-46.0"},{"group":"hexagon_tri","room_assignment":["yellow","green","blue","grey","red","purple"],"door_color_assignment":["black","white"],"door_generator_assignment":[1,0],"goal":1,"start":4,"action_noise":0,"location_history":"[4,0,5,0,5,0,5,0,5,4,0,1]","action_history":"[0,0,1,0,1,0,1,0,0,0,1]","door_history":"[1,1,0,1,0,1,0,1,1,1,0]","location_rts":"[224,1868,251,838,206,2266,660,156,883,172,923]","trial_type":"two-door-navigation","trial_index":49,"time_elapsed":1141463,"internal_node_id":"0.0-2.0-47.0"},{"group":"hexagon_tri","room_assignment":["yellow","green","blue","grey","red","purple"],"door_color_assignment":["black","white"],"door_generator_assignment":[1,0],"goal":5,"start":1,"action_noise":0,"location_history":"[1,3,4,2,1,3,4,2,1,3,4,0,1,3,2,3,2,3,2,3,4,2,1,5]","action_history":"[0,1,1,0,0,1,1,0,0,1,0,1,0,0,1,0,1,0,1,1,1,0,1]","door_history":"[1,0,0,1,1,0,0,1,1,0,1,0,1,1,0,1,0,1,0,0,0,1,0]","location_rts":"[696,507,884,687,1545,1572,12,259,2341,214,4923,357,572,2205,389,148,174,925,4,333,470,615,1149]","trial_type":"two-door-navigation","trial_index":50,"time_elapsed":1189893,"internal_node_id":"0.0-2.0-48.0"},{"group":"hexagon_tri","room_assignment":["yellow","green","blue","grey","red","purple"],"door_color_assignment":["black","white"],"door_generator_assignment":[1,0],"goal":3,"start":5,"action_noise":0,"location_history":"[5,4,2,3]","action_history":"[0,1,1]","door_history":"[1,0,0]","location_rts":"[178,299,988]","trial_type":"two-door-navigation","trial_index":51,"time_elapsed":1198420,"internal_node_id":"0.0-2.0-49.0"},{"view_history":"[{\"page_index\":0,\"viewing_time\":1600356}]","rt":1600356,"trial_type":"instructions","trial_index":52,"time_elapsed":2799777,"internal_node_id":"0.0-3.0"},{"view_history":"[{\"page_index\":0,\"viewing_time\":1079},{\"page_index\":1,\"viewing_time\":1841}]","rt":2920,"trial_type":"instructions","trial_index":53,"time_elapsed":2803697,"internal_node_id":"0.0-4.0"},{"group":"hexagon_bi","fractal_assignment":["../images/org_blu.png","../images/gry_blk.png","../images/pnk_blu.png","../images/ylw_slt.png","../images/blu_wht.png","../images/cyn_red.png"],"mutagen_generator_assignment":[1,0],"goal":3,"start":5,"action_noise":0,"location_history":"[5,4,3]","action_history":"[1,0]","mutagen_history":"[0,1]","location_rts":"[3119,16]","trial_type":"fractal-mutation","trial_index":54,"time_elapsed":2812955,"internal_node_id":"0.0-5.0-0.0"},{"group":"hexagon_bi","fractal_assignment":["../images/org_blu.png","../images/gry_blk.png","../images/pnk_blu.png","../images/ylw_slt.png","../images/blu_wht.png","../images/cyn_red.png"],"mutagen_generator_assignment":[1,0],"goal":1,"start":3,"action_noise":0,"location_history":"[3,2,3,2,3,2,1]","action_history":"[1,1,1,1,1,0]","mutagen_history":"[0,0,0,0,0,1]","location_rts":"[163,123,201,121,238,115]","trial_type":"fractal-mutation","trial_index":55,"time_elapsed":2824228,"internal_node_id":"0.0-5.0-1.0"},{"group":"hexagon_bi","fractal_assignment":["../images/org_blu.png","../images/gry_blk.png","../images/pnk_blu.png","../images/ylw_slt.png","../images/blu_wht.png","../images/cyn_red.png"],"mutagen_generator_assignment":[1,0],"goal":0,"start":1,"action_noise":0,"location_history":"[1,2,1,2,1,2,3,4,3,4,5,0]","action_history":"[0,0,0,0,0,1,0,0,0,1,0]","mutagen_history":"[1,1,1,1,1,0,1,1,1,0,1]","location_rts":"[195,126,267,791,115,1283,666,736,794,550,6]","trial_type":"fractal-mutation","trial_index":56,"time_elapsed":2845471,"internal_node_id":"0.0-5.0-2.0"},{"group":"hexagon_bi","fractal_assignment":["../images/org_blu.png","../images/gry_blk.png","../images/pnk_blu.png","../images/ylw_slt.png","../images/blu_wht.png","../images/cyn_red.png"],"mutagen_generator_assignment":[1,0],"goal":3,"start":0,"action_noise":0,"location_history":"[0,1,2,3]","action_history":"[1,0,1]","mutagen_history":"[0,1,0]","location_rts":"[2559,114,211]","trial_type":"fractal-mutation","trial_index":57,"time_elapsed":2855566,"internal_node_id":"0.0-5.0-3.0"},{"group":"hexagon_bi","fractal_assignment":["../images/org_blu.png","../images/gry_blk.png","../images/pnk_blu.png","../images/ylw_slt.png","../images/blu_wht.png","../images/cyn_red.png"],"mutagen_generator_assignment":[1,0],"goal":4,"start":3,"action_noise":0,"location_history":"[3,4]","action_history":"[0]","mutagen_history":"[1]","location_rts":"[160]","trial_type":"fractal-mutation","trial_index":58,"time_elapsed":2860798,"internal_node_id":"0.0-5.0-4.0"},{"group":"hexagon_bi","fractal_assignment":["../images/org_blu.png","../images/gry_blk.png","../images/pnk_blu.png","../images/ylw_slt.png","../images/blu_wht.png","../images/cyn_red.png"],"mutagen_generator_assignment":[1,0],"goal":2,"start":4,"action_noise":0,"location_history":"[4,5,0,5,4,5,0,5,4,3,4,5,4,3,4,3,4,3,4,5,0,1,2]","action_history":"[1,0,0,1,1,0,0,1,0,0,1,1,0,0,0,0,0,0,1,0,1,0]","mutagen_history":"[0,1,1,0,0,1,1,0,1,1,0,0,1,1,1,1,1,1,0,1,0,1]","location_rts":"[56,67,497,26,98,12,87,11,83,13,6,209,61,106,29,33,230,37,202,190,155,36]","trial_type":"fractal-mutation","trial_index":59,"time_elapsed":2890365,"internal_node_id":"0.0-5.0-5.0"},{"group":"hexagon_bi","fractal_assignment":["../images/org_blu.png","../images/gry_blk.png","../images/pnk_blu.png","../images/ylw_slt.png","../images/blu_wht.png","../images/cyn_red.png"],"mutagen_generator_assignment":[1,0],"goal":1,"start":2,"action_noise":0,"location_history":"[2,3,4,3,4,5,0,5,4,5,0,1]","action_history":"[1,0,0,0,1,0,0,1,1,0,1]","mutagen_history":"[0,1,1,1,0,1,1,0,0,1,0]","location_rts":"[41,11,196,254,118,106,94,105,219,164,243]","trial_type":"fractal-mutation","trial_index":60,"time_elapsed":2907552,"internal_node_id":"0.0-5.0-6.0"},{"group":"hexagon_bi","fractal_assignment":["../images/org_blu.png","../images/gry_blk.png","../images/pnk_blu.png","../images/ylw_slt.png","../images/blu_wht.png","../images/cyn_red.png"],"mutagen_generator_assignment":[1,0],"goal":5,"start":1,"action_noise":0,"location_history":"[1,2,1,2,3,4,3,2,1,2,3,4,3,4,5]","action_history":"[0,0,0,1,0,0,1,0,0,1,0,0,0,1]","mutagen_history":"[1,1,1,0,1,1,0,1,1,0,1,1,1,0]","location_rts":"[63,67,189,11,209,24,203,59,240,237,235,68,210,86]","trial_type":"fractal-mutation","trial_index":61,"time_elapsed":2928318,"internal_node_id":"0.0-5.0-7.0"},{"group":"hexagon_bi","fractal_assignment":["../images/org_blu.png","../images/gry_blk.png","../images/pnk_blu.png","../images/ylw_slt.png","../images/blu_wht.png","../images/cyn_red.png"],"mutagen_generator_assignment":[1,0],"goal":4,"start":5,"action_noise":0,"location_history":"[5,0,5,4]","action_history":"[0,0,1]","mutagen_history":"[1,1,0]","location_rts":"[8,117,239]","trial_type":"fractal-mutation","trial_index":62,"time_elapsed":2935861,"internal_node_id":"0.0-5.0-8.0"},{"group":"hexagon_bi","fractal_assignment":["../images/org_blu.png","../images/gry_blk.png","../images/pnk_blu.png","../images/ylw_slt.png","../images/blu_wht.png","../images/cyn_red.png"],"mutagen_generator_assignment":[1,0],"goal":2,"start":4,"action_noise":0,"location_history":"[4,5,0,5,4,5,0,1,2]","action_history":"[1,0,0,1,1,0,1,0]","mutagen_history":"[0,1,1,0,0,1,0,1]","location_rts":"[361,150,238,310,892,132,63,195]","trial_type":"fractal-mutation","trial_index":63,"time_elapsed":2950647,"internal_node_id":"0.0-5.0-9.0"},{"group":"hexagon_bi","fractal_assignment":["../images/org_blu.png","../images/gry_blk.png","../images/pnk_blu.png","../images/ylw_slt.png","../images/blu_wht.png","../images/cyn_red.png"],"mutagen_generator_assignment":[1,0],"goal":0,"start":2,"action_noise":0,"location_history":"[2,1,0]","action_history":"[0,1]","mutagen_history":"[1,0]","location_rts":"[40,2988]","trial_type":"fractal-mutation","trial_index":64,"time_elapsed":2959790,"internal_node_id":"0.0-5.0-10.0"},{"group":"hexagon_bi","fractal_assignment":["../images/org_blu.png","../images/gry_blk.png","../images/pnk_blu.png","../images/ylw_slt.png","../images/blu_wht.png","../images/cyn_red.png"],"mutagen_generator_assignment":[1,0],"goal":1,"start":0,"action_noise":0,"location_history":"[0,1]","action_history":"[1]","mutagen_history":"[0]","location_rts":"[6576]","trial_type":"fractal-mutation","trial_index":65,"time_elapsed":2971414,"internal_node_id":"0.0-5.0-11.0"},{"group":"hexagon_bi","fractal_assignment":["../images/org_blu.png","../images/gry_blk.png","../images/pnk_blu.png","../images/ylw_slt.png","../images/blu_wht.png","../images/cyn_red.png"],"mutagen_generator_assignment":[1,0],"goal":3,"start":1,"action_noise":0,"location_history":"[1,2,3]","action_history":"[0,1]","mutagen_history":"[1,0]","location_rts":"[25,85]","trial_type":"fractal-mutation","trial_index":66,"time_elapsed":2977638,"internal_node_id":"0.0-5.0-12.0"},{"group":"hexagon_bi","fractal_assignment":["../images/org_blu.png","../images/gry_blk.png","../images/pnk_blu.png","../images/ylw_slt.png","../images/blu_wht.png","../images/cyn_red.png"],"mutagen_generator_assignment":[1,0],"goal":5,"start":3,"action_noise":0,"location_history":"[3,4,3,4,3,4,3,4,3,4,3,4,3,2,1,2,1,2,1,2,1,2,1,2,1,2,1,2,1,2,1,0,5]","action_history":"[0,0,0,0,0,0,0,0,0,0,0,0,1,0,0,0,0,0,0,0,0,0,0,0,0,0,0,0,0,0,1,0]","mutagen_history":"[1,1,1,1,1,1,1,1,1,1,1,1,0,1,1,1,1,1,1,1,1,1,1,1,1,1,1,1,1,1,0,1]","location_rts":"[50,12,52,24,21,68,15,45,70,48,114,68,16,172,175,107,90,184,2279,286,206,88,75,107,196,153,20,154,381,65,44,164]","trial_type":"fractal-mutation","trial_index":67,"time_elapsed":3021323,"internal_node_id":"0.0-5.0-13.0"},{"group":"hexagon_bi","fractal_assignment":["../images/org_blu.png","../images/gry_blk.png","../images/pnk_blu.png","../images/ylw_slt.png","../images/blu_wht.png","../images/cyn_red.png"],"mutagen_generator_assignment":[1,0],"goal":4,"start":5,"action_noise":0,"location_history":"[5,4]","action_history":"[1]","mutagen_history":"[0]","location_rts":"[52]","trial_type":"fractal-mutation","trial_index":68,"time_elapsed":3026424,"internal_node_id":"0.0-5.0-14.0"},{"group":"hexagon_bi","fractal_assignment":["../images/org_blu.png","../images/gry_blk.png","../images/pnk_blu.png","../images/ylw_slt.png","../images/blu_wht.png","../images/cyn_red.png"],"mutagen_generator_assignment":[1,0],"goal":0,"start":4,"action_noise":0,"location_history":"[4,3,4,5,0]","action_history":"[0,0,1,0]","mutagen_history":"[1,1,0,1]","location_rts":"[23,106,47,180]","trial_type":"fractal-mutation","trial_index":69,"time_elapsed":3035030,"internal_node_id":"0.0-5.0-15.0"},{"group":"hexagon_bi","fractal_assignment":["../images/org_blu.png","../images/gry_blk.png","../images/pnk_blu.png","../images/ylw_slt.png","../images/blu_wht.png","../images/cyn_red.png"],"mutagen_generator_assignment":[1,0],"goal":3,"start":0,"action_noise":0,"location_history":"[0,5,0,5,0,5,4,3]","action_history":"[0,0,0,0,0,1,0]","mutagen_history":"[1,1,1,1,1,0,1]","location_rts":"[9,95,197,87,85,37,156]","trial_type":"fractal-mutation","trial_index":70,"time_elapsed":3047141,"internal_node_id":"0.0-5.0-16.0"},{"group":"hexagon_bi","fractal_assignment":["../images/org_blu.png","../images/gry_blk.png","../images/pnk_blu.png","../images/ylw_slt.png","../images/blu_wht.png","../images/cyn_red.png"],"mutagen_generator_assignment":[1,0],"goal":1,"start":3,"action_noise":0,"location_history":"[3,4,3,4,5,0,5,4,3,4,3,4,3,2,1]","action_history":"[0,0,0,1,0,0,1,0,0,0,0,0,1,0]","mutagen_history":"[1,1,1,0,1,1,0,1,1,1,1,1,0,1]","location_rts":"[138,135,96,78,221,157,115,165,164,78,123,91,188,3]","trial_type":"fractal-mutation","trial_index":71,"time_elapsed":3067767,"internal_node_id":"0.0-5.0-17.0"},{"group":"hexagon_bi","fractal_assignment":["../images/org_blu.png","../images/gry_blk.png","../images/pnk_blu.png","../images/ylw_slt.png","../images/blu_wht.png","../images/cyn_red.png"],"mutagen_generator_assignment":[1,0],"goal":5,"start":1,"action_noise":0,"location_history":"[1,2,1,2,1,2,1,2,3,4,5]","action_history":"[0,0,0,0,0,0,0,1,0,1]","mutagen_history":"[1,1,1,1,1,1,1,0,1,0]","location_rts":"[201,180,156,232,151,125,168,0,74,122]","trial_type":"fractal-mutation","trial_index":72,"time_elapsed":3083790,"internal_node_id":"0.0-5.0-18.0"},{"group":"hexagon_bi","fractal_assignment":["../images/org_blu.png","../images/gry_blk.png","../images/pnk_blu.png","../images/ylw_slt.png","../images/blu_wht.png","../images/cyn_red.png"],"mutagen_generator_assignment":[1,0],"goal":2,"start":5,"action_noise":0,"location_history":"[5,0,5,0,5,4,3,2]","action_history":"[0,0,0,0,1,0,1]","mutagen_history":"[1,1,1,1,0,1,0]","location_rts":"[18,196,246,170,44,98,15]","trial_type":"fractal-mutation","trial_index":73,"time_elapsed":3096006,"internal_node_id":"0.0-5.0-19.0"},{"group":"hexagon_bi","fractal_assignment":["../images/org_blu.png","../images/gry_blk.png","../images/pnk_blu.png","../images/ylw_slt.png","../images/blu_wht.png","../images/cyn_red.png"],"mutagen_generator_assignment":[1,0],"goal":4,"start":2,"action_noise":0,"location_history":"[2,1,0,5,4]","action_history":"[0,1,0,1]","mutagen_history":"[1,0,1,0]","location_rts":"[168,31,99,29]","trial_type":"fractal-mutation","trial_index":74,"time_elapsed":3104557,"internal_node_id":"0.0-5.0-20.0"},{"group":"hexagon_bi","fractal_assignment":["../images/org_blu.png","../images/gry_blk.png","../images/pnk_blu.png","../images/ylw_slt.png","../images/blu_wht.png","../images/cyn_red.png"],"mutagen_generator_assignment":[1,0],"goal":1,"start":4,"action_noise":0,"location_history":"[4,3,2,1]","action_history":"[0,1,0]","mutagen_history":"[1,0,1]","location_rts":"[73,422,42]","trial_type":"fractal-mutation","trial_index":75,"time_elapsed":3112281,"internal_node_id":"0.0-5.0-21.0"},{"group":"hexagon_bi","fractal_assignment":["../images/org_blu.png","../images/gry_blk.png","../images/pnk_blu.png","../images/ylw_slt.png","../images/blu_wht.png","../images/cyn_red.png"],"mutagen_generator_assignment":[1,0],"goal":3,"start":1,"action_noise":0,"location_history":"[1,2,1,2,1,2,1,2,1,2,1,0,5,0,5,0,5,4,3]","action_history":"[0,0,0,0,0,0,0,0,0,0,1,0,0,0,0,0,1,0]","mutagen_history":"[1,1,1,1,1,1,1,1,1,1,0,1,1,1,1,1,0,1]","location_rts":"[22,118,94,94,62,45,182,109,111,151,96,91,206,165,178,200,94,36]","trial_type":"fractal-mutation","trial_index":76,"time_elapsed":3137483,"internal_node_id":"0.0-5.0-22.0"},{"group":"hexagon_bi","fractal_assignment":["../images/org_blu.png","../images/gry_blk.png","../images/pnk_blu.png","../images/ylw_slt.png","../images/blu_wht.png","../images/cyn_red.png"],"mutagen_generator_assignment":[1,0],"goal":2,"start":3,"action_noise":0,"location_history":"[3,4,3,4,3,4,3,4,3,4,3,4,3,2]","action_history":"[0,0,0,0,0,0,0,0,0,0,0,0,1]","mutagen_history":"[1,1,1,1,1,1,1,1,1,1,1,1,0]","location_rts":"[203,126,135,157,207,94,119,141,25941,52,223,182,13]","trial_type":"fractal-mutation","trial_index":77,"time_elapsed":3182918,"internal_node_id":"0.0-5.0-23.0"},{"group":"hexagon_bi","fractal_assignment":["../images/org_blu.png","../images/gry_blk.png","../images/pnk_blu.png","../images/ylw_slt.png","../images/blu_wht.png","../images/cyn_red.png"],"mutagen_generator_assignment":[1,0],"goal":0,"start":2,"action_noise":0,"location_history":"[2,3,2,1,2,3,2,1,0]","action_history":"[1,1,0,0,1,1,0,1]","mutagen_history":"[0,0,1,1,0,0,1,0]","location_rts":"[293,92,102,260,190,195,78,150]","trial_type":"fractal-mutation","trial_index":78,"time_elapsed":3196701,"internal_node_id":"0.0-5.0-24.0"},{"group":"hexagon_bi","fractal_assignment":["../images/org_blu.png","../images/gry_blk.png","../images/pnk_blu.png","../images/ylw_slt.png","../images/blu_wht.png","../images/cyn_red.png"],"mutagen_generator_assignment":[1,0],"goal":5,"start":0,"action_noise":0,"location_history":"[0,1,2,1,2,1,0,1,2,3,4,3,2,1,2,1,0,1,0,5]","action_history":"[1,0,0,0,0,1,1,0,1,0,0,1,0,0,0,1,1,1,0]","mutagen_history":"[0,1,1,1,1,0,0,1,0,1,1,0,1,1,1,0,0,0,1]","location_rts":"[51,18,150,39,16,190,156,12,182,13,93,62,20,94,93,91,115,162,29]","trial_type":"fractal-mutation","trial_index":79,"time_elapsed":3222373,"internal_node_id":"0.0-5.0-25.0"},{"group":"hexagon_bi","fractal_assignment":["../images/org_blu.png","../images/gry_blk.png","../images/pnk_blu.png","../images/ylw_slt.png","../images/blu_wht.png","../images/cyn_red.png"],"mutagen_generator_assignment":[1,0],"goal":2,"start":5,"action_noise":0,"location_history":"[5,4,3,2]","action_history":"[1,0,1]","mutagen_history":"[0,1,0]","location_rts":"[11,139,164]","trial_type":"fractal-mutation","trial_index":80,"time_elapsed":3229847,"internal_node_id":"0.0-5.0-26.0"},{"group":"hexagon_bi","fractal_assignment":["../images/org_blu.png","../images/gry_blk.png","../images/pnk_blu.png","../images/ylw_slt.png","../images/blu_wht.png","../images/cyn_red.png"],"mutagen_generator_assignment":[1,0],"goal":3,"start":2,"action_noise":0,"location_history":"[2,1,2,1,2,1,2,1,2,1,2,3]","action_history":"[0,0,0,0,0,0,0,0,0,0,1]","mutagen_history":"[1,1,1,1,1,1,1,1,1,1,0]","location_rts":"[47,350,173,70,230,181,109,60,81,64,1223]","trial_type":"fractal-mutation","trial_index":81,"time_elapsed":3248142,"internal_node_id":"0.0-5.0-27.0"},{"group":"hexagon_bi","fractal_assignment":["../images/org_blu.png","../images/gry_blk.png","../images/pnk_blu.png","../images/ylw_slt.png","../images/blu_wht.png","../images/cyn_red.png"],"mutagen_generator_assignment":[1,0],"goal":0,"start":3,"action_noise":0,"location_history":"[3,2,3,2,1,0]","action_history":"[1,1,1,0,1]","mutagen_history":"[0,0,0,1,0]","location_rts":"[50,123,187,29,470]","trial_type":"fractal-mutation","trial_index":82,"time_elapsed":3258248,"internal_node_id":"0.0-5.0-28.0"},{"group":"hexagon_bi","fractal_assignment":["../images/org_blu.png","../images/gry_blk.png","../images/pnk_blu.png","../images/ylw_slt.png","../images/blu_wht.png","../images/cyn_red.png"],"mutagen_generator_assignment":[1,0],"goal":1,"start":0,"action_noise":0,"location_history":"[0,1]","action_history":"[1]","mutagen_history":"[0]","location_rts":"[10366]","trial_type":"fractal-mutation","trial_index":83,"time_elapsed":3273662,"internal_node_id":"0.0-5.0-29.0"},{"group":"hexagon_bi","fractal_assignment":["../images/org_blu.png","../images/gry_blk.png","../images/pnk_blu.png","../images/ylw_slt.png","../images/blu_wht.png","../images/cyn_red.png"],"mutagen_generator_assignment":[1,0],"goal":4,"start":1,"action_noise":0,"location_history":"[1,0,5,4]","action_history":"[1,0,1]","mutagen_history":"[0,1,0]","location_rts":"[176,228,131]","trial_type":"fractal-mutation","trial_index":84,"time_elapsed":3281358,"internal_node_id":"0.0-5.0-30.0"},{"group":"hexagon_bi","fractal_assignment":["../images/org_blu.png","../images/gry_blk.png","../images/pnk_blu.png","../images/ylw_slt.png","../images/blu_wht.png","../images/cyn_red.png"],"mutagen_generator_assignment":[1,0],"goal":5,"start":4,"action_noise":0,"location_history":"[4,5]","action_history":"[1]","mutagen_history":"[0]","location_rts":"[256]","trial_type":"fractal-mutation","trial_index":85,"time_elapsed":3286662,"internal_node_id":"0.0-5.0-31.0"},{"group":"hexagon_bi","fractal_assignment":["../images/org_blu.png","../images/gry_blk.png","../images/pnk_blu.png","../images/ylw_slt.png","../images/blu_wht.png","../images/cyn_red.png"],"mutagen_generator_assignment":[1,0],"goal":0,"start":5,"action_noise":0,"location_history":"[5,0]","action_history":"[0]","mutagen_history":"[1]","location_rts":"[65]","trial_type":"fractal-mutation","trial_index":86,"time_elapsed":3291798,"internal_node_id":"0.0-5.0-32.0"},{"group":"hexagon_bi","fractal_assignment":["../images/org_blu.png","../images/gry_blk.png","../images/pnk_blu.png","../images/ylw_slt.png","../images/blu_wht.png","../images/cyn_red.png"],"mutagen_generator_assignment":[1,0],"goal":3,"start":0,"action_noise":0,"location_history":"[0,5,0,5,4,3]","action_history":"[0,0,0,1,0]","mutagen_history":"[1,1,1,0,1]","location_rts":"[209,277,32,141,761]","trial_type":"fractal-mutation","trial_index":87,"time_elapsed":3302534,"internal_node_id":"0.0-5.0-33.0"},{"group":"hexagon_bi","fractal_assignment":["../images/org_blu.png","../images/gry_blk.png","../images/pnk_blu.png","../images/ylw_slt.png","../images/blu_wht.png","../images/cyn_red.png"],"mutagen_generator_assignment":[1,0],"goal":1,"start":3,"action_noise":0,"location_history":"[3,2,1]","action_history":"[1,0]","mutagen_history":"[0,1]","location_rts":"[216,114]","trial_type":"fractal-mutation","trial_index":88,"time_elapsed":3308979,"internal_node_id":"0.0-5.0-34.0"},{"group":"hexagon_bi","fractal_assignment":["../images/org_blu.png","../images/gry_blk.png","../images/pnk_blu.png","../images/ylw_slt.png","../images/blu_wht.png","../images/cyn_red.png"],"mutagen_generator_assignment":[1,0],"goal":2,"start":1,"action_noise":0,"location_history":"[1,2]","action_history":"[0]","mutagen_history":"[1]","location_rts":"[244]","trial_type":"fractal-mutation","trial_index":89,"time_elapsed":3314294,"internal_node_id":"0.0-5.0-35.0"},{"group":"hexagon_bi","fractal_assignment":["../images/org_blu.png","../images/gry_blk.png","../images/pnk_blu.png","../images/ylw_slt.png","../images/blu_wht.png","../images/cyn_red.png"],"mutagen_generator_assignment":[1,0],"goal":4,"start":2,"action_noise":0,"location_history":"[2,3,2,1,2,3,4]","action_history":"[1,1,0,0,1,0]","mutagen_history":"[0,0,1,1,0,1]","location_rts":"[242,364,59,212,172,843]","trial_type":"fractal-mutation","trial_index":90,"time_elapsed":3327522,"internal_node_id":"0.0-5.0-36.0"},{"group":"hexagon_bi","fractal_assignment":["../images/org_blu.png","../images/gry_blk.png","../images/pnk_blu.png","../images/ylw_slt.png","../images/blu_wht.png","../images/cyn_red.png"],"mutagen_generator_assignment":[1,0],"goal":5,"start":4,"action_noise":0,"location_history":"[4,3,4,3,2,1,2,1,2,3,4,3,4,3,4,5]","action_history":"[0,0,0,1,0,0,0,0,1,0,0,0,0,0,1]","mutagen_history":"[1,1,1,0,1,1,1,1,0,1,1,1,1,1,0]","location_rts":"[13893,30,47,734,237,156,221,246,159,22,274,278,268,1275,764]","trial_type":"fractal-mutation","trial_index":91,"time_elapsed":3367062,"internal_node_id":"0.0-5.0-37.0"},{"group":"hexagon_bi","fractal_assignment":["../images/org_blu.png","../images/gry_blk.png","../images/pnk_blu.png","../images/ylw_slt.png","../images/blu_wht.png","../images/cyn_red.png"],"mutagen_generator_assignment":[1,0],"goal":1,"start":5,"action_noise":0,"location_history":"[5,4,3,4,5,4,5,0,5,4,5,0,1]","action_history":"[1,0,0,1,1,1,0,0,1,1,0,1]","mutagen_history":"[0,1,1,0,0,0,1,1,0,0,1,0]","location_rts":"[46,298,120,182,85,707,106,518,1166,6,1828,154]","trial_type":"fractal-mutation","trial_index":92,"time_elapsed":3388918,"internal_node_id":"0.0-5.0-38.0"},{"group":"hexagon_bi","fractal_assignment":["../images/org_blu.png","../images/gry_blk.png","../images/pnk_blu.png","../images/ylw_slt.png","../images/blu_wht.png","../images/cyn_red.png"],"mutagen_generator_assignment":[1,0],"goal":4,"start":1,"action_noise":0,"location_history":"[1,2,1,2,3,4]","action_history":"[0,0,0,1,0]","mutagen_history":"[1,1,1,0,1]","location_rts":"[137,87,407,271,333]","trial_type":"fractal-mutation","trial_index":93,"time_elapsed":3399461,"internal_node_id":"0.0-5.0-39.0"},{"group":"hexagon_bi","fractal_assignment":["../images/org_blu.png","../images/gry_blk.png","../images/pnk_blu.png","../images/ylw_slt.png","../images/blu_wht.png","../images/cyn_red.png"],"mutagen_generator_assignment":[1,0],"goal":3,"start":4,"action_noise":0,"location_history":"[4,3]","action_history":"[0]","mutagen_history":"[1]","location_rts":"[96]","trial_type":"fractal-mutation","trial_index":94,"time_elapsed":3404629,"internal_node_id":"0.0-5.0-40.0"},{"group":"hexagon_bi","fractal_assignment":["../images/org_blu.png","../images/gry_blk.png","../images/pnk_blu.png","../images/ylw_slt.png","../images/blu_wht.png","../images/cyn_red.png"],"mutagen_generator_assignment":[1,0],"goal":2,"start":3,"action_noise":0,"location_history":"[3,2]","action_history":"[1]","mutagen_history":"[0]","location_rts":"[227]","trial_type":"fractal-mutation","trial_index":95,"time_elapsed":3409902,"internal_node_id":"0.0-5.0-41.0"},{"group":"hexagon_bi","fractal_assignment":["../images/org_blu.png","../images/gry_blk.png","../images/pnk_blu.png","../images/ylw_slt.png","../images/blu_wht.png","../images/cyn_red.png"],"mutagen_generator_assignment":[1,0],"goal":0,"start":2,"action_noise":0,"location_history":"[2,1,2,1,2,1,2,1,2,1,0]","action_history":"[0,0,0,0,0,0,0,0,0,1]","mutagen_history":"[1,1,1,1,1,1,1,1,1,0]","location_rts":"[145,709,284,28,96,215,84,158,310,266]","trial_type":"fractal-mutation","trial_index":96,"time_elapsed":3426849,"internal_node_id":"0.0-5.0-42.0"},{"group":"hexagon_bi","fractal_assignment":["../images/org_blu.png","../images/gry_blk.png","../images/pnk_blu.png","../images/ylw_slt.png","../images/blu_wht.png","../images/cyn_red.png"],"mutagen_generator_assignment":[1,0],"goal":5,"start":0,"action_noise":0,"location_history":"[0,1,0,1,2,1,0,1,0,1,0,1,0,5]","action_history":"[1,1,1,0,0,1,1,1,1,1,1,1,0]","mutagen_history":"[0,0,0,1,1,0,0,0,0,0,0,0,1]","location_rts":"[102,596,189,243,149,126,619,227,36,132,164,548,292]","trial_type":"fractal-mutation","trial_index":97,"time_elapsed":3447919,"internal_node_id":"0.0-5.0-43.0"},{"group":"hexagon_bi","fractal_assignment":["../images/org_blu.png","../images/gry_blk.png","../images/pnk_blu.png","../images/ylw_slt.png","../images/blu_wht.png","../images/cyn_red.png"],"mutagen_generator_assignment":[1,0],"goal":0,"start":5,"action_noise":0,"location_history":"[5,4,5,4,3,4,3,4,5,4,3,2,3,4,5,0]","action_history":"[1,1,1,0,0,0,0,1,1,0,1,1,0,1,0]","mutagen_history":"[0,0,0,1,1,1,1,0,0,1,0,0,1,0,1]","location_rts":"[256,241,595,181,129,348,113,156,499,58,52,11,237,198,101]","trial_type":"fractal-mutation","trial_index":98,"time_elapsed":3470933,"internal_node_id":"0.0-5.0-44.0"},{"group":"hexagon_bi","fractal_assignment":["../images/org_blu.png","../images/gry_blk.png","../images/pnk_blu.png","../images/ylw_slt.png","../images/blu_wht.png","../images/cyn_red.png"],"mutagen_generator_assignment":[1,0],"goal":2,"start":0,"action_noise":0,"location_history":"[0,5,4,3,2]","action_history":"[0,1,0,1]","mutagen_history":"[1,0,1,0]","location_rts":"[442,142,508,205]","trial_type":"fractal-mutation","trial_index":99,"time_elapsed":3480454,"internal_node_id":"0.0-5.0-45.0"},{"group":"hexagon_bi","fractal_assignment":["../images/org_blu.png","../images/gry_blk.png","../images/pnk_blu.png","../images/ylw_slt.png","../images/blu_wht.png","../images/cyn_red.png"],"mutagen_generator_assignment":[1,0],"goal":4,"start":2,"action_noise":0,"location_history":"[2,1,0,1,0,5,4]","action_history":"[0,1,1,1,0,1]","mutagen_history":"[1,0,0,0,1,0]","location_rts":"[265,547,381,275,452,59]","trial_type":"fractal-mutation","trial_index":100,"time_elapsed":3492752,"internal_node_id":"0.0-5.0-46.0"},{"group":"hexagon_bi","fractal_assignment":["../images/org_blu.png","../images/gry_blk.png","../images/pnk_blu.png","../images/ylw_slt.png","../images/blu_wht.png","../images/cyn_red.png"],"mutagen_generator_assignment":[1,0],"goal":1,"start":4,"action_noise":0,"location_history":"[4,5,0,1]","action_history":"[1,0,1]","mutagen_history":"[0,1,0]","location_rts":"[94,51,93]","trial_type":"fractal-mutation","trial_index":101,"time_elapsed":3500152,"internal_node_id":"0.0-5.0-47.0"},{"group":"hexagon_bi","fractal_assignment":["../images/org_blu.png","../images/gry_blk.png","../images/pnk_blu.png","../images/ylw_slt.png","../images/blu_wht.png","../images/cyn_red.png"],"mutagen_generator_assignment":[1,0],"goal":5,"start":1,"action_noise":0,"location_history":"[1,0,1,2,3,2,3,4,5]","action_history":"[1,1,0,1,1,1,0,1]","mutagen_history":"[0,0,1,0,0,0,1,0]","location_rts":"[431,237,250,157,45,205,91,25]","trial_type":"fractal-mutation","trial_index":102,"time_elapsed":3513991,"internal_node_id":"0.0-5.0-48.0"},{"group":"hexagon_bi","fractal_assignment":["../images/org_blu.png","../images/gry_blk.png","../images/pnk_blu.png","../images/ylw_slt.png","../images/blu_wht.png","../images/cyn_red.png"],"mutagen_generator_assignment":[1,0],"goal":3,"start":5,"action_noise":0,"location_history":"[5,4,3]","action_history":"[1,0]","mutagen_history":"[0,1]","location_rts":"[327,114]","trial_type":"fractal-mutation","trial_index":103,"time_elapsed":3520548,"internal_node_id":"0.0-5.0-49.0"},{"view_history":"[{\"page_index\":0,\"viewing_time\":6092}]","rt":6092,"trial_type":"instructions","trial_index":104,"time_elapsed":3527641,"internal_node_id":"0.0-6.0"},{"rt":1742,"responses":"{\"Q0\":\"\"}","trial_type":"survey-text","trial_index":105,"time_elapsed":3530387,"internal_node_id":"0.0-7.0"}]