[{"view_history":"[{\"page_index\":0,\"viewing_time\":12563},{\"page_index\":1,\"viewing_time\":86227}]","rt":98791,"trial_type":"instructions","trial_index":0,"time_elapsed":98792,"internal_node_id":"0.0-0.0"},{"view_history":"[{\"page_index\":0,\"viewing_time\":1637},{\"page_index\":1,\"viewing_time\":11342}]","rt":12979,"trial_type":"instructions","trial_index":1,"time_elapsed":112772,"internal_node_id":"0.0-1.0"},{"group":"hexagon_tri","room_assignment":["purple","grey","yellow","green","blue","red"],"door_color_assignment":["white","black"],"door_generator_assignment":[0,1],"goal":3,"start":5,"action_noise":0,"location_history":"[5,4,2,3]","action_history":"[0,1,1]","door_history":"[0,1,1]","location_rts":"[1293,1070,977]","trial_type":"two-door-navigation","trial_index":2,"time_elapsed":123191,"internal_node_id":"0.0-2.0-0.0"},{"group":"hexagon_tri","room_assignment":["purple","grey","yellow","green","blue","red"],"door_color_assignment":["white","black"],"door_generator_assignment":[0,1],"goal":1,"start":3,"action_noise":0,"location_history":"[3,2,3,4,2,1]","action_history":"[0,1,1,1,0]","door_history":"[0,1,1,1,0]","location_rts":"[1479,681,660,484,783]","trial_type":"two-door-navigation","trial_index":3,"time_elapsed":136392,"internal_node_id":"0.0-2.0-1.0"},{"group":"hexagon_tri","room_assignment":["purple","grey","yellow","green","blue","red"],"door_color_assignment":["white","black"],"door_generator_assignment":[0,1],"goal":0,"start":1,"action_noise":0,"location_history":"[1,3,2,3,4,0]","action_history":"[0,0,1,1,0]","door_history":"[0,0,1,1,0]","location_rts":"[44751,542,707,415,1824]","trial_type":"two-door-navigation","trial_index":4,"time_elapsed":193734,"internal_node_id":"0.0-2.0-2.0"},{"group":"hexagon_tri","room_assignment":["purple","grey","yellow","green","blue","red"],"door_color_assignment":["white","black"],"door_generator_assignment":[0,1],"goal":3,"start":0,"action_noise":0,"location_history":"[0,1,5,4,0,5,4,0,1,3]","action_history":"[1,1,0,0,0,0,0,1,0]","door_history":"[1,1,0,0,0,0,0,1,0]","location_rts":"[1146,1909,824,530,455,1158,1368,887,783]","trial_type":"two-door-navigation","trial_index":5,"time_elapsed":215992,"internal_node_id":"0.0-2.0-3.0"},{"group":"hexagon_tri","room_assignment":["purple","grey","yellow","green","blue","red"],"door_color_assignment":["white","black"],"door_generator_assignment":[0,1],"goal":4,"start":3,"action_noise":0,"location_history":"[3,2,3,2,3,4]","action_history":"[0,1,0,1,1]","door_history":"[0,1,0,1,1]","location_rts":"[1932,552,1230,587,1340]","trial_type":"two-door-navigation","trial_index":6,"time_elapsed":230743,"internal_node_id":"0.0-2.0-4.0"},{"group":"hexagon_tri","room_assignment":["purple","grey","yellow","green","blue","red"],"door_color_assignment":["white","black"],"door_generator_assignment":[0,1],"goal":2,"start":4,"action_noise":0,"location_history":"[4,0,5,0,1,5,0,5,4,0,5,4,2]","action_history":"[0,0,1,1,1,1,0,0,0,0,0,1]","door_history":"[0,0,1,1,1,1,0,0,0,0,0,1]","location_rts":"[4124,1214,837,1691,1494,377,600,598,749,1275,941,395]","trial_type":"two-door-navigation","trial_index":7,"time_elapsed":261295,"internal_node_id":"0.0-2.0-5.0"},{"group":"hexagon_tri","room_assignment":["purple","grey","yellow","green","blue","red"],"door_color_assignment":["white","black"],"door_generator_assignment":[0,1],"goal":1,"start":2,"action_noise":0,"location_history":"[2,1]","action_history":"[0]","door_history":"[0]","location_rts":"[45900]","trial_type":"two-door-navigation","trial_index":8,"time_elapsed":312216,"internal_node_id":"0.0-2.0-6.0"},{"group":"hexagon_tri","room_assignment":["purple","grey","yellow","green","blue","red"],"door_color_assignment":["white","black"],"door_generator_assignment":[0,1],"goal":5,"start":1,"action_noise":0,"location_history":"[1,5]","action_history":"[1]","door_history":"[1]","location_rts":"[2823]","trial_type":"two-door-navigation","trial_index":9,"time_elapsed":320066,"internal_node_id":"0.0-2.0-7.0"},{"group":"hexagon_tri","room_assignment":["purple","grey","yellow","green","blue","red"],"door_color_assignment":["white","black"],"door_generator_assignment":[0,1],"goal":4,"start":5,"action_noise":0,"location_history":"[5,0,1,5,4]","action_history":"[1,1,1,0]","door_history":"[1,1,1,0]","location_rts":"[3053,3771,118,492]","trial_type":"two-door-navigation","trial_index":10,"time_elapsed":335591,"internal_node_id":"0.0-2.0-8.0"},{"group":"hexagon_tri","room_assignment":["purple","grey","yellow","green","blue","red"],"door_color_assignment":["white","black"],"door_generator_assignment":[0,1],"goal":2,"start":4,"action_noise":0,"location_history":"[4,2]","action_history":"[1]","door_history":"[1]","location_rts":"[8338]","trial_type":"two-door-navigation","trial_index":11,"time_elapsed":348953,"internal_node_id":"0.0-2.0-9.0"},{"group":"hexagon_tri","room_assignment":["purple","grey","yellow","green","blue","red"],"door_color_assignment":["white","black"],"door_generator_assignment":[0,1],"goal":0,"start":2,"action_noise":0,"location_history":"[2,3,2,1,3,2,3,4,0]","action_history":"[1,0,0,0,0,1,1,0]","door_history":"[1,0,0,0,0,1,1,0]","location_rts":"[6427,846,1284,1485,854,750,738,1400]","trial_type":"two-door-navigation","trial_index":12,"time_elapsed":374910,"internal_node_id":"0.0-2.0-10.0"},{"group":"hexagon_tri","room_assignment":["purple","grey","yellow","green","blue","red"],"door_color_assignment":["white","black"],"door_generator_assignment":[0,1],"goal":1,"start":0,"action_noise":0,"location_history":"[0,1]","action_history":"[1]","door_history":"[1]","location_rts":"[3140]","trial_type":"two-door-navigation","trial_index":13,"time_elapsed":383076,"internal_node_id":"0.0-2.0-11.0"},{"group":"hexagon_tri","room_assignment":["purple","grey","yellow","green","blue","red"],"door_color_assignment":["white","black"],"door_generator_assignment":[0,1],"goal":3,"start":1,"action_noise":0,"location_history":"[1,5,4,2,3]","action_history":"[1,0,1,1]","door_history":"[1,0,1,1]","location_rts":"[47988,925,1465,3132]","trial_type":"two-door-navigation","trial_index":14,"time_elapsed":444675,"internal_node_id":"0.0-2.0-12.0"},{"group":"hexagon_tri","room_assignment":["purple","grey","yellow","green","blue","red"],"door_color_assignment":["white","black"],"door_generator_assignment":[0,1],"goal":5,"start":3,"action_noise":0,"location_history":"[3,4,2,3,2,1,5]","action_history":"[1,1,1,0,0,1]","door_history":"[1,1,1,0,0,1]","location_rts":"[10755,1680,1258,661,694,2023]","trial_type":"two-door-navigation","trial_index":15,"time_elapsed":471873,"internal_node_id":"0.0-2.0-13.0"},{"group":"hexagon_tri","room_assignment":["purple","grey","yellow","green","blue","red"],"door_color_assignment":["white","black"],"door_generator_assignment":[0,1],"goal":4,"start":5,"action_noise":0,"location_history":"[5,0,1,3,2,1,3,4]","action_history":"[1,1,0,0,0,0,1]","door_history":"[1,1,0,0,0,0,1]","location_rts":"[3411,1236,2040,1918,1495,3103,916]","trial_type":"two-door-navigation","trial_index":16,"time_elapsed":497157,"internal_node_id":"0.0-2.0-14.0"},{"group":"hexagon_tri","room_assignment":["purple","grey","yellow","green","blue","red"],"door_color_assignment":["white","black"],"door_generator_assignment":[0,1],"goal":0,"start":4,"action_noise":0,"location_history":"[4,0]","action_history":"[0]","door_history":"[0]","location_rts":"[2252]","trial_type":"two-door-navigation","trial_index":17,"time_elapsed":504433,"internal_node_id":"0.0-2.0-15.0"},{"group":"hexagon_tri","room_assignment":["purple","grey","yellow","green","blue","red"],"door_color_assignment":["white","black"],"door_generator_assignment":[0,1],"goal":3,"start":0,"action_noise":0,"location_history":"[0,1,3]","action_history":"[1,0]","door_history":"[1,0]","location_rts":"[30105,2444]","trial_type":"two-door-navigation","trial_index":18,"time_elapsed":543024,"internal_node_id":"0.0-2.0-16.0"},{"group":"hexagon_tri","room_assignment":["purple","grey","yellow","green","blue","red"],"door_color_assignment":["white","black"],"door_generator_assignment":[0,1],"goal":1,"start":3,"action_noise":0,"location_history":"[3,2,3,2,1]","action_history":"[0,1,0,0]","door_history":"[0,1,0,0]","location_rts":"[4924,2811,902,414]","trial_type":"two-door-navigation","trial_index":19,"time_elapsed":560158,"internal_node_id":"0.0-2.0-17.0"},{"group":"hexagon_tri","room_assignment":["purple","grey","yellow","green","blue","red"],"door_color_assignment":["white","black"],"door_generator_assignment":[0,1],"goal":5,"start":1,"action_noise":0,"location_history":"[1,5]","action_history":"[1]","door_history":"[1]","location_rts":"[1683]","trial_type":"two-door-navigation","trial_index":20,"time_elapsed":566866,"internal_node_id":"0.0-2.0-18.0"},{"group":"hexagon_tri","room_assignment":["purple","grey","yellow","green","blue","red"],"door_color_assignment":["white","black"],"door_generator_assignment":[0,1],"goal":2,"start":5,"action_noise":0,"location_history":"[5,0,5,4,2]","action_history":"[1,0,0,1]","door_history":"[1,0,0,1]","location_rts":"[3083,1214,1396,2644]","trial_type":"two-door-navigation","trial_index":21,"time_elapsed":583307,"internal_node_id":"0.0-2.0-19.0"},{"group":"hexagon_tri","room_assignment":["purple","grey","yellow","green","blue","red"],"door_color_assignment":["white","black"],"door_generator_assignment":[0,1],"goal":4,"start":2,"action_noise":0,"location_history":"[2,3,4]","action_history":"[1,1]","door_history":"[1,1]","location_rts":"[5365,1652]","trial_type":"two-door-navigation","trial_index":22,"time_elapsed":596367,"internal_node_id":"0.0-2.0-20.0"},{"group":"hexagon_tri","room_assignment":["purple","grey","yellow","green","blue","red"],"door_color_assignment":["white","black"],"door_generator_assignment":[0,1],"goal":1,"start":4,"action_noise":0,"location_history":"[4,0,1]","action_history":"[0,1]","door_history":"[0,1]","location_rts":"[7945,871]","trial_type":"two-door-navigation","trial_index":23,"time_elapsed":611226,"internal_node_id":"0.0-2.0-21.0"},{"group":"hexagon_tri","room_assignment":["purple","grey","yellow","green","blue","red"],"door_color_assignment":["white","black"],"door_generator_assignment":[0,1],"goal":3,"start":1,"action_noise":0,"location_history":"[1,5,4,2,3]","action_history":"[1,0,1,1]","door_history":"[1,0,1,1]","location_rts":"[1299,1309,1095,747]","trial_type":"two-door-navigation","trial_index":24,"time_elapsed":623773,"internal_node_id":"0.0-2.0-22.0"},{"group":"hexagon_tri","room_assignment":["purple","grey","yellow","green","blue","red"],"door_color_assignment":["white","black"],"door_generator_assignment":[0,1],"goal":2,"start":3,"action_noise":0,"location_history":"[3,2]","action_history":"[0]","door_history":"[0]","location_rts":"[1709]","trial_type":"two-door-navigation","trial_index":25,"time_elapsed":630499,"internal_node_id":"0.0-2.0-23.0"},{"group":"hexagon_tri","room_assignment":["purple","grey","yellow","green","blue","red"],"door_color_assignment":["white","black"],"door_generator_assignment":[0,1],"goal":0,"start":2,"action_noise":0,"location_history":"[2,3,2,1,3,4,0]","action_history":"[1,0,0,0,1,0]","door_history":"[1,0,0,0,1,0]","location_rts":"[3191,1098,459,1991,913,802]","trial_type":"two-door-navigation","trial_index":26,"time_elapsed":649074,"internal_node_id":"0.0-2.0-24.0"},{"group":"hexagon_tri","room_assignment":["purple","grey","yellow","green","blue","red"],"door_color_assignment":["white","black"],"door_generator_assignment":[0,1],"goal":5,"start":0,"action_noise":0,"location_history":"[0,1,5]","action_history":"[1,1]","door_history":"[1,1]","location_rts":"[1622,1026]","trial_type":"two-door-navigation","trial_index":27,"time_elapsed":657765,"internal_node_id":"0.0-2.0-25.0"},{"group":"hexagon_tri","room_assignment":["purple","grey","yellow","green","blue","red"],"door_color_assignment":["white","black"],"door_generator_assignment":[0,1],"goal":2,"start":5,"action_noise":0,"location_history":"[5,4,2]","action_history":"[0,1]","door_history":"[0,1]","location_rts":"[2695,1859]","trial_type":"two-door-navigation","trial_index":28,"time_elapsed":668362,"internal_node_id":"0.0-2.0-26.0"},{"group":"hexagon_tri","room_assignment":["purple","grey","yellow","green","blue","red"],"door_color_assignment":["white","black"],"door_generator_assignment":[0,1],"goal":3,"start":2,"action_noise":0,"location_history":"[2,3]","action_history":"[1]","door_history":"[1]","location_rts":"[4876]","trial_type":"two-door-navigation","trial_index":29,"time_elapsed":678265,"internal_node_id":"0.0-2.0-27.0"},{"group":"hexagon_tri","room_assignment":["purple","grey","yellow","green","blue","red"],"door_color_assignment":["white","black"],"door_generator_assignment":[0,1],"goal":0,"start":3,"action_noise":0,"location_history":"[3,2,1,3,4,0]","action_history":"[0,0,0,1,0]","door_history":"[0,0,0,1,0]","location_rts":"[1579,4183,1439,1305,696]","trial_type":"two-door-navigation","trial_index":30,"time_elapsed":696565,"internal_node_id":"0.0-2.0-28.0"},{"group":"hexagon_tri","room_assignment":["purple","grey","yellow","green","blue","red"],"door_color_assignment":["white","black"],"door_generator_assignment":[0,1],"goal":1,"start":0,"action_noise":0,"location_history":"[0,1]","action_history":"[1]","door_history":"[1]","location_rts":"[16086]","trial_type":"two-door-navigation","trial_index":31,"time_elapsed":717674,"internal_node_id":"0.0-2.0-29.0"},{"group":"hexagon_tri","room_assignment":["purple","grey","yellow","green","blue","red"],"door_color_assignment":["white","black"],"door_generator_assignment":[0,1],"goal":4,"start":1,"action_noise":0,"location_history":"[1,3,4]","action_history":"[0,1]","door_history":"[0,1]","location_rts":"[4803,782]","trial_type":"two-door-navigation","trial_index":32,"time_elapsed":729306,"internal_node_id":"0.0-2.0-30.0"},{"group":"hexagon_tri","room_assignment":["purple","grey","yellow","green","blue","red"],"door_color_assignment":["white","black"],"door_generator_assignment":[0,1],"goal":5,"start":4,"action_noise":0,"location_history":"[4,2,1,5]","action_history":"[1,0,1]","door_history":"[1,0,1]","location_rts":"[3578,1445,298]","trial_type":"two-door-navigation","trial_index":33,"time_elapsed":741690,"internal_node_id":"0.0-2.0-31.0"},{"group":"hexagon_tri","room_assignment":["purple","grey","yellow","green","blue","red"],"door_color_assignment":["white","black"],"door_generator_assignment":[0,1],"goal":0,"start":5,"action_noise":0,"location_history":"[5,4,0]","action_history":"[0,0]","door_history":"[0,0]","location_rts":"[5053,683]","trial_type":"two-door-navigation","trial_index":34,"time_elapsed":753474,"internal_node_id":"0.0-2.0-32.0"},{"group":"hexagon_tri","room_assignment":["purple","grey","yellow","green","blue","red"],"door_color_assignment":["white","black"],"door_generator_assignment":[0,1],"goal":3,"start":0,"action_noise":0,"location_history":"[0,1,3]","action_history":"[1,0]","door_history":"[1,0]","location_rts":"[1749,274]","trial_type":"two-door-navigation","trial_index":35,"time_elapsed":761540,"internal_node_id":"0.0-2.0-33.0"},{"group":"hexagon_tri","room_assignment":["purple","grey","yellow","green","blue","red"],"door_color_assignment":["white","black"],"door_generator_assignment":[0,1],"goal":1,"start":3,"action_noise":0,"location_history":"[3,2,3,2,1]","action_history":"[0,1,0,0]","door_history":"[0,1,0,0]","location_rts":"[3888,892,2331,292]","trial_type":"two-door-navigation","trial_index":36,"time_elapsed":777034,"internal_node_id":"0.0-2.0-34.0"},{"group":"hexagon_tri","room_assignment":["purple","grey","yellow","green","blue","red"],"door_color_assignment":["white","black"],"door_generator_assignment":[0,1],"goal":2,"start":1,"action_noise":0,"location_history":"[1,3,4,0,1,3,2]","action_history":"[0,1,0,1,0,0]","door_history":"[0,1,0,1,0,0]","location_rts":"[3578,1992,641,794,1533,1384]","trial_type":"two-door-navigation","trial_index":37,"time_elapsed":797085,"internal_node_id":"0.0-2.0-35.0"},{"group":"hexagon_tri","room_assignment":["purple","grey","yellow","green","blue","red"],"door_color_assignment":["white","black"],"door_generator_assignment":[0,1],"goal":4,"start":2,"action_noise":0,"location_history":"[2,3,4]","action_history":"[1,1]","door_history":"[1,1]","location_rts":"[3047,4595]","trial_type":"two-door-navigation","trial_index":38,"time_elapsed":810775,"internal_node_id":"0.0-2.0-36.0"},{"group":"hexagon_tri","room_assignment":["purple","grey","yellow","green","blue","red"],"door_color_assignment":["white","black"],"door_generator_assignment":[0,1],"goal":5,"start":4,"action_noise":0,"location_history":"[4,0,1,5]","action_history":"[0,1,1]","door_history":"[0,1,1]","location_rts":"[1369,942,838]","trial_type":"two-door-navigation","trial_index":39,"time_elapsed":820997,"internal_node_id":"0.0-2.0-37.0"},{"group":"hexagon_tri","room_assignment":["purple","grey","yellow","green","blue","red"],"door_color_assignment":["white","black"],"door_generator_assignment":[0,1],"goal":1,"start":5,"action_noise":0,"location_history":"[5,4,0,1]","action_history":"[0,0,1]","door_history":"[0,0,1]","location_rts":"[1567,958,953]","trial_type":"two-door-navigation","trial_index":40,"time_elapsed":831534,"internal_node_id":"0.0-2.0-38.0"},{"group":"hexagon_tri","room_assignment":["purple","grey","yellow","green","blue","red"],"door_color_assignment":["white","black"],"door_generator_assignment":[0,1],"goal":4,"start":1,"action_noise":0,"location_history":"[1,3,4]","action_history":"[0,1]","door_history":"[0,1]","location_rts":"[2719,581]","trial_type":"two-door-navigation","trial_index":41,"time_elapsed":840893,"internal_node_id":"0.0-2.0-39.0"},{"group":"hexagon_tri","room_assignment":["purple","grey","yellow","green","blue","red"],"door_color_assignment":["white","black"],"door_generator_assignment":[0,1],"goal":3,"start":4,"action_noise":0,"location_history":"[4,2,3]","action_history":"[1,1]","door_history":"[1,1]","location_rts":"[2258,1492]","trial_type":"two-door-navigation","trial_index":42,"time_elapsed":850686,"internal_node_id":"0.0-2.0-40.0"},{"group":"hexagon_tri","room_assignment":["purple","grey","yellow","green","blue","red"],"door_color_assignment":["white","black"],"door_generator_assignment":[0,1],"goal":2,"start":3,"action_noise":0,"location_history":"[3,4,0,1,3,2]","action_history":"[1,0,1,0,0]","door_history":"[1,0,1,0,0]","location_rts":"[2275,1377,750,921,1021]","trial_type":"two-door-navigation","trial_index":43,"time_elapsed":866134,"internal_node_id":"0.0-2.0-41.0"},{"group":"hexagon_tri","room_assignment":["purple","grey","yellow","green","blue","red"],"door_color_assignment":["white","black"],"door_generator_assignment":[0,1],"goal":0,"start":2,"action_noise":0,"location_history":"[2,3,4,0]","action_history":"[1,1,0]","door_history":"[1,1,0]","location_rts":"[1595,1134,598]","trial_type":"two-door-navigation","trial_index":44,"time_elapsed":876525,"internal_node_id":"0.0-2.0-42.0"},{"group":"hexagon_tri","room_assignment":["purple","grey","yellow","green","blue","red"],"door_color_assignment":["white","black"],"door_generator_assignment":[0,1],"goal":5,"start":0,"action_noise":0,"location_history":"[0,1,5]","action_history":"[1,1]","door_history":"[1,1]","location_rts":"[2864,884]","trial_type":"two-door-navigation","trial_index":45,"time_elapsed":886320,"internal_node_id":"0.0-2.0-43.0"},{"group":"hexagon_tri","room_assignment":["purple","grey","yellow","green","blue","red"],"door_color_assignment":["white","black"],"door_generator_assignment":[0,1],"goal":0,"start":5,"action_noise":0,"location_history":"[5,0]","action_history":"[1]","door_history":"[1]","location_rts":"[1982]","trial_type":"two-door-navigation","trial_index":46,"time_elapsed":893333,"internal_node_id":"0.0-2.0-44.0"},{"group":"hexagon_tri","room_assignment":["purple","grey","yellow","green","blue","red"],"door_color_assignment":["white","black"],"door_generator_assignment":[0,1],"goal":2,"start":0,"action_noise":0,"location_history":"[0,1,3,2]","action_history":"[1,0,0]","door_history":"[1,0,0]","location_rts":"[1133,329,674]","trial_type":"two-door-navigation","trial_index":47,"time_elapsed":902531,"internal_node_id":"0.0-2.0-45.0"},{"group":"hexagon_tri","room_assignment":["purple","grey","yellow","green","blue","red"],"door_color_assignment":["white","black"],"door_generator_assignment":[0,1],"goal":4,"start":2,"action_noise":0,"location_history":"[2,3,4]","action_history":"[1,1]","door_history":"[1,1]","location_rts":"[941,1009]","trial_type":"two-door-navigation","trial_index":48,"time_elapsed":910527,"internal_node_id":"0.0-2.0-46.0"},{"group":"hexagon_tri","room_assignment":["purple","grey","yellow","green","blue","red"],"door_color_assignment":["white","black"],"door_generator_assignment":[0,1],"goal":1,"start":4,"action_noise":0,"location_history":"[4,0,1]","action_history":"[0,1]","door_history":"[0,1]","location_rts":"[1392,910]","trial_type":"two-door-navigation","trial_index":49,"time_elapsed":918869,"internal_node_id":"0.0-2.0-47.0"},{"group":"hexagon_tri","room_assignment":["purple","grey","yellow","green","blue","red"],"door_color_assignment":["white","black"],"door_generator_assignment":[0,1],"goal":5,"start":1,"action_noise":0,"location_history":"[1,5]","action_history":"[1]","door_history":"[1]","location_rts":"[4075]","trial_type":"two-door-navigation","trial_index":50,"time_elapsed":927969,"internal_node_id":"0.0-2.0-48.0"},{"group":"hexagon_tri","room_assignment":["purple","grey","yellow","green","blue","red"],"door_color_assignment":["white","black"],"door_generator_assignment":[0,1],"goal":3,"start":5,"action_noise":0,"location_history":"[5,4,0,1,3]","action_history":"[0,0,1,0]","door_history":"[0,0,1,0]","location_rts":"[4403,594,466,1211]","trial_type":"two-door-navigation","trial_index":51,"time_elapsed":942731,"internal_node_id":"0.0-2.0-49.0"},{"view_history":"[{\"page_index\":0,\"viewing_time\":2286}]","rt":2287,"trial_type":"instructions","trial_index":52,"time_elapsed":946019,"internal_node_id":"0.0-3.0"},{"view_history":"[{\"page_index\":0,\"viewing_time\":1727},{\"page_index\":1,\"viewing_time\":7559}]","rt":9286,"trial_type":"instructions","trial_index":53,"time_elapsed":956305,"internal_node_id":"0.0-4.0"},{"group":"hexagon_bi","fractal_assignment":["../images/gry_blk.png","../images/pnk_blu.png","../images/org_blu.png","../images/cyn_red.png","../images/blu_wht.png","../images/ylw_slt.png"],"mutagen_generator_assignment":[0,1],"goal":3,"start":5,"action_noise":0,"location_history":"[5,0,5,4,3]","action_history":"[0,0,1,0]","mutagen_history":"[0,0,1,0]","location_rts":"[5394,1146,592,776]","trial_type":"fractal-mutation","trial_index":54,"time_elapsed":972344,"internal_node_id":"0.0-5.0-0.0"},{"group":"hexagon_bi","fractal_assignment":["../images/gry_blk.png","../images/pnk_blu.png","../images/org_blu.png","../images/cyn_red.png","../images/blu_wht.png","../images/ylw_slt.png"],"mutagen_generator_assignment":[0,1],"goal":1,"start":3,"action_noise":0,"location_history":"[3,2,3,2,1]","action_history":"[1,1,1,0]","mutagen_history":"[1,1,1,0]","location_rts":"[885,1447,874,122]","trial_type":"fractal-mutation","trial_index":55,"time_elapsed":983830,"internal_node_id":"0.0-5.0-1.0"},{"group":"hexagon_bi","fractal_assignment":["../images/gry_blk.png","../images/pnk_blu.png","../images/org_blu.png","../images/cyn_red.png","../images/blu_wht.png","../images/ylw_slt.png"],"mutagen_generator_assignment":[0,1],"goal":0,"start":1,"action_noise":0,"location_history":"[1,0]","action_history":"[1]","mutagen_history":"[1]","location_rts":"[6956]","trial_type":"fractal-mutation","trial_index":56,"time_elapsed":995847,"internal_node_id":"0.0-5.0-2.0"},{"group":"hexagon_bi","fractal_assignment":["../images/gry_blk.png","../images/pnk_blu.png","../images/org_blu.png","../images/cyn_red.png","../images/blu_wht.png","../images/ylw_slt.png"],"mutagen_generator_assignment":[0,1],"goal":3,"start":0,"action_noise":0,"location_history":"[0,5,0,1,2,1,0,1,0,5,4,3]","action_history":"[0,0,1,0,0,1,1,1,0,1,0]","mutagen_history":"[0,0,1,0,0,1,1,1,0,1,0]","location_rts":"[1220,1307,889,689,1156,551,395,616,542,845,399]","trial_type":"fractal-mutation","trial_index":57,"time_elapsed":1019826,"internal_node_id":"0.0-5.0-3.0"},{"group":"hexagon_bi","fractal_assignment":["../images/gry_blk.png","../images/pnk_blu.png","../images/org_blu.png","../images/cyn_red.png","../images/blu_wht.png","../images/ylw_slt.png"],"mutagen_generator_assignment":[0,1],"goal":4,"start":3,"action_noise":0,"location_history":"[3,2,3,4]","action_history":"[1,1,0]","mutagen_history":"[1,1,0]","location_rts":"[2428,972,415]","trial_type":"fractal-mutation","trial_index":58,"time_elapsed":1030740,"internal_node_id":"0.0-5.0-4.0"},{"group":"hexagon_bi","fractal_assignment":["../images/gry_blk.png","../images/pnk_blu.png","../images/org_blu.png","../images/cyn_red.png","../images/blu_wht.png","../images/ylw_slt.png"],"mutagen_generator_assignment":[0,1],"goal":2,"start":4,"action_noise":0,"location_history":"[4,5,0,5,4,5,0,5,0,5,0,1,2]","action_history":"[1,0,0,1,1,0,0,0,0,0,1,0]","mutagen_history":"[1,0,0,1,1,0,0,0,0,0,1,0]","location_rts":"[21054,2461,841,178,858,650,799,706,442,225,43,791]","trial_type":"fractal-mutation","trial_index":59,"time_elapsed":1076155,"internal_node_id":"0.0-5.0-5.0"},{"group":"hexagon_bi","fractal_assignment":["../images/gry_blk.png","../images/pnk_blu.png","../images/org_blu.png","../images/cyn_red.png","../images/blu_wht.png","../images/ylw_slt.png"],"mutagen_generator_assignment":[0,1],"goal":1,"start":2,"action_noise":0,"location_history":"[2,1]","action_history":"[0]","mutagen_history":"[0]","location_rts":"[1189]","trial_type":"fractal-mutation","trial_index":60,"time_elapsed":1082374,"internal_node_id":"0.0-5.0-6.0"},{"group":"hexagon_bi","fractal_assignment":["../images/gry_blk.png","../images/pnk_blu.png","../images/org_blu.png","../images/cyn_red.png","../images/blu_wht.png","../images/ylw_slt.png"],"mutagen_generator_assignment":[0,1],"goal":5,"start":1,"action_noise":0,"location_history":"[1,0,5]","action_history":"[1,0]","mutagen_history":"[1,0]","location_rts":"[1407,1196]","trial_type":"fractal-mutation","trial_index":61,"time_elapsed":1091041,"internal_node_id":"0.0-5.0-7.0"},{"group":"hexagon_bi","fractal_assignment":["../images/gry_blk.png","../images/pnk_blu.png","../images/org_blu.png","../images/cyn_red.png","../images/blu_wht.png","../images/ylw_slt.png"],"mutagen_generator_assignment":[0,1],"goal":4,"start":5,"action_noise":0,"location_history":"[5,4]","action_history":"[1]","mutagen_history":"[1]","location_rts":"[2159]","trial_type":"fractal-mutation","trial_index":62,"time_elapsed":1098242,"internal_node_id":"0.0-5.0-8.0"},{"group":"hexagon_bi","fractal_assignment":["../images/gry_blk.png","../images/pnk_blu.png","../images/org_blu.png","../images/cyn_red.png","../images/blu_wht.png","../images/ylw_slt.png"],"mutagen_generator_assignment":[0,1],"goal":2,"start":4,"action_noise":0,"location_history":"[4,5,0,1,2]","action_history":"[1,0,1,0]","mutagen_history":"[1,0,1,0]","location_rts":"[3251,808,549,2611]","trial_type":"fractal-mutation","trial_index":63,"time_elapsed":1113591,"internal_node_id":"0.0-5.0-9.0"},{"group":"hexagon_bi","fractal_assignment":["../images/gry_blk.png","../images/pnk_blu.png","../images/org_blu.png","../images/cyn_red.png","../images/blu_wht.png","../images/ylw_slt.png"],"mutagen_generator_assignment":[0,1],"goal":0,"start":2,"action_noise":0,"location_history":"[2,3,4,5,0]","action_history":"[1,0,1,0]","mutagen_history":"[1,0,1,0]","location_rts":"[3903,620,1527,1824]","trial_type":"fractal-mutation","trial_index":64,"time_elapsed":1129594,"internal_node_id":"0.0-5.0-10.0"},{"group":"hexagon_bi","fractal_assignment":["../images/gry_blk.png","../images/pnk_blu.png","../images/org_blu.png","../images/cyn_red.png","../images/blu_wht.png","../images/ylw_slt.png"],"mutagen_generator_assignment":[0,1],"goal":1,"start":0,"action_noise":0,"location_history":"[0,1]","action_history":"[1]","mutagen_history":"[1]","location_rts":"[13579]","trial_type":"fractal-mutation","trial_index":65,"time_elapsed":1148214,"internal_node_id":"0.0-5.0-11.0"},{"group":"hexagon_bi","fractal_assignment":["../images/gry_blk.png","../images/pnk_blu.png","../images/org_blu.png","../images/cyn_red.png","../images/blu_wht.png","../images/ylw_slt.png"],"mutagen_generator_assignment":[0,1],"goal":3,"start":1,"action_noise":0,"location_history":"[1,0,5,4,3]","action_history":"[1,0,1,0]","mutagen_history":"[1,0,1,0]","location_rts":"[2425,311,1102,224]","trial_type":"fractal-mutation","trial_index":66,"time_elapsed":1160400,"internal_node_id":"0.0-5.0-12.0"},{"group":"hexagon_bi","fractal_assignment":["../images/gry_blk.png","../images/pnk_blu.png","../images/org_blu.png","../images/cyn_red.png","../images/blu_wht.png","../images/ylw_slt.png"],"mutagen_generator_assignment":[0,1],"goal":5,"start":3,"action_noise":0,"location_history":"[3,4,5]","action_history":"[0,1]","mutagen_history":"[0,1]","location_rts":"[7759,939]","trial_type":"fractal-mutation","trial_index":67,"time_elapsed":1175162,"internal_node_id":"0.0-5.0-13.0"},{"group":"hexagon_bi","fractal_assignment":["../images/gry_blk.png","../images/pnk_blu.png","../images/org_blu.png","../images/cyn_red.png","../images/blu_wht.png","../images/ylw_slt.png"],"mutagen_generator_assignment":[0,1],"goal":4,"start":5,"action_noise":0,"location_history":"[5,4]","action_history":"[1]","mutagen_history":"[1]","location_rts":"[8699]","trial_type":"fractal-mutation","trial_index":68,"time_elapsed":1188901,"internal_node_id":"0.0-5.0-14.0"},{"group":"hexagon_bi","fractal_assignment":["../images/gry_blk.png","../images/pnk_blu.png","../images/org_blu.png","../images/cyn_red.png","../images/blu_wht.png","../images/ylw_slt.png"],"mutagen_generator_assignment":[0,1],"goal":0,"start":4,"action_noise":0,"location_history":"[4,5,0]","action_history":"[1,0]","mutagen_history":"[1,0]","location_rts":"[1663,340]","trial_type":"fractal-mutation","trial_index":69,"time_elapsed":1196978,"internal_node_id":"0.0-5.0-15.0"},{"group":"hexagon_bi","fractal_assignment":["../images/gry_blk.png","../images/pnk_blu.png","../images/org_blu.png","../images/cyn_red.png","../images/blu_wht.png","../images/ylw_slt.png"],"mutagen_generator_assignment":[0,1],"goal":3,"start":0,"action_noise":0,"location_history":"[0,1,2,3]","action_history":"[1,0,1]","mutagen_history":"[1,0,1]","location_rts":"[2643,1072,1337]","trial_type":"fractal-mutation","trial_index":70,"time_elapsed":1209141,"internal_node_id":"0.0-5.0-16.0"},{"group":"hexagon_bi","fractal_assignment":["../images/gry_blk.png","../images/pnk_blu.png","../images/org_blu.png","../images/cyn_red.png","../images/blu_wht.png","../images/ylw_slt.png"],"mutagen_generator_assignment":[0,1],"goal":1,"start":3,"action_noise":0,"location_history":"[3,2,1]","action_history":"[1,0]","mutagen_history":"[1,0]","location_rts":"[1694,884]","trial_type":"fractal-mutation","trial_index":71,"time_elapsed":1217792,"internal_node_id":"0.0-5.0-17.0"},{"group":"hexagon_bi","fractal_assignment":["../images/gry_blk.png","../images/pnk_blu.png","../images/org_blu.png","../images/cyn_red.png","../images/blu_wht.png","../images/ylw_slt.png"],"mutagen_generator_assignment":[0,1],"goal":5,"start":1,"action_noise":0,"location_history":"[1,2,3,4,5]","action_history":"[0,1,0,1]","mutagen_history":"[0,1,0,1]","location_rts":"[2828,808,895,913]","trial_type":"fractal-mutation","trial_index":72,"time_elapsed":1231358,"internal_node_id":"0.0-5.0-18.0"},{"group":"hexagon_bi","fractal_assignment":["../images/gry_blk.png","../images/pnk_blu.png","../images/org_blu.png","../images/cyn_red.png","../images/blu_wht.png","../images/ylw_slt.png"],"mutagen_generator_assignment":[0,1],"goal":2,"start":5,"action_noise":0,"location_history":"[5,0,1,2]","action_history":"[0,1,0]","mutagen_history":"[0,1,0]","location_rts":"[2969,1492,648]","trial_type":"fractal-mutation","trial_index":73,"time_elapsed":1243594,"internal_node_id":"0.0-5.0-19.0"},{"group":"hexagon_bi","fractal_assignment":["../images/gry_blk.png","../images/pnk_blu.png","../images/org_blu.png","../images/cyn_red.png","../images/blu_wht.png","../images/ylw_slt.png"],"mutagen_generator_assignment":[0,1],"goal":4,"start":2,"action_noise":0,"location_history":"[2,1,0,5,4]","action_history":"[0,1,0,1]","mutagen_history":"[0,1,0,1]","location_rts":"[1969,796,534,1912]","trial_type":"fractal-mutation","trial_index":74,"time_elapsed":1256924,"internal_node_id":"0.0-5.0-20.0"},{"group":"hexagon_bi","fractal_assignment":["../images/gry_blk.png","../images/pnk_blu.png","../images/org_blu.png","../images/cyn_red.png","../images/blu_wht.png","../images/ylw_slt.png"],"mutagen_generator_assignment":[0,1],"goal":1,"start":4,"action_noise":0,"location_history":"[4,3,2,1]","action_history":"[0,1,0]","mutagen_history":"[0,1,0]","location_rts":"[1357,1689,535]","trial_type":"fractal-mutation","trial_index":75,"time_elapsed":1267627,"internal_node_id":"0.0-5.0-21.0"},{"group":"hexagon_bi","fractal_assignment":["../images/gry_blk.png","../images/pnk_blu.png","../images/org_blu.png","../images/cyn_red.png","../images/blu_wht.png","../images/ylw_slt.png"],"mutagen_generator_assignment":[0,1],"goal":3,"start":1,"action_noise":0,"location_history":"[1,0,1,0,5,0,5,4,3]","action_history":"[1,1,1,0,0,0,1,0]","mutagen_history":"[1,1,1,0,0,0,1,0]","location_rts":"[1827,1595,1132,178,907,298,125,721]","trial_type":"fractal-mutation","trial_index":76,"time_elapsed":1286685,"internal_node_id":"0.0-5.0-22.0"},{"group":"hexagon_bi","fractal_assignment":["../images/gry_blk.png","../images/pnk_blu.png","../images/org_blu.png","../images/cyn_red.png","../images/blu_wht.png","../images/ylw_slt.png"],"mutagen_generator_assignment":[0,1],"goal":2,"start":3,"action_noise":0,"location_history":"[3,2]","action_history":"[1]","mutagen_history":"[1]","location_rts":"[998]","trial_type":"fractal-mutation","trial_index":77,"time_elapsed":1292726,"internal_node_id":"0.0-5.0-23.0"},{"group":"hexagon_bi","fractal_assignment":["../images/gry_blk.png","../images/pnk_blu.png","../images/org_blu.png","../images/cyn_red.png","../images/blu_wht.png","../images/ylw_slt.png"],"mutagen_generator_assignment":[0,1],"goal":0,"start":2,"action_noise":0,"location_history":"[2,1,0]","action_history":"[0,1]","mutagen_history":"[0,1]","location_rts":"[1011,880]","trial_type":"fractal-mutation","trial_index":78,"time_elapsed":1300687,"internal_node_id":"0.0-5.0-24.0"},{"group":"hexagon_bi","fractal_assignment":["../images/gry_blk.png","../images/pnk_blu.png","../images/org_blu.png","../images/cyn_red.png","../images/blu_wht.png","../images/ylw_slt.png"],"mutagen_generator_assignment":[0,1],"goal":5,"start":0,"action_noise":0,"location_history":"[0,5]","action_history":"[0]","mutagen_history":"[0]","location_rts":"[1335]","trial_type":"fractal-mutation","trial_index":79,"time_elapsed":1307057,"internal_node_id":"0.0-5.0-25.0"},{"group":"hexagon_bi","fractal_assignment":["../images/gry_blk.png","../images/pnk_blu.png","../images/org_blu.png","../images/cyn_red.png","../images/blu_wht.png","../images/ylw_slt.png"],"mutagen_generator_assignment":[0,1],"goal":2,"start":5,"action_noise":0,"location_history":"[5,0,1,2]","action_history":"[0,1,0]","mutagen_history":"[0,1,0]","location_rts":"[3188,989,968]","trial_type":"fractal-mutation","trial_index":80,"time_elapsed":1319288,"internal_node_id":"0.0-5.0-26.0"},{"group":"hexagon_bi","fractal_assignment":["../images/gry_blk.png","../images/pnk_blu.png","../images/org_blu.png","../images/cyn_red.png","../images/blu_wht.png","../images/ylw_slt.png"],"mutagen_generator_assignment":[0,1],"goal":3,"start":2,"action_noise":0,"location_history":"[2,3]","action_history":"[1]","mutagen_history":"[1]","location_rts":"[1634]","trial_type":"fractal-mutation","trial_index":81,"time_elapsed":1325968,"internal_node_id":"0.0-5.0-27.0"},{"group":"hexagon_bi","fractal_assignment":["../images/gry_blk.png","../images/pnk_blu.png","../images/org_blu.png","../images/cyn_red.png","../images/blu_wht.png","../images/ylw_slt.png"],"mutagen_generator_assignment":[0,1],"goal":0,"start":3,"action_noise":0,"location_history":"[3,4,5,0]","action_history":"[0,1,0]","mutagen_history":"[0,1,0]","location_rts":"[703,1476,911]","trial_type":"fractal-mutation","trial_index":82,"time_elapsed":1336144,"internal_node_id":"0.0-5.0-28.0"},{"group":"hexagon_bi","fractal_assignment":["../images/gry_blk.png","../images/pnk_blu.png","../images/org_blu.png","../images/cyn_red.png","../images/blu_wht.png","../images/ylw_slt.png"],"mutagen_generator_assignment":[0,1],"goal":1,"start":0,"action_noise":0,"location_history":"[0,1]","action_history":"[1]","mutagen_history":"[1]","location_rts":"[982]","trial_type":"fractal-mutation","trial_index":83,"time_elapsed":1342158,"internal_node_id":"0.0-5.0-29.0"},{"group":"hexagon_bi","fractal_assignment":["../images/gry_blk.png","../images/pnk_blu.png","../images/org_blu.png","../images/cyn_red.png","../images/blu_wht.png","../images/ylw_slt.png"],"mutagen_generator_assignment":[0,1],"goal":4,"start":1,"action_noise":0,"location_history":"[1,0,5,4]","action_history":"[1,0,1]","mutagen_history":"[1,0,1]","location_rts":"[1255,211,722]","trial_type":"fractal-mutation","trial_index":84,"time_elapsed":1351459,"internal_node_id":"0.0-5.0-30.0"},{"group":"hexagon_bi","fractal_assignment":["../images/gry_blk.png","../images/pnk_blu.png","../images/org_blu.png","../images/cyn_red.png","../images/blu_wht.png","../images/ylw_slt.png"],"mutagen_generator_assignment":[0,1],"goal":5,"start":4,"action_noise":0,"location_history":"[4,5]","action_history":"[1]","mutagen_history":"[1]","location_rts":"[2100]","trial_type":"fractal-mutation","trial_index":85,"time_elapsed":1358603,"internal_node_id":"0.0-5.0-31.0"},{"group":"hexagon_bi","fractal_assignment":["../images/gry_blk.png","../images/pnk_blu.png","../images/org_blu.png","../images/cyn_red.png","../images/blu_wht.png","../images/ylw_slt.png"],"mutagen_generator_assignment":[0,1],"goal":0,"start":5,"action_noise":0,"location_history":"[5,0]","action_history":"[0]","mutagen_history":"[0]","location_rts":"[1889]","trial_type":"fractal-mutation","trial_index":86,"time_elapsed":1365525,"internal_node_id":"0.0-5.0-32.0"},{"group":"hexagon_bi","fractal_assignment":["../images/gry_blk.png","../images/pnk_blu.png","../images/org_blu.png","../images/cyn_red.png","../images/blu_wht.png","../images/ylw_slt.png"],"mutagen_generator_assignment":[0,1],"goal":3,"start":0,"action_noise":0,"location_history":"[0,1,2,3]","action_history":"[1,0,1]","mutagen_history":"[1,0,1]","location_rts":"[1222,1225,727]","trial_type":"fractal-mutation","trial_index":87,"time_elapsed":1375809,"internal_node_id":"0.0-5.0-33.0"},{"group":"hexagon_bi","fractal_assignment":["../images/gry_blk.png","../images/pnk_blu.png","../images/org_blu.png","../images/cyn_red.png","../images/blu_wht.png","../images/ylw_slt.png"],"mutagen_generator_assignment":[0,1],"goal":1,"start":3,"action_noise":0,"location_history":"[3,2,1]","action_history":"[1,0]","mutagen_history":"[1,0]","location_rts":"[2551,1386]","trial_type":"fractal-mutation","trial_index":88,"time_elapsed":1385806,"internal_node_id":"0.0-5.0-34.0"},{"group":"hexagon_bi","fractal_assignment":["../images/gry_blk.png","../images/pnk_blu.png","../images/org_blu.png","../images/cyn_red.png","../images/blu_wht.png","../images/ylw_slt.png"],"mutagen_generator_assignment":[0,1],"goal":2,"start":1,"action_noise":0,"location_history":"[1,2]","action_history":"[0]","mutagen_history":"[0]","location_rts":"[1464]","trial_type":"fractal-mutation","trial_index":89,"time_elapsed":1392309,"internal_node_id":"0.0-5.0-35.0"},{"group":"hexagon_bi","fractal_assignment":["../images/gry_blk.png","../images/pnk_blu.png","../images/org_blu.png","../images/cyn_red.png","../images/blu_wht.png","../images/ylw_slt.png"],"mutagen_generator_assignment":[0,1],"goal":4,"start":2,"action_noise":0,"location_history":"[2,3,4]","action_history":"[1,0]","mutagen_history":"[1,0]","location_rts":"[1459,681]","trial_type":"fractal-mutation","trial_index":90,"time_elapsed":1400511,"internal_node_id":"0.0-5.0-36.0"},{"group":"hexagon_bi","fractal_assignment":["../images/gry_blk.png","../images/pnk_blu.png","../images/org_blu.png","../images/cyn_red.png","../images/blu_wht.png","../images/ylw_slt.png"],"mutagen_generator_assignment":[0,1],"goal":5,"start":4,"action_noise":0,"location_history":"[4,5]","action_history":"[1]","mutagen_history":"[1]","location_rts":"[1754]","trial_type":"fractal-mutation","trial_index":91,"time_elapsed":1407298,"internal_node_id":"0.0-5.0-37.0"},{"group":"hexagon_bi","fractal_assignment":["../images/gry_blk.png","../images/pnk_blu.png","../images/org_blu.png","../images/cyn_red.png","../images/blu_wht.png","../images/ylw_slt.png"],"mutagen_generator_assignment":[0,1],"goal":1,"start":5,"action_noise":0,"location_history":"[5,4,3,2,1]","action_history":"[1,0,1,0]","mutagen_history":"[1,0,1,0]","location_rts":"[1910,431,183,716]","trial_type":"fractal-mutation","trial_index":92,"time_elapsed":1418675,"internal_node_id":"0.0-5.0-38.0"},{"group":"hexagon_bi","fractal_assignment":["../images/gry_blk.png","../images/pnk_blu.png","../images/org_blu.png","../images/cyn_red.png","../images/blu_wht.png","../images/ylw_slt.png"],"mutagen_generator_assignment":[0,1],"goal":4,"start":1,"action_noise":0,"location_history":"[1,0,5,4]","action_history":"[1,0,1]","mutagen_history":"[1,0,1]","location_rts":"[10033,1297,809]","trial_type":"fractal-mutation","trial_index":93,"time_elapsed":1437928,"internal_node_id":"0.0-5.0-39.0"},{"group":"hexagon_bi","fractal_assignment":["../images/gry_blk.png","../images/pnk_blu.png","../images/org_blu.png","../images/cyn_red.png","../images/blu_wht.png","../images/ylw_slt.png"],"mutagen_generator_assignment":[0,1],"goal":3,"start":4,"action_noise":0,"location_history":"[4,3]","action_history":"[0]","mutagen_history":"[0]","location_rts":"[1028]","trial_type":"fractal-mutation","trial_index":94,"time_elapsed":1443988,"internal_node_id":"0.0-5.0-40.0"},{"group":"hexagon_bi","fractal_assignment":["../images/gry_blk.png","../images/pnk_blu.png","../images/org_blu.png","../images/cyn_red.png","../images/blu_wht.png","../images/ylw_slt.png"],"mutagen_generator_assignment":[0,1],"goal":2,"start":3,"action_noise":0,"location_history":"[3,2]","action_history":"[1]","mutagen_history":"[1]","location_rts":"[1154]","trial_type":"fractal-mutation","trial_index":95,"time_elapsed":1450180,"internal_node_id":"0.0-5.0-41.0"},{"group":"hexagon_bi","fractal_assignment":["../images/gry_blk.png","../images/pnk_blu.png","../images/org_blu.png","../images/cyn_red.png","../images/blu_wht.png","../images/ylw_slt.png"],"mutagen_generator_assignment":[0,1],"goal":0,"start":2,"action_noise":0,"location_history":"[2,3,4,5,0]","action_history":"[1,0,1,0]","mutagen_history":"[1,0,1,0]","location_rts":"[2407,1179,891,164]","trial_type":"fractal-mutation","trial_index":96,"time_elapsed":1462948,"internal_node_id":"0.0-5.0-42.0"},{"group":"hexagon_bi","fractal_assignment":["../images/gry_blk.png","../images/pnk_blu.png","../images/org_blu.png","../images/cyn_red.png","../images/blu_wht.png","../images/ylw_slt.png"],"mutagen_generator_assignment":[0,1],"goal":5,"start":0,"action_noise":0,"location_history":"[0,5]","action_history":"[0]","mutagen_history":"[0]","location_rts":"[1571]","trial_type":"fractal-mutation","trial_index":97,"time_elapsed":1469554,"internal_node_id":"0.0-5.0-43.0"},{"group":"hexagon_bi","fractal_assignment":["../images/gry_blk.png","../images/pnk_blu.png","../images/org_blu.png","../images/cyn_red.png","../images/blu_wht.png","../images/ylw_slt.png"],"mutagen_generator_assignment":[0,1],"goal":0,"start":5,"action_noise":0,"location_history":"[5,0]","action_history":"[0]","mutagen_history":"[0]","location_rts":"[995]","trial_type":"fractal-mutation","trial_index":98,"time_elapsed":1475584,"internal_node_id":"0.0-5.0-44.0"},{"group":"hexagon_bi","fractal_assignment":["../images/gry_blk.png","../images/pnk_blu.png","../images/org_blu.png","../images/cyn_red.png","../images/blu_wht.png","../images/ylw_slt.png"],"mutagen_generator_assignment":[0,1],"goal":2,"start":0,"action_noise":0,"location_history":"[0,5,4,3,2]","action_history":"[0,1,0,1]","mutagen_history":"[0,1,0,1]","location_rts":"[2990,10097,1309,231]","trial_type":"fractal-mutation","trial_index":99,"time_elapsed":1498345,"internal_node_id":"0.0-5.0-45.0"},{"group":"hexagon_bi","fractal_assignment":["../images/gry_blk.png","../images/pnk_blu.png","../images/org_blu.png","../images/cyn_red.png","../images/blu_wht.png","../images/ylw_slt.png"],"mutagen_generator_assignment":[0,1],"goal":4,"start":2,"action_noise":0,"location_history":"[2,3,4]","action_history":"[1,0]","mutagen_history":"[1,0]","location_rts":"[2213,675]","trial_type":"fractal-mutation","trial_index":100,"time_elapsed":1507312,"internal_node_id":"0.0-5.0-46.0"},{"group":"hexagon_bi","fractal_assignment":["../images/gry_blk.png","../images/pnk_blu.png","../images/org_blu.png","../images/cyn_red.png","../images/blu_wht.png","../images/ylw_slt.png"],"mutagen_generator_assignment":[0,1],"goal":1,"start":4,"action_noise":0,"location_history":"[4,5,0,1]","action_history":"[1,0,1]","mutagen_history":"[1,0,1]","location_rts":"[1828,2616,787]","trial_type":"fractal-mutation","trial_index":101,"time_elapsed":1519645,"internal_node_id":"0.0-5.0-47.0"},{"group":"hexagon_bi","fractal_assignment":["../images/gry_blk.png","../images/pnk_blu.png","../images/org_blu.png","../images/cyn_red.png","../images/blu_wht.png","../images/ylw_slt.png"],"mutagen_generator_assignment":[0,1],"goal":5,"start":1,"action_noise":0,"location_history":"[1,0,5]","action_history":"[1,0]","mutagen_history":"[1,0]","location_rts":"[2345,909]","trial_type":"fractal-mutation","trial_index":102,"time_elapsed":1528963,"internal_node_id":"0.0-5.0-48.0"},{"group":"hexagon_bi","fractal_assignment":["../images/gry_blk.png","../images/pnk_blu.png","../images/org_blu.png","../images/cyn_red.png","../images/blu_wht.png","../images/ylw_slt.png"],"mutagen_generator_assignment":[0,1],"goal":3,"start":5,"action_noise":0,"location_history":"[5,4,3]","action_history":"[1,0]","mutagen_history":"[1,0]","location_rts":"[1973,111]","trial_type":"fractal-mutation","trial_index":103,"time_elapsed":1537118,"internal_node_id":"0.0-5.0-49.0"},{"view_history":"[{\"page_index\":0,\"viewing_time\":5854}]","rt":5855,"trial_type":"instructions","trial_index":104,"time_elapsed":1543974,"internal_node_id":"0.0-6.0"},{"rt":1700,"responses":"{\"Q0\":\"\"}","trial_type":"survey-text","trial_index":105,"time_elapsed":1546678,"internal_node_id":"0.0-7.0"}]