[{"view_history":"[{\"page_index\":0,\"viewing_time\":1343},{\"page_index\":1,\"viewing_time\":10568}]","rt":11911,"trial_type":"instructions","trial_index":0,"time_elapsed":11912,"internal_node_id":"0.0-0.0"},{"view_history":"[{\"page_index\":0,\"viewing_time\":40144},{\"page_index\":1,\"viewing_time\":6732}]","rt":46876,"trial_type":"instructions","trial_index":1,"time_elapsed":59791,"internal_node_id":"0.0-1.0"},{"group":"hexagon_tri","room_assignment":["grey","green","blue","purple","red","yellow"],"door_color_assignment":["white","black"],"door_generator_assignment":[0,1],"goal":3,"start":5,"action_noise":0,"location_history":"[5,0,1,3]","action_history":"[1,1,0]","door_history":"[1,1,0]","location_rts":"[16106,5655,2493]","trial_type":"two-door-navigation","trial_index":2,"time_elapsed":91831,"internal_node_id":"0.0-2.0-0.0"},{"group":"hexagon_tri","room_assignment":["grey","green","blue","purple","red","yellow"],"door_color_assignment":["white","black"],"door_generator_assignment":[0,1],"goal":1,"start":3,"action_noise":0,"location_history":"[3,2,1]","action_history":"[0,0]","door_history":"[0,0]","location_rts":"[13306,548]","trial_type":"two-door-navigation","trial_index":3,"time_elapsed":112830,"internal_node_id":"0.0-2.0-1.0"},{"group":"hexagon_tri","room_assignment":["grey","green","blue","purple","red","yellow"],"door_color_assignment":["white","black"],"door_generator_assignment":[0,1],"goal":0,"start":1,"action_noise":0,"location_history":"[1,5,0]","action_history":"[1,1]","door_history":"[1,1]","location_rts":"[13991,305]","trial_type":"two-door-navigation","trial_index":4,"time_elapsed":134288,"internal_node_id":"0.0-2.0-2.0"},{"group":"hexagon_tri","room_assignment":["grey","green","blue","purple","red","yellow"],"door_color_assignment":["white","black"],"door_generator_assignment":[0,1],"goal":3,"start":0,"action_noise":0,"location_history":"[0,1,3]","action_history":"[1,0]","door_history":"[1,0]","location_rts":"[7288,429]","trial_type":"two-door-navigation","trial_index":5,"time_elapsed":148145,"internal_node_id":"0.0-2.0-3.0"},{"group":"hexagon_tri","room_assignment":["grey","green","blue","purple","red","yellow"],"door_color_assignment":["white","black"],"door_generator_assignment":[0,1],"goal":4,"start":3,"action_noise":0,"location_history":"[3,4]","action_history":"[1]","door_history":"[1]","location_rts":"[3274]","trial_type":"two-door-navigation","trial_index":6,"time_elapsed":156513,"internal_node_id":"0.0-2.0-4.0"},{"group":"hexagon_tri","room_assignment":["grey","green","blue","purple","red","yellow"],"door_color_assignment":["white","black"],"door_generator_assignment":[0,1],"goal":2,"start":4,"action_noise":0,"location_history":"[4,2]","action_history":"[1]","door_history":"[1]","location_rts":"[18175]","trial_type":"two-door-navigation","trial_index":7,"time_elapsed":179779,"internal_node_id":"0.0-2.0-5.0"},{"group":"hexagon_tri","room_assignment":["grey","green","blue","purple","red","yellow"],"door_color_assignment":["white","black"],"door_generator_assignment":[0,1],"goal":1,"start":2,"action_noise":0,"location_history":"[2,1]","action_history":"[0]","door_history":"[0]","location_rts":"[3671]","trial_type":"two-door-navigation","trial_index":8,"time_elapsed":188534,"internal_node_id":"0.0-2.0-6.0"},{"group":"hexagon_tri","room_assignment":["grey","green","blue","purple","red","yellow"],"door_color_assignment":["white","black"],"door_generator_assignment":[0,1],"goal":5,"start":1,"action_noise":0,"location_history":"[1,5]","action_history":"[1]","door_history":"[1]","location_rts":"[3224]","trial_type":"two-door-navigation","trial_index":9,"time_elapsed":196844,"internal_node_id":"0.0-2.0-7.0"},{"group":"hexagon_tri","room_assignment":["grey","green","blue","purple","red","yellow"],"door_color_assignment":["white","black"],"door_generator_assignment":[0,1],"goal":4,"start":5,"action_noise":0,"location_history":"[5,4]","action_history":"[0]","door_history":"[0]","location_rts":"[3495]","trial_type":"two-door-navigation","trial_index":10,"time_elapsed":205415,"internal_node_id":"0.0-2.0-8.0"},{"group":"hexagon_tri","room_assignment":["grey","green","blue","purple","red","yellow"],"door_color_assignment":["white","black"],"door_generator_assignment":[0,1],"goal":2,"start":4,"action_noise":0,"location_history":"[4,2]","action_history":"[1]","door_history":"[1]","location_rts":"[11430]","trial_type":"two-door-navigation","trial_index":11,"time_elapsed":221921,"internal_node_id":"0.0-2.0-9.0"},{"group":"hexagon_tri","room_assignment":["grey","green","blue","purple","red","yellow"],"door_color_assignment":["white","black"],"door_generator_assignment":[0,1],"goal":0,"start":2,"action_noise":0,"location_history":"[2,1,5,0]","action_history":"[0,1,1]","door_history":"[0,1,1]","location_rts":"[15996,2260,1991]","trial_type":"two-door-navigation","trial_index":12,"time_elapsed":250331,"internal_node_id":"0.0-2.0-10.0"},{"group":"hexagon_tri","room_assignment":["grey","green","blue","purple","red","yellow"],"door_color_assignment":["white","black"],"door_generator_assignment":[0,1],"goal":1,"start":0,"action_noise":0,"location_history":"[0,1]","action_history":"[1]","door_history":"[1]","location_rts":"[5492]","trial_type":"two-door-navigation","trial_index":13,"time_elapsed":260890,"internal_node_id":"0.0-2.0-11.0"},{"group":"hexagon_tri","room_assignment":["grey","green","blue","purple","red","yellow"],"door_color_assignment":["white","black"],"door_generator_assignment":[0,1],"goal":3,"start":1,"action_noise":0,"location_history":"[1,3]","action_history":"[0]","door_history":"[0]","location_rts":"[2863]","trial_type":"two-door-navigation","trial_index":14,"time_elapsed":268835,"internal_node_id":"0.0-2.0-12.0"},{"group":"hexagon_tri","room_assignment":["grey","green","blue","purple","red","yellow"],"door_color_assignment":["white","black"],"door_generator_assignment":[0,1],"goal":5,"start":3,"action_noise":0,"location_history":"[3,4,0,5]","action_history":"[1,0,0]","door_history":"[1,0,0]","location_rts":"[38831,1000,665]","trial_type":"two-door-navigation","trial_index":15,"time_elapsed":316829,"internal_node_id":"0.0-2.0-13.0"},{"group":"hexagon_tri","room_assignment":["grey","green","blue","purple","red","yellow"],"door_color_assignment":["white","black"],"door_generator_assignment":[0,1],"goal":4,"start":5,"action_noise":0,"location_history":"[5,4]","action_history":"[0]","door_history":"[0]","location_rts":"[23740]","trial_type":"two-door-navigation","trial_index":16,"time_elapsed":345997,"internal_node_id":"0.0-2.0-14.0"},{"group":"hexagon_tri","room_assignment":["grey","green","blue","purple","red","yellow"],"door_color_assignment":["white","black"],"door_generator_assignment":[0,1],"goal":0,"start":4,"action_noise":0,"location_history":"[4,0]","action_history":"[0]","door_history":"[0]","location_rts":"[4208]","trial_type":"two-door-navigation","trial_index":17,"time_elapsed":355297,"internal_node_id":"0.0-2.0-15.0"},{"group":"hexagon_tri","room_assignment":["grey","green","blue","purple","red","yellow"],"door_color_assignment":["white","black"],"door_generator_assignment":[0,1],"goal":3,"start":0,"action_noise":0,"location_history":"[0,1,3]","action_history":"[1,0]","door_history":"[1,0]","location_rts":"[11180,487]","trial_type":"two-door-navigation","trial_index":18,"time_elapsed":373831,"internal_node_id":"0.0-2.0-16.0"},{"group":"hexagon_tri","room_assignment":["grey","green","blue","purple","red","yellow"],"door_color_assignment":["white","black"],"door_generator_assignment":[0,1],"goal":1,"start":3,"action_noise":0,"location_history":"[3,2,1]","action_history":"[0,0]","door_history":"[0,0]","location_rts":"[515011,470]","trial_type":"two-door-navigation","trial_index":19,"time_elapsed":896840,"internal_node_id":"0.0-2.0-17.0"},{"group":"hexagon_tri","room_assignment":["grey","green","blue","purple","red","yellow"],"door_color_assignment":["white","black"],"door_generator_assignment":[0,1],"goal":5,"start":1,"action_noise":0,"location_history":"[1,5]","action_history":"[1]","door_history":"[1]","location_rts":"[176777]","trial_type":"two-door-navigation","trial_index":20,"time_elapsed":1078687,"internal_node_id":"0.0-2.0-18.0"},{"group":"hexagon_tri","room_assignment":["grey","green","blue","purple","red","yellow"],"door_color_assignment":["white","black"],"door_generator_assignment":[0,1],"goal":2,"start":5,"action_noise":0,"location_history":"[5,4,2]","action_history":"[0,1]","door_history":"[0,1]","location_rts":"[8718,684]","trial_type":"two-door-navigation","trial_index":21,"time_elapsed":1094218,"internal_node_id":"0.0-2.0-19.0"},{"group":"hexagon_tri","room_assignment":["grey","green","blue","purple","red","yellow"],"door_color_assignment":["white","black"],"door_generator_assignment":[0,1],"goal":4,"start":2,"action_noise":0,"location_history":"[2,3,4]","action_history":"[1,1]","door_history":"[1,1]","location_rts":"[7385,401]","trial_type":"two-door-navigation","trial_index":22,"time_elapsed":1108844,"internal_node_id":"0.0-2.0-20.0"},{"group":"hexagon_tri","room_assignment":["grey","green","blue","purple","red","yellow"],"door_color_assignment":["white","black"],"door_generator_assignment":[0,1],"goal":1,"start":4,"action_noise":0,"location_history":"[4,2,1]","action_history":"[1,0]","door_history":"[1,0]","location_rts":"[49849,424]","trial_type":"two-door-navigation","trial_index":23,"time_elapsed":1166272,"internal_node_id":"0.0-2.0-21.0"},{"group":"hexagon_tri","room_assignment":["grey","green","blue","purple","red","yellow"],"door_color_assignment":["white","black"],"door_generator_assignment":[0,1],"goal":3,"start":1,"action_noise":0,"location_history":"[1,3]","action_history":"[0]","door_history":"[0]","location_rts":"[69250]","trial_type":"two-door-navigation","trial_index":24,"time_elapsed":1240846,"internal_node_id":"0.0-2.0-22.0"},{"group":"hexagon_tri","room_assignment":["grey","green","blue","purple","red","yellow"],"door_color_assignment":["white","black"],"door_generator_assignment":[0,1],"goal":2,"start":3,"action_noise":0,"location_history":"[3,2]","action_history":"[0]","door_history":"[0]","location_rts":"[8968]","trial_type":"two-door-navigation","trial_index":25,"time_elapsed":1255904,"internal_node_id":"0.0-2.0-23.0"},{"group":"hexagon_tri","room_assignment":["grey","green","blue","purple","red","yellow"],"door_color_assignment":["white","black"],"door_generator_assignment":[0,1],"goal":0,"start":2,"action_noise":0,"location_history":"[2,1,5,0]","action_history":"[0,1,1]","door_history":"[0,1,1]","location_rts":"[26474,2206,360]","trial_type":"two-door-navigation","trial_index":26,"time_elapsed":1292149,"internal_node_id":"0.0-2.0-24.0"},{"group":"hexagon_tri","room_assignment":["grey","green","blue","purple","red","yellow"],"door_color_assignment":["white","black"],"door_generator_assignment":[0,1],"goal":5,"start":0,"action_noise":0,"location_history":"[0,5]","action_history":"[0]","door_history":"[0]","location_rts":"[20231]","trial_type":"two-door-navigation","trial_index":27,"time_elapsed":1319847,"internal_node_id":"0.0-2.0-25.0"},{"group":"hexagon_tri","room_assignment":["grey","green","blue","purple","red","yellow"],"door_color_assignment":["white","black"],"door_generator_assignment":[0,1],"goal":2,"start":5,"action_noise":0,"location_history":"[5,4,2]","action_history":"[0,1]","door_history":"[0,1]","location_rts":"[933928,318]","trial_type":"two-door-navigation","trial_index":28,"time_elapsed":2261244,"internal_node_id":"0.0-2.0-26.0"},{"group":"hexagon_tri","room_assignment":["grey","green","blue","purple","red","yellow"],"door_color_assignment":["white","black"],"door_generator_assignment":[0,1],"goal":3,"start":2,"action_noise":0,"location_history":"[2,3]","action_history":"[1]","door_history":"[1]","location_rts":"[3910]","trial_type":"two-door-navigation","trial_index":29,"time_elapsed":2270864,"internal_node_id":"0.0-2.0-27.0"},{"group":"hexagon_tri","room_assignment":["grey","green","blue","purple","red","yellow"],"door_color_assignment":["white","black"],"door_generator_assignment":[0,1],"goal":0,"start":3,"action_noise":0,"location_history":"[3,4,0]","action_history":"[1,0]","door_history":"[1,0]","location_rts":"[317273,872]","trial_type":"two-door-navigation","trial_index":30,"time_elapsed":2596867,"internal_node_id":"0.0-2.0-28.0"},{"group":"hexagon_tri","room_assignment":["grey","green","blue","purple","red","yellow"],"door_color_assignment":["white","black"],"door_generator_assignment":[0,1],"goal":1,"start":0,"action_noise":0,"location_history":"[0,1]","action_history":"[1]","door_history":"[1]","location_rts":"[138036]","trial_type":"two-door-navigation","trial_index":31,"time_elapsed":2740972,"internal_node_id":"0.0-2.0-29.0"},{"group":"hexagon_tri","room_assignment":["grey","green","blue","purple","red","yellow"],"door_color_assignment":["white","black"],"door_generator_assignment":[0,1],"goal":4,"start":1,"action_noise":0,"location_history":"[1,3,4]","action_history":"[0,1]","door_history":"[0,1]","location_rts":"[6708,462]","trial_type":"two-door-navigation","trial_index":32,"time_elapsed":2754246,"internal_node_id":"0.0-2.0-30.0"},{"group":"hexagon_tri","room_assignment":["grey","green","blue","purple","red","yellow"],"door_color_assignment":["white","black"],"door_generator_assignment":[0,1],"goal":5,"start":4,"action_noise":0,"location_history":"[4,0,5]","action_history":"[0,0]","door_history":"[0,0]","location_rts":"[66699,381]","trial_type":"two-door-navigation","trial_index":33,"time_elapsed":2828084,"internal_node_id":"0.0-2.0-31.0"},{"group":"hexagon_tri","room_assignment":["grey","green","blue","purple","red","yellow"],"door_color_assignment":["white","black"],"door_generator_assignment":[0,1],"goal":0,"start":5,"action_noise":0,"location_history":"[5,0]","action_history":"[1]","door_history":"[1]","location_rts":"[2923]","trial_type":"two-door-navigation","trial_index":34,"time_elapsed":2836083,"internal_node_id":"0.0-2.0-32.0"},{"group":"hexagon_tri","room_assignment":["grey","green","blue","purple","red","yellow"],"door_color_assignment":["white","black"],"door_generator_assignment":[0,1],"goal":3,"start":0,"action_noise":0,"location_history":"[0,1,3]","action_history":"[1,0]","door_history":"[1,0]","location_rts":"[7477,394]","trial_type":"two-door-navigation","trial_index":35,"time_elapsed":2850071,"internal_node_id":"0.0-2.0-33.0"},{"group":"hexagon_tri","room_assignment":["grey","green","blue","purple","red","yellow"],"door_color_assignment":["white","black"],"door_generator_assignment":[0,1],"goal":1,"start":3,"action_noise":0,"location_history":"[3,2,1]","action_history":"[0,0]","door_history":"[0,0]","location_rts":"[9704,4]","trial_type":"two-door-navigation","trial_index":36,"time_elapsed":2865925,"internal_node_id":"0.0-2.0-34.0"},{"group":"hexagon_tri","room_assignment":["grey","green","blue","purple","red","yellow"],"door_color_assignment":["white","black"],"door_generator_assignment":[0,1],"goal":2,"start":1,"action_noise":0,"location_history":"[1,3,2]","action_history":"[0,0]","door_history":"[0,0]","location_rts":"[4040,629]","trial_type":"two-door-navigation","trial_index":37,"time_elapsed":2877372,"internal_node_id":"0.0-2.0-35.0"},{"group":"hexagon_tri","room_assignment":["grey","green","blue","purple","red","yellow"],"door_color_assignment":["white","black"],"door_generator_assignment":[0,1],"goal":4,"start":2,"action_noise":0,"location_history":"[2,3,4]","action_history":"[1,1]","door_history":"[1,1]","location_rts":"[6504,201]","trial_type":"two-door-navigation","trial_index":38,"time_elapsed":2890873,"internal_node_id":"0.0-2.0-36.0"},{"group":"hexagon_tri","room_assignment":["grey","green","blue","purple","red","yellow"],"door_color_assignment":["white","black"],"door_generator_assignment":[0,1],"goal":5,"start":4,"action_noise":0,"location_history":"[4,0,5]","action_history":"[0,0]","door_history":"[0,0]","location_rts":"[52548,349]","trial_type":"two-door-navigation","trial_index":39,"time_elapsed":2950921,"internal_node_id":"0.0-2.0-37.0"},{"group":"hexagon_tri","room_assignment":["grey","green","blue","purple","red","yellow"],"door_color_assignment":["white","black"],"door_generator_assignment":[0,1],"goal":1,"start":5,"action_noise":0,"location_history":"[5,0,1]","action_history":"[1,1]","door_history":"[1,1]","location_rts":"[5337,178]","trial_type":"two-door-navigation","trial_index":40,"time_elapsed":2962570,"internal_node_id":"0.0-2.0-38.0"},{"group":"hexagon_tri","room_assignment":["grey","green","blue","purple","red","yellow"],"door_color_assignment":["white","black"],"door_generator_assignment":[0,1],"goal":4,"start":1,"action_noise":0,"location_history":"[1,3,4]","action_history":"[0,1]","door_history":"[0,1]","location_rts":"[5617,192]","trial_type":"two-door-navigation","trial_index":41,"time_elapsed":2974518,"internal_node_id":"0.0-2.0-39.0"},{"group":"hexagon_tri","room_assignment":["grey","green","blue","purple","red","yellow"],"door_color_assignment":["white","black"],"door_generator_assignment":[0,1],"goal":3,"start":4,"action_noise":0,"location_history":"[4,2,3]","action_history":"[1,1]","door_history":"[1,1]","location_rts":"[6187,621]","trial_type":"two-door-navigation","trial_index":42,"time_elapsed":2987469,"internal_node_id":"0.0-2.0-40.0"},{"group":"hexagon_tri","room_assignment":["grey","green","blue","purple","red","yellow"],"door_color_assignment":["white","black"],"door_generator_assignment":[0,1],"goal":2,"start":3,"action_noise":0,"location_history":"[3,2]","action_history":"[0]","door_history":"[0]","location_rts":"[51846]","trial_type":"two-door-navigation","trial_index":43,"time_elapsed":3044374,"internal_node_id":"0.0-2.0-41.0"},{"group":"hexagon_tri","room_assignment":["grey","green","blue","purple","red","yellow"],"door_color_assignment":["white","black"],"door_generator_assignment":[0,1],"goal":0,"start":2,"action_noise":0,"location_history":"[2,3,4,0]","action_history":"[1,1,0]","door_history":"[1,1,0]","location_rts":"[14735,558,1868]","trial_type":"two-door-navigation","trial_index":44,"time_elapsed":3068727,"internal_node_id":"0.0-2.0-42.0"},{"group":"hexagon_tri","room_assignment":["grey","green","blue","purple","red","yellow"],"door_color_assignment":["white","black"],"door_generator_assignment":[0,1],"goal":5,"start":0,"action_noise":0,"location_history":"[0,5]","action_history":"[0]","door_history":"[0]","location_rts":"[2494]","trial_type":"two-door-navigation","trial_index":45,"time_elapsed":3076288,"internal_node_id":"0.0-2.0-43.0"},{"group":"hexagon_tri","room_assignment":["grey","green","blue","purple","red","yellow"],"door_color_assignment":["white","black"],"door_generator_assignment":[0,1],"goal":0,"start":5,"action_noise":0,"location_history":"[5,0]","action_history":"[1]","door_history":"[1]","location_rts":"[2916]","trial_type":"two-door-navigation","trial_index":46,"time_elapsed":3084279,"internal_node_id":"0.0-2.0-44.0"},{"group":"hexagon_tri","room_assignment":["grey","green","blue","purple","red","yellow"],"door_color_assignment":["white","black"],"door_generator_assignment":[0,1],"goal":2,"start":0,"action_noise":0,"location_history":"[0,5,4,2]","action_history":"[0,0,1]","door_history":"[0,0,1]","location_rts":"[15504,754,318]","trial_type":"two-door-navigation","trial_index":47,"time_elapsed":3108071,"internal_node_id":"0.0-2.0-45.0"},{"group":"hexagon_tri","room_assignment":["grey","green","blue","purple","red","yellow"],"door_color_assignment":["white","black"],"door_generator_assignment":[0,1],"goal":4,"start":2,"action_noise":0,"location_history":"[2,3,4]","action_history":"[1,1]","door_history":"[1,1]","location_rts":"[4196,3763]","trial_type":"two-door-navigation","trial_index":48,"time_elapsed":3122188,"internal_node_id":"0.0-2.0-46.0"},{"group":"hexagon_tri","room_assignment":["grey","green","blue","purple","red","yellow"],"door_color_assignment":["white","black"],"door_generator_assignment":[0,1],"goal":1,"start":4,"action_noise":0,"location_history":"[4,2,1]","action_history":"[1,0]","door_history":"[1,0]","location_rts":"[9366,314]","trial_type":"two-door-navigation","trial_index":49,"time_elapsed":3138009,"internal_node_id":"0.0-2.0-47.0"},{"group":"hexagon_tri","room_assignment":["grey","green","blue","purple","red","yellow"],"door_color_assignment":["white","black"],"door_generator_assignment":[0,1],"goal":5,"start":1,"action_noise":0,"location_history":"[1,5]","action_history":"[1]","door_history":"[1]","location_rts":"[3591]","trial_type":"two-door-navigation","trial_index":50,"time_elapsed":3147863,"internal_node_id":"0.0-2.0-48.0"},{"group":"hexagon_tri","room_assignment":["grey","green","blue","purple","red","yellow"],"door_color_assignment":["white","black"],"door_generator_assignment":[0,1],"goal":3,"start":5,"action_noise":0,"location_history":"[5,4,2,3]","action_history":"[0,1,1]","door_history":"[0,1,1]","location_rts":"[107927,337,227]","trial_type":"two-door-navigation","trial_index":51,"time_elapsed":3263528,"internal_node_id":"0.0-2.0-49.0"},{"view_history":"[{\"page_index\":0,\"viewing_time\":1729}]","rt":1729,"trial_type":"instructions","trial_index":52,"time_elapsed":3266259,"internal_node_id":"0.0-3.0"},{"view_history":"[{\"page_index\":0,\"viewing_time\":1998},{\"page_index\":1,\"viewing_time\":1300}]","rt":3298,"trial_type":"instructions","trial_index":53,"time_elapsed":3270561,"internal_node_id":"0.0-4.0"},{"group":"hexagon_bi","fractal_assignment":["../images/ylw_slt.png","../images/pnk_blu.png","../images/blu_wht.png","../images/gry_blk.png","../images/org_blu.png","../images/cyn_red.png"],"mutagen_generator_assignment":[1,0],"goal":3,"start":5,"action_noise":0,"location_history":"[5,4,5,4,3]","action_history":"[1,1,1,0]","mutagen_history":"[0,0,0,1]","location_rts":"[2616,522,481,144]","trial_type":"fractal-mutation","trial_index":54,"time_elapsed":3282866,"internal_node_id":"0.0-5.0-0.0"},{"group":"hexagon_bi","fractal_assignment":["../images/ylw_slt.png","../images/pnk_blu.png","../images/blu_wht.png","../images/gry_blk.png","../images/org_blu.png","../images/cyn_red.png"],"mutagen_generator_assignment":[1,0],"goal":1,"start":3,"action_noise":0,"location_history":"[3,4,5,4,3,2,1]","action_history":"[0,1,1,0,1,0]","mutagen_history":"[1,0,0,1,0,1]","location_rts":"[2725,538,535,531,772,830]","trial_type":"fractal-mutation","trial_index":55,"time_elapsed":3299865,"internal_node_id":"0.0-5.0-1.0"},{"group":"hexagon_bi","fractal_assignment":["../images/ylw_slt.png","../images/pnk_blu.png","../images/blu_wht.png","../images/gry_blk.png","../images/org_blu.png","../images/cyn_red.png"],"mutagen_generator_assignment":[1,0],"goal":0,"start":1,"action_noise":0,"location_history":"[1,0]","action_history":"[1]","mutagen_history":"[0]","location_rts":"[88743]","trial_type":"fractal-mutation","trial_index":56,"time_elapsed":3394701,"internal_node_id":"0.0-5.0-2.0"},{"group":"hexagon_bi","fractal_assignment":["../images/ylw_slt.png","../images/pnk_blu.png","../images/blu_wht.png","../images/gry_blk.png","../images/org_blu.png","../images/cyn_red.png"],"mutagen_generator_assignment":[1,0],"goal":3,"start":0,"action_noise":0,"location_history":"[0,5,4,3]","action_history":"[0,1,0]","mutagen_history":"[1,0,1]","location_rts":"[1841,1083,652]","trial_type":"fractal-mutation","trial_index":57,"time_elapsed":3405516,"internal_node_id":"0.0-5.0-3.0"},{"group":"hexagon_bi","fractal_assignment":["../images/ylw_slt.png","../images/pnk_blu.png","../images/blu_wht.png","../images/gry_blk.png","../images/org_blu.png","../images/cyn_red.png"],"mutagen_generator_assignment":[1,0],"goal":4,"start":3,"action_noise":0,"location_history":"[3,2,1,0,5,4]","action_history":"[1,0,1,0,1]","mutagen_history":"[0,1,0,1,0]","location_rts":"[1370,605,426,463,444]","trial_type":"fractal-mutation","trial_index":58,"time_elapsed":3418204,"internal_node_id":"0.0-5.0-4.0"},{"group":"hexagon_bi","fractal_assignment":["../images/ylw_slt.png","../images/pnk_blu.png","../images/blu_wht.png","../images/gry_blk.png","../images/org_blu.png","../images/cyn_red.png"],"mutagen_generator_assignment":[1,0],"goal":2,"start":4,"action_noise":0,"location_history":"[4,5,0,1,2]","action_history":"[1,0,1,0]","mutagen_history":"[0,1,0,1]","location_rts":"[1862,429,409,421]","trial_type":"fractal-mutation","trial_index":59,"time_elapsed":3429633,"internal_node_id":"0.0-5.0-5.0"},{"group":"hexagon_bi","fractal_assignment":["../images/ylw_slt.png","../images/pnk_blu.png","../images/blu_wht.png","../images/gry_blk.png","../images/org_blu.png","../images/cyn_red.png"],"mutagen_generator_assignment":[1,0],"goal":1,"start":2,"action_noise":0,"location_history":"[2,1]","action_history":"[0]","mutagen_history":"[1]","location_rts":"[615]","trial_type":"fractal-mutation","trial_index":60,"time_elapsed":3435334,"internal_node_id":"0.0-5.0-6.0"},{"group":"hexagon_bi","fractal_assignment":["../images/ylw_slt.png","../images/pnk_blu.png","../images/blu_wht.png","../images/gry_blk.png","../images/org_blu.png","../images/cyn_red.png"],"mutagen_generator_assignment":[1,0],"goal":5,"start":1,"action_noise":0,"location_history":"[1,2,3,4,5]","action_history":"[0,1,0,1]","mutagen_history":"[1,0,1,0]","location_rts":"[1062,451,1035,487]","trial_type":"fractal-mutation","trial_index":61,"time_elapsed":3446635,"internal_node_id":"0.0-5.0-7.0"},{"group":"hexagon_bi","fractal_assignment":["../images/ylw_slt.png","../images/pnk_blu.png","../images/blu_wht.png","../images/gry_blk.png","../images/org_blu.png","../images/cyn_red.png"],"mutagen_generator_assignment":[1,0],"goal":4,"start":5,"action_noise":0,"location_history":"[5,0,1,2,3,4]","action_history":"[0,1,0,1,0]","mutagen_history":"[1,0,1,0,1]","location_rts":"[2508,473,550,421,387]","trial_type":"fractal-mutation","trial_index":62,"time_elapsed":3460382,"internal_node_id":"0.0-5.0-8.0"},{"group":"hexagon_bi","fractal_assignment":["../images/ylw_slt.png","../images/pnk_blu.png","../images/blu_wht.png","../images/gry_blk.png","../images/org_blu.png","../images/cyn_red.png"],"mutagen_generator_assignment":[1,0],"goal":2,"start":4,"action_noise":0,"location_history":"[4,3,2]","action_history":"[0,1]","mutagen_history":"[1,0]","location_rts":"[1979,420]","trial_type":"fractal-mutation","trial_index":63,"time_elapsed":3468947,"internal_node_id":"0.0-5.0-9.0"},{"group":"hexagon_bi","fractal_assignment":["../images/ylw_slt.png","../images/pnk_blu.png","../images/blu_wht.png","../images/gry_blk.png","../images/org_blu.png","../images/cyn_red.png"],"mutagen_generator_assignment":[1,0],"goal":0,"start":2,"action_noise":0,"location_history":"[2,3,4,5,0]","action_history":"[1,0,1,0]","mutagen_history":"[0,1,0,1]","location_rts":"[3799,484,476,403]","trial_type":"fractal-mutation","trial_index":64,"time_elapsed":3482867,"internal_node_id":"0.0-5.0-10.0"},{"group":"hexagon_bi","fractal_assignment":["../images/ylw_slt.png","../images/pnk_blu.png","../images/blu_wht.png","../images/gry_blk.png","../images/org_blu.png","../images/cyn_red.png"],"mutagen_generator_assignment":[1,0],"goal":1,"start":0,"action_noise":0,"location_history":"[0,1]","action_history":"[1]","mutagen_history":"[0]","location_rts":"[102460]","trial_type":"fractal-mutation","trial_index":65,"time_elapsed":3591403,"internal_node_id":"0.0-5.0-11.0"},{"group":"hexagon_bi","fractal_assignment":["../images/ylw_slt.png","../images/pnk_blu.png","../images/blu_wht.png","../images/gry_blk.png","../images/org_blu.png","../images/cyn_red.png"],"mutagen_generator_assignment":[1,0],"goal":3,"start":1,"action_noise":0,"location_history":"[1,0,5,4,3]","action_history":"[1,0,1,0]","mutagen_history":"[0,1,0,1]","location_rts":"[1266,401,405,385]","trial_type":"fractal-mutation","trial_index":66,"time_elapsed":3602871,"internal_node_id":"0.0-5.0-12.0"},{"group":"hexagon_bi","fractal_assignment":["../images/ylw_slt.png","../images/pnk_blu.png","../images/blu_wht.png","../images/gry_blk.png","../images/org_blu.png","../images/cyn_red.png"],"mutagen_generator_assignment":[1,0],"goal":5,"start":3,"action_noise":0,"location_history":"[3,4,5]","action_history":"[0,1]","mutagen_history":"[1,0]","location_rts":"[192566,362]","trial_type":"fractal-mutation","trial_index":67,"time_elapsed":3802914,"internal_node_id":"0.0-5.0-13.0"},{"group":"hexagon_bi","fractal_assignment":["../images/ylw_slt.png","../images/pnk_blu.png","../images/blu_wht.png","../images/gry_blk.png","../images/org_blu.png","../images/cyn_red.png"],"mutagen_generator_assignment":[1,0],"goal":4,"start":5,"action_noise":0,"location_history":"[5,4]","action_history":"[1]","mutagen_history":"[0]","location_rts":"[1271]","trial_type":"fractal-mutation","trial_index":68,"time_elapsed":3809873,"internal_node_id":"0.0-5.0-14.0"},{"group":"hexagon_bi","fractal_assignment":["../images/ylw_slt.png","../images/pnk_blu.png","../images/blu_wht.png","../images/gry_blk.png","../images/org_blu.png","../images/cyn_red.png"],"mutagen_generator_assignment":[1,0],"goal":0,"start":4,"action_noise":0,"location_history":"[4,3,2,1,0]","action_history":"[0,1,0,1]","mutagen_history":"[1,0,1,0]","location_rts":"[647,467,385,374]","trial_type":"fractal-mutation","trial_index":69,"time_elapsed":3820873,"internal_node_id":"0.0-5.0-15.0"},{"group":"hexagon_bi","fractal_assignment":["../images/ylw_slt.png","../images/pnk_blu.png","../images/blu_wht.png","../images/gry_blk.png","../images/org_blu.png","../images/cyn_red.png"],"mutagen_generator_assignment":[1,0],"goal":3,"start":0,"action_noise":0,"location_history":"[0,1,2,1,2,3]","action_history":"[1,0,0,0,1]","mutagen_history":"[0,1,1,1,0]","location_rts":"[52954,358,405,516,43]","trial_type":"fractal-mutation","trial_index":70,"time_elapsed":3885523,"internal_node_id":"0.0-5.0-16.0"},{"group":"hexagon_bi","fractal_assignment":["../images/ylw_slt.png","../images/pnk_blu.png","../images/blu_wht.png","../images/gry_blk.png","../images/org_blu.png","../images/cyn_red.png"],"mutagen_generator_assignment":[1,0],"goal":1,"start":3,"action_noise":0,"location_history":"[3,2,1]","action_history":"[1,0]","mutagen_history":"[0,1]","location_rts":"[28282,653]","trial_type":"fractal-mutation","trial_index":71,"time_elapsed":3920582,"internal_node_id":"0.0-5.0-17.0"},{"group":"hexagon_bi","fractal_assignment":["../images/ylw_slt.png","../images/pnk_blu.png","../images/blu_wht.png","../images/gry_blk.png","../images/org_blu.png","../images/cyn_red.png"],"mutagen_generator_assignment":[1,0],"goal":5,"start":1,"action_noise":0,"location_history":"[1,2,3,4,5]","action_history":"[0,1,0,1]","mutagen_history":"[1,0,1,0]","location_rts":"[1660,2219,380,542]","trial_type":"fractal-mutation","trial_index":72,"time_elapsed":3933627,"internal_node_id":"0.0-5.0-18.0"},{"group":"hexagon_bi","fractal_assignment":["../images/ylw_slt.png","../images/pnk_blu.png","../images/blu_wht.png","../images/gry_blk.png","../images/org_blu.png","../images/cyn_red.png"],"mutagen_generator_assignment":[1,0],"goal":2,"start":5,"action_noise":0,"location_history":"[5,4,3,2]","action_history":"[1,0,1]","mutagen_history":"[0,1,0]","location_rts":"[16517,344,8556]","trial_type":"fractal-mutation","trial_index":73,"time_elapsed":3966234,"internal_node_id":"0.0-5.0-19.0"},{"group":"hexagon_bi","fractal_assignment":["../images/ylw_slt.png","../images/pnk_blu.png","../images/blu_wht.png","../images/gry_blk.png","../images/org_blu.png","../images/cyn_red.png"],"mutagen_generator_assignment":[1,0],"goal":4,"start":2,"action_noise":0,"location_history":"[2,1,0,5,4]","action_history":"[0,1,0,1]","mutagen_history":"[1,0,1,0]","location_rts":"[3983,297,479,1081]","trial_type":"fractal-mutation","trial_index":74,"time_elapsed":3980350,"internal_node_id":"0.0-5.0-20.0"},{"group":"hexagon_bi","fractal_assignment":["../images/ylw_slt.png","../images/pnk_blu.png","../images/blu_wht.png","../images/gry_blk.png","../images/org_blu.png","../images/cyn_red.png"],"mutagen_generator_assignment":[1,0],"goal":1,"start":4,"action_noise":0,"location_history":"[4,5,0,1]","action_history":"[1,0,1]","mutagen_history":"[0,1,0]","location_rts":"[32884,1578,5872]","trial_type":"fractal-mutation","trial_index":75,"time_elapsed":4027879,"internal_node_id":"0.0-5.0-21.0"},{"group":"hexagon_bi","fractal_assignment":["../images/ylw_slt.png","../images/pnk_blu.png","../images/blu_wht.png","../images/gry_blk.png","../images/org_blu.png","../images/cyn_red.png"],"mutagen_generator_assignment":[1,0],"goal":3,"start":1,"action_noise":0,"location_history":"[1,0,5,4,3]","action_history":"[1,0,1,0]","mutagen_history":"[0,1,0,1]","location_rts":"[8376,371,370,366]","trial_type":"fractal-mutation","trial_index":76,"time_elapsed":4045671,"internal_node_id":"0.0-5.0-22.0"},{"group":"hexagon_bi","fractal_assignment":["../images/ylw_slt.png","../images/pnk_blu.png","../images/blu_wht.png","../images/gry_blk.png","../images/org_blu.png","../images/cyn_red.png"],"mutagen_generator_assignment":[1,0],"goal":2,"start":3,"action_noise":0,"location_history":"[3,4,5,0,1,2]","action_history":"[0,1,0,1,0]","mutagen_history":"[1,0,1,0,1]","location_rts":"[2124,386,399,357,389]","trial_type":"fractal-mutation","trial_index":77,"time_elapsed":4058695,"internal_node_id":"0.0-5.0-23.0"},{"group":"hexagon_bi","fractal_assignment":["../images/ylw_slt.png","../images/pnk_blu.png","../images/blu_wht.png","../images/gry_blk.png","../images/org_blu.png","../images/cyn_red.png"],"mutagen_generator_assignment":[1,0],"goal":0,"start":2,"action_noise":0,"location_history":"[2,3,2,1,0]","action_history":"[1,1,0,1]","mutagen_history":"[0,0,1,0]","location_rts":"[14398,6736,423,395]","trial_type":"fractal-mutation","trial_index":78,"time_elapsed":4088893,"internal_node_id":"0.0-5.0-24.0"},{"group":"hexagon_bi","fractal_assignment":["../images/ylw_slt.png","../images/pnk_blu.png","../images/blu_wht.png","../images/gry_blk.png","../images/org_blu.png","../images/cyn_red.png"],"mutagen_generator_assignment":[1,0],"goal":5,"start":0,"action_noise":0,"location_history":"[0,5]","action_history":"[0]","mutagen_history":"[1]","location_rts":"[3690]","trial_type":"fractal-mutation","trial_index":79,"time_elapsed":4097667,"internal_node_id":"0.0-5.0-25.0"},{"group":"hexagon_bi","fractal_assignment":["../images/ylw_slt.png","../images/pnk_blu.png","../images/blu_wht.png","../images/gry_blk.png","../images/org_blu.png","../images/cyn_red.png"],"mutagen_generator_assignment":[1,0],"goal":2,"start":5,"action_noise":0,"location_history":"[5,0,1,2]","action_history":"[0,1,0]","mutagen_history":"[1,0,1]","location_rts":"[1183,352,349]","trial_type":"fractal-mutation","trial_index":80,"time_elapsed":4106778,"internal_node_id":"0.0-5.0-26.0"},{"group":"hexagon_bi","fractal_assignment":["../images/ylw_slt.png","../images/pnk_blu.png","../images/blu_wht.png","../images/gry_blk.png","../images/org_blu.png","../images/cyn_red.png"],"mutagen_generator_assignment":[1,0],"goal":3,"start":2,"action_noise":0,"location_history":"[2,3]","action_history":"[1]","mutagen_history":"[0]","location_rts":"[1483]","trial_type":"fractal-mutation","trial_index":81,"time_elapsed":4113349,"internal_node_id":"0.0-5.0-27.0"},{"group":"hexagon_bi","fractal_assignment":["../images/ylw_slt.png","../images/pnk_blu.png","../images/blu_wht.png","../images/gry_blk.png","../images/org_blu.png","../images/cyn_red.png"],"mutagen_generator_assignment":[1,0],"goal":0,"start":3,"action_noise":0,"location_history":"[3,2,1,0]","action_history":"[1,0,1]","mutagen_history":"[0,1,0]","location_rts":"[5747,1182,5902]","trial_type":"fractal-mutation","trial_index":82,"time_elapsed":4133374,"internal_node_id":"0.0-5.0-28.0"},{"group":"hexagon_bi","fractal_assignment":["../images/ylw_slt.png","../images/pnk_blu.png","../images/blu_wht.png","../images/gry_blk.png","../images/org_blu.png","../images/cyn_red.png"],"mutagen_generator_assignment":[1,0],"goal":1,"start":0,"action_noise":0,"location_history":"[0,1]","action_history":"[1]","mutagen_history":"[0]","location_rts":"[21774]","trial_type":"fractal-mutation","trial_index":83,"time_elapsed":4160218,"internal_node_id":"0.0-5.0-29.0"},{"group":"hexagon_bi","fractal_assignment":["../images/ylw_slt.png","../images/pnk_blu.png","../images/blu_wht.png","../images/gry_blk.png","../images/org_blu.png","../images/cyn_red.png"],"mutagen_generator_assignment":[1,0],"goal":4,"start":1,"action_noise":0,"location_history":"[1,2,3,4]","action_history":"[0,1,0]","mutagen_history":"[1,0,1]","location_rts":"[3408,1032,401]","trial_type":"fractal-mutation","trial_index":84,"time_elapsed":4172250,"internal_node_id":"0.0-5.0-30.0"},{"group":"hexagon_bi","fractal_assignment":["../images/ylw_slt.png","../images/pnk_blu.png","../images/blu_wht.png","../images/gry_blk.png","../images/org_blu.png","../images/cyn_red.png"],"mutagen_generator_assignment":[1,0],"goal":5,"start":4,"action_noise":0,"location_history":"[4,3,2,1,0,5]","action_history":"[0,1,0,1,0]","mutagen_history":"[1,0,1,0,1]","location_rts":"[5405,514,316,8075,368]","trial_type":"fractal-mutation","trial_index":85,"time_elapsed":4196302,"internal_node_id":"0.0-5.0-31.0"},{"group":"hexagon_bi","fractal_assignment":["../images/ylw_slt.png","../images/pnk_blu.png","../images/blu_wht.png","../images/gry_blk.png","../images/org_blu.png","../images/cyn_red.png"],"mutagen_generator_assignment":[1,0],"goal":0,"start":5,"action_noise":0,"location_history":"[5,4,3,2,1,2,3,4,5,0]","action_history":"[1,0,1,0,0,1,0,1,0]","mutagen_history":"[0,1,0,1,1,0,1,0,1]","location_rts":"[3073,1971,3410,381,7734,544,973,944,390]","trial_type":"fractal-mutation","trial_index":86,"time_elapsed":4229273,"internal_node_id":"0.0-5.0-32.0"},{"group":"hexagon_bi","fractal_assignment":["../images/ylw_slt.png","../images/pnk_blu.png","../images/blu_wht.png","../images/gry_blk.png","../images/org_blu.png","../images/cyn_red.png"],"mutagen_generator_assignment":[1,0],"goal":3,"start":0,"action_noise":0,"location_history":"[0,1,2,3]","action_history":"[1,0,1]","mutagen_history":"[0,1,0]","location_rts":"[1311,729,477]","trial_type":"fractal-mutation","trial_index":87,"time_elapsed":4239033,"internal_node_id":"0.0-5.0-33.0"},{"group":"hexagon_bi","fractal_assignment":["../images/ylw_slt.png","../images/pnk_blu.png","../images/blu_wht.png","../images/gry_blk.png","../images/org_blu.png","../images/cyn_red.png"],"mutagen_generator_assignment":[1,0],"goal":1,"start":3,"action_noise":0,"location_history":"[3,2,1]","action_history":"[1,0]","mutagen_history":"[0,1]","location_rts":"[2299,4824]","trial_type":"fractal-mutation","trial_index":88,"time_elapsed":4252265,"internal_node_id":"0.0-5.0-34.0"},{"group":"hexagon_bi","fractal_assignment":["../images/ylw_slt.png","../images/pnk_blu.png","../images/blu_wht.png","../images/gry_blk.png","../images/org_blu.png","../images/cyn_red.png"],"mutagen_generator_assignment":[1,0],"goal":2,"start":1,"action_noise":0,"location_history":"[1,0,5,4,5,0,1,2]","action_history":"[1,0,1,1,0,1,0]","mutagen_history":"[0,1,0,0,1,0,1]","location_rts":"[4810,418,4849,7370,350,622,2033]","trial_type":"fractal-mutation","trial_index":89,"time_elapsed":4284208,"internal_node_id":"0.0-5.0-35.0"},{"group":"hexagon_bi","fractal_assignment":["../images/ylw_slt.png","../images/pnk_blu.png","../images/blu_wht.png","../images/gry_blk.png","../images/org_blu.png","../images/cyn_red.png"],"mutagen_generator_assignment":[1,0],"goal":4,"start":2,"action_noise":0,"location_history":"[2,1,0,5,4]","action_history":"[0,1,0,1]","mutagen_history":"[1,0,1,0]","location_rts":"[1312,650,1542,4725]","trial_type":"fractal-mutation","trial_index":90,"time_elapsed":4300685,"internal_node_id":"0.0-5.0-36.0"},{"group":"hexagon_bi","fractal_assignment":["../images/ylw_slt.png","../images/pnk_blu.png","../images/blu_wht.png","../images/gry_blk.png","../images/org_blu.png","../images/cyn_red.png"],"mutagen_generator_assignment":[1,0],"goal":5,"start":4,"action_noise":0,"location_history":"[4,3,2,3,4,3,2,1,0,5]","action_history":"[0,1,1,0,0,1,0,1,0]","mutagen_history":"[1,0,0,1,1,0,1,0,1]","location_rts":"[1872,407,10677,383,7989,402,2113,341,342]","trial_type":"fractal-mutation","trial_index":91,"time_elapsed":4338812,"internal_node_id":"0.0-5.0-37.0"},{"group":"hexagon_bi","fractal_assignment":["../images/ylw_slt.png","../images/pnk_blu.png","../images/blu_wht.png","../images/gry_blk.png","../images/org_blu.png","../images/cyn_red.png"],"mutagen_generator_assignment":[1,0],"goal":1,"start":5,"action_noise":0,"location_history":"[5,4,3,4,5,4,3,2,1]","action_history":"[1,0,0,1,1,0,1,0]","mutagen_history":"[0,1,1,0,0,1,0,1]","location_rts":"[1085,329,13500,395,30236,456,359,356]","trial_type":"fractal-mutation","trial_index":92,"time_elapsed":4398070,"internal_node_id":"0.0-5.0-38.0"},{"group":"hexagon_bi","fractal_assignment":["../images/ylw_slt.png","../images/pnk_blu.png","../images/blu_wht.png","../images/gry_blk.png","../images/org_blu.png","../images/cyn_red.png"],"mutagen_generator_assignment":[1,0],"goal":4,"start":1,"action_noise":0,"location_history":"[1,2,3,4]","action_history":"[0,1,0]","mutagen_history":"[1,0,1]","location_rts":"[3959,372,648]","trial_type":"fractal-mutation","trial_index":93,"time_elapsed":4410246,"internal_node_id":"0.0-5.0-39.0"},{"group":"hexagon_bi","fractal_assignment":["../images/ylw_slt.png","../images/pnk_blu.png","../images/blu_wht.png","../images/gry_blk.png","../images/org_blu.png","../images/cyn_red.png"],"mutagen_generator_assignment":[1,0],"goal":3,"start":4,"action_noise":0,"location_history":"[4,5,0,1,2,3]","action_history":"[1,0,1,0,1]","mutagen_history":"[0,1,0,1,0]","location_rts":"[17423,6098,449,11090,504]","trial_type":"fractal-mutation","trial_index":94,"time_elapsed":4455132,"internal_node_id":"0.0-5.0-40.0"},{"group":"hexagon_bi","fractal_assignment":["../images/ylw_slt.png","../images/pnk_blu.png","../images/blu_wht.png","../images/gry_blk.png","../images/org_blu.png","../images/cyn_red.png"],"mutagen_generator_assignment":[1,0],"goal":2,"start":3,"action_noise":0,"location_history":"[3,2]","action_history":"[1]","mutagen_history":"[0]","location_rts":"[1555]","trial_type":"fractal-mutation","trial_index":95,"time_elapsed":4461747,"internal_node_id":"0.0-5.0-41.0"},{"group":"hexagon_bi","fractal_assignment":["../images/ylw_slt.png","../images/pnk_blu.png","../images/blu_wht.png","../images/gry_blk.png","../images/org_blu.png","../images/cyn_red.png"],"mutagen_generator_assignment":[1,0],"goal":0,"start":2,"action_noise":0,"location_history":"[2,3,4,5,4,5,4,3,2,1,0]","action_history":"[1,0,1,1,1,1,0,1,0,1]","mutagen_history":"[0,1,0,0,0,0,1,0,1,0]","location_rts":"[6245,5263,430,5024,5334,8377,214,622,1041,393]","trial_type":"fractal-mutation","trial_index":96,"time_elapsed":4509332,"internal_node_id":"0.0-5.0-42.0"},{"group":"hexagon_bi","fractal_assignment":["../images/ylw_slt.png","../images/pnk_blu.png","../images/blu_wht.png","../images/gry_blk.png","../images/org_blu.png","../images/cyn_red.png"],"mutagen_generator_assignment":[1,0],"goal":5,"start":0,"action_noise":0,"location_history":"[0,5]","action_history":"[0]","mutagen_history":"[1]","location_rts":"[6388]","trial_type":"fractal-mutation","trial_index":97,"time_elapsed":4520789,"internal_node_id":"0.0-5.0-43.0"},{"group":"hexagon_bi","fractal_assignment":["../images/ylw_slt.png","../images/pnk_blu.png","../images/blu_wht.png","../images/gry_blk.png","../images/org_blu.png","../images/cyn_red.png"],"mutagen_generator_assignment":[1,0],"goal":0,"start":5,"action_noise":0,"location_history":"[5,4,3,2,1,0]","action_history":"[1,0,1,0,1]","mutagen_history":"[0,1,0,1,0]","location_rts":"[5126,606,7723,1116,450]","trial_type":"fractal-mutation","trial_index":98,"time_elapsed":4545116,"internal_node_id":"0.0-5.0-44.0"},{"group":"hexagon_bi","fractal_assignment":["../images/ylw_slt.png","../images/pnk_blu.png","../images/blu_wht.png","../images/gry_blk.png","../images/org_blu.png","../images/cyn_red.png"],"mutagen_generator_assignment":[1,0],"goal":2,"start":0,"action_noise":0,"location_history":"[0,1,2]","action_history":"[1,0]","mutagen_history":"[0,1]","location_rts":"[5694,332]","trial_type":"fractal-mutation","trial_index":99,"time_elapsed":4557267,"internal_node_id":"0.0-5.0-45.0"},{"group":"hexagon_bi","fractal_assignment":["../images/ylw_slt.png","../images/pnk_blu.png","../images/blu_wht.png","../images/gry_blk.png","../images/org_blu.png","../images/cyn_red.png"],"mutagen_generator_assignment":[1,0],"goal":4,"start":2,"action_noise":0,"location_history":"[2,1,2,3,4]","action_history":"[0,0,1,0]","mutagen_history":"[1,1,0,1]","location_rts":"[5206,8336,389,357]","trial_type":"fractal-mutation","trial_index":100,"time_elapsed":4579805,"internal_node_id":"0.0-5.0-46.0"},{"group":"hexagon_bi","fractal_assignment":["../images/ylw_slt.png","../images/pnk_blu.png","../images/blu_wht.png","../images/gry_blk.png","../images/org_blu.png","../images/cyn_red.png"],"mutagen_generator_assignment":[1,0],"goal":1,"start":4,"action_noise":0,"location_history":"[4,3,2,1]","action_history":"[0,1,0]","mutagen_history":"[1,0,1]","location_rts":"[1460,324,318]","trial_type":"fractal-mutation","trial_index":101,"time_elapsed":4589127,"internal_node_id":"0.0-5.0-47.0"},{"group":"hexagon_bi","fractal_assignment":["../images/ylw_slt.png","../images/pnk_blu.png","../images/blu_wht.png","../images/gry_blk.png","../images/org_blu.png","../images/cyn_red.png"],"mutagen_generator_assignment":[1,0],"goal":5,"start":1,"action_noise":0,"location_history":"[1,2,3,2,1,0,5]","action_history":"[0,1,1,0,1,0]","mutagen_history":"[1,0,0,1,0,1]","location_rts":"[1894,4872,8918,379,520,366]","trial_type":"fractal-mutation","trial_index":102,"time_elapsed":4616488,"internal_node_id":"0.0-5.0-48.0"},{"group":"hexagon_bi","fractal_assignment":["../images/ylw_slt.png","../images/pnk_blu.png","../images/blu_wht.png","../images/gry_blk.png","../images/org_blu.png","../images/cyn_red.png"],"mutagen_generator_assignment":[1,0],"goal":3,"start":5,"action_noise":0,"location_history":"[5,4,3]","action_history":"[1,0]","mutagen_history":"[0,1]","location_rts":"[3883,600]","trial_type":"fractal-mutation","trial_index":103,"time_elapsed":4627106,"internal_node_id":"0.0-5.0-49.0"},{"view_history":"[{\"page_index\":0,\"viewing_time\":3911}]","rt":3911,"trial_type":"instructions","trial_index":104,"time_elapsed":4632019,"internal_node_id":"0.0-6.0"},{"rt":3490,"responses":"{\"Q0\":\"Thanks!\"}","trial_type":"survey-text","trial_index":105,"time_elapsed":4636515,"internal_node_id":"0.0-7.0"}]