[{"view_history":"[{\"page_index\":0,\"viewing_time\":27333},{\"page_index\":1,\"viewing_time\":646968}]","rt":674303,"trial_type":"instructions","trial_index":0,"time_elapsed":674306,"internal_node_id":"0.0-0.0"},{"view_history":"[{\"page_index\":0,\"viewing_time\":3611},{\"page_index\":1,\"viewing_time\":13359}]","rt":16972,"trial_type":"instructions","trial_index":1,"time_elapsed":692280,"internal_node_id":"0.0-1.0"},{"group":"hexagon_bi","room_assignment":["grey","purple","blue","yellow","red","green"],"door_color_assignment":["black","white"],"door_generator_assignment":[1,0],"goal":3,"start":5,"action_noise":0,"location_history":"[5,4,3]","action_history":"[1,0]","door_history":"[0,1]","location_rts":"[3856,442]","trial_type":"two-door-navigation","trial_index":2,"time_elapsed":702625,"internal_node_id":"0.0-2.0-0.0"},{"group":"hexagon_bi","room_assignment":["grey","purple","blue","yellow","red","green"],"door_color_assignment":["black","white"],"door_generator_assignment":[1,0],"goal":1,"start":3,"action_noise":0,"location_history":"[3,4,5,0,1]","action_history":"[0,1,0,1]","door_history":"[1,0,1,0]","location_rts":"[2066,364,312,599]","trial_type":"two-door-navigation","trial_index":3,"time_elapsed":713988,"internal_node_id":"0.0-2.0-1.0"},{"group":"hexagon_bi","room_assignment":["grey","purple","blue","yellow","red","green"],"door_color_assignment":["black","white"],"door_generator_assignment":[1,0],"goal":0,"start":1,"action_noise":0,"location_history":"[1,0]","action_history":"[1]","door_history":"[0]","location_rts":"[2329]","trial_type":"two-door-navigation","trial_index":4,"time_elapsed":721321,"internal_node_id":"0.0-2.0-2.0"},{"group":"hexagon_bi","room_assignment":["grey","purple","blue","yellow","red","green"],"door_color_assignment":["black","white"],"door_generator_assignment":[1,0],"goal":3,"start":0,"action_noise":0,"location_history":"[0,5,4,3]","action_history":"[0,1,0]","door_history":"[1,0,1]","location_rts":"[2673,515,377]","trial_type":"two-door-navigation","trial_index":5,"time_elapsed":731895,"internal_node_id":"0.0-2.0-3.0"},{"group":"hexagon_bi","room_assignment":["grey","purple","blue","yellow","red","green"],"door_color_assignment":["black","white"],"door_generator_assignment":[1,0],"goal":4,"start":3,"action_noise":0,"location_history":"[3,4]","action_history":"[0]","door_history":"[1]","location_rts":"[3347]","trial_type":"two-door-navigation","trial_index":6,"time_elapsed":740246,"internal_node_id":"0.0-2.0-4.0"},{"group":"hexagon_bi","room_assignment":["grey","purple","blue","yellow","red","green"],"door_color_assignment":["black","white"],"door_generator_assignment":[1,0],"goal":2,"start":4,"action_noise":0,"location_history":"[4,5,0,1,2]","action_history":"[1,0,1,0]","door_history":"[0,1,0,1]","location_rts":"[3374,636,504,288]","trial_type":"two-door-navigation","trial_index":7,"time_elapsed":753060,"internal_node_id":"0.0-2.0-5.0"},{"group":"hexagon_bi","room_assignment":["grey","purple","blue","yellow","red","green"],"door_color_assignment":["black","white"],"door_generator_assignment":[1,0],"goal":1,"start":2,"action_noise":0,"location_history":"[2,3,2,1]","action_history":"[1,1,0]","door_history":"[0,0,1]","location_rts":"[207,688,1107]","trial_type":"two-door-navigation","trial_index":8,"time_elapsed":762082,"internal_node_id":"0.0-2.0-6.0"},{"group":"hexagon_bi","room_assignment":["grey","purple","blue","yellow","red","green"],"door_color_assignment":["black","white"],"door_generator_assignment":[1,0],"goal":5,"start":1,"action_noise":0,"location_history":"[1,2,3,4,5]","action_history":"[0,1,0,1]","door_history":"[1,0,1,0]","location_rts":"[1423,383,379,403]","trial_type":"two-door-navigation","trial_index":9,"time_elapsed":772716,"internal_node_id":"0.0-2.0-7.0"},{"group":"hexagon_bi","room_assignment":["grey","purple","blue","yellow","red","green"],"door_color_assignment":["black","white"],"door_generator_assignment":[1,0],"goal":4,"start":5,"action_noise":0,"location_history":"[5,0,1,0,5,4]","action_history":"[0,1,1,0,1]","door_history":"[1,0,0,1,0]","location_rts":"[1765,465,421,699,611]","trial_type":"two-door-navigation","trial_index":10,"time_elapsed":785692,"internal_node_id":"0.0-2.0-8.0"},{"group":"hexagon_bi","room_assignment":["grey","purple","blue","yellow","red","green"],"door_color_assignment":["black","white"],"door_generator_assignment":[1,0],"goal":2,"start":4,"action_noise":0,"location_history":"[4,5,0,1,2]","action_history":"[1,0,1,0]","door_history":"[0,1,0,1]","location_rts":"[1919,347,208,416]","trial_type":"two-door-navigation","trial_index":11,"time_elapsed":796590,"internal_node_id":"0.0-2.0-9.0"},{"group":"hexagon_bi","room_assignment":["grey","purple","blue","yellow","red","green"],"door_color_assignment":["black","white"],"door_generator_assignment":[1,0],"goal":0,"start":2,"action_noise":0,"location_history":"[2,3,4,5,4,3,2,1,0]","action_history":"[1,0,1,1,0,1,0,1]","door_history":"[0,1,0,0,1,0,1,0]","location_rts":"[524,440,339,364,95,63,720,930]","trial_type":"two-door-navigation","trial_index":12,"time_elapsed":812087,"internal_node_id":"0.0-2.0-10.0"},{"group":"hexagon_bi","room_assignment":["grey","purple","blue","yellow","red","green"],"door_color_assignment":["black","white"],"door_generator_assignment":[1,0],"goal":1,"start":0,"action_noise":0,"location_history":"[0,1]","action_history":"[1]","door_history":"[0]","location_rts":"[1450]","trial_type":"two-door-navigation","trial_index":13,"time_elapsed":818538,"internal_node_id":"0.0-2.0-11.0"},{"group":"hexagon_bi","room_assignment":["grey","purple","blue","yellow","red","green"],"door_color_assignment":["black","white"],"door_generator_assignment":[1,0],"goal":3,"start":1,"action_noise":0,"location_history":"[1,0,5,4,3]","action_history":"[1,0,1,0]","door_history":"[0,1,0,1]","location_rts":"[3806,389,254,318]","trial_type":"two-door-navigation","trial_index":14,"time_elapsed":831312,"internal_node_id":"0.0-2.0-12.0"},{"group":"hexagon_bi","room_assignment":["grey","purple","blue","yellow","red","green"],"door_color_assignment":["black","white"],"door_generator_assignment":[1,0],"goal":5,"start":3,"action_noise":0,"location_history":"[3,2,1,0,5]","action_history":"[1,0,1,0]","door_history":"[0,1,0,1]","location_rts":"[637,319,402,253]","trial_type":"two-door-navigation","trial_index":15,"time_elapsed":840937,"internal_node_id":"0.0-2.0-13.0"},{"group":"hexagon_bi","room_assignment":["grey","purple","blue","yellow","red","green"],"door_color_assignment":["black","white"],"door_generator_assignment":[1,0],"goal":4,"start":5,"action_noise":0,"location_history":"[5,4]","action_history":"[1]","door_history":"[0]","location_rts":"[2318]","trial_type":"two-door-navigation","trial_index":16,"time_elapsed":848257,"internal_node_id":"0.0-2.0-14.0"},{"group":"hexagon_bi","room_assignment":["grey","purple","blue","yellow","red","green"],"door_color_assignment":["black","white"],"door_generator_assignment":[1,0],"goal":0,"start":4,"action_noise":0,"location_history":"[4,5,0]","action_history":"[1,0]","door_history":"[0,1]","location_rts":"[4366,1005]","trial_type":"two-door-navigation","trial_index":17,"time_elapsed":859632,"internal_node_id":"0.0-2.0-15.0"},{"group":"hexagon_bi","room_assignment":["grey","purple","blue","yellow","red","green"],"door_color_assignment":["black","white"],"door_generator_assignment":[1,0],"goal":3,"start":0,"action_noise":0,"location_history":"[0,1,2,3]","action_history":"[1,0,1]","door_history":"[0,1,0]","location_rts":"[16572,237,278]","trial_type":"two-door-navigation","trial_index":18,"time_elapsed":883737,"internal_node_id":"0.0-2.0-16.0"},{"group":"hexagon_bi","room_assignment":["grey","purple","blue","yellow","red","green"],"door_color_assignment":["black","white"],"door_generator_assignment":[1,0],"goal":1,"start":3,"action_noise":0,"location_history":"[3,4,5,0,1]","action_history":"[0,1,0,1]","door_history":"[1,0,1,0]","location_rts":"[1625,359,386,446]","trial_type":"two-door-navigation","trial_index":19,"time_elapsed":894570,"internal_node_id":"0.0-2.0-17.0"},{"group":"hexagon_bi","room_assignment":["grey","purple","blue","yellow","red","green"],"door_color_assignment":["black","white"],"door_generator_assignment":[1,0],"goal":5,"start":1,"action_noise":0,"location_history":"[1,2,3,4,5]","action_history":"[0,1,0,1]","door_history":"[1,0,1,0]","location_rts":"[1875,209,397,341]","trial_type":"two-door-navigation","trial_index":20,"time_elapsed":905397,"internal_node_id":"0.0-2.0-18.0"},{"group":"hexagon_bi","room_assignment":["grey","purple","blue","yellow","red","green"],"door_color_assignment":["black","white"],"door_generator_assignment":[1,0],"goal":2,"start":5,"action_noise":0,"location_history":"[5,4,3,2]","action_history":"[1,0,1]","door_history":"[0,1,0]","location_rts":"[319,310,399]","trial_type":"two-door-navigation","trial_index":21,"time_elapsed":913430,"internal_node_id":"0.0-2.0-19.0"},{"group":"hexagon_bi","room_assignment":["grey","purple","blue","yellow","red","green"],"door_color_assignment":["black","white"],"door_generator_assignment":[1,0],"goal":4,"start":2,"action_noise":0,"location_history":"[2,3,4]","action_history":"[1,0]","door_history":"[0,1]","location_rts":"[1980,356]","trial_type":"two-door-navigation","trial_index":22,"time_elapsed":921778,"internal_node_id":"0.0-2.0-20.0"},{"group":"hexagon_bi","room_assignment":["grey","purple","blue","yellow","red","green"],"door_color_assignment":["black","white"],"door_generator_assignment":[1,0],"goal":1,"start":4,"action_noise":0,"location_history":"[4,5,0,1]","action_history":"[1,0,1]","door_history":"[0,1,0]","location_rts":"[1893,332,378]","trial_type":"two-door-navigation","trial_index":23,"time_elapsed":931393,"internal_node_id":"0.0-2.0-21.0"},{"group":"hexagon_bi","room_assignment":["grey","purple","blue","yellow","red","green"],"door_color_assignment":["black","white"],"door_generator_assignment":[1,0],"goal":3,"start":1,"action_noise":0,"location_history":"[1,0,5,4,3]","action_history":"[1,0,1,0]","door_history":"[0,1,0,1]","location_rts":"[12189,328,799,358]","trial_type":"two-door-navigation","trial_index":24,"time_elapsed":953077,"internal_node_id":"0.0-2.0-22.0"},{"group":"hexagon_bi","room_assignment":["grey","purple","blue","yellow","red","green"],"door_color_assignment":["black","white"],"door_generator_assignment":[1,0],"goal":2,"start":3,"action_noise":0,"location_history":"[3,2]","action_history":"[1]","door_history":"[0]","location_rts":"[1070]","trial_type":"two-door-navigation","trial_index":25,"time_elapsed":959178,"internal_node_id":"0.0-2.0-23.0"},{"group":"hexagon_bi","room_assignment":["grey","purple","blue","yellow","red","green"],"door_color_assignment":["black","white"],"door_generator_assignment":[1,0],"goal":0,"start":2,"action_noise":0,"location_history":"[2,3,4,5,4,3,2,1,0]","action_history":"[1,0,1,1,0,1,0,1]","door_history":"[0,1,0,0,1,0,1,0]","location_rts":"[3147,355,304,448,380,319,376,384]","trial_type":"two-door-navigation","trial_index":26,"time_elapsed":976902,"internal_node_id":"0.0-2.0-24.0"},{"group":"hexagon_bi","room_assignment":["grey","purple","blue","yellow","red","green"],"door_color_assignment":["black","white"],"door_generator_assignment":[1,0],"goal":5,"start":0,"action_noise":0,"location_history":"[0,1,2,3,4,5]","action_history":"[1,0,1,0,1]","door_history":"[0,1,0,1,0]","location_rts":"[996,320,352,607,613]","trial_type":"two-door-navigation","trial_index":27,"time_elapsed":988806,"internal_node_id":"0.0-2.0-25.0"},{"group":"hexagon_bi","room_assignment":["grey","purple","blue","yellow","red","green"],"door_color_assignment":["black","white"],"door_generator_assignment":[1,0],"goal":2,"start":5,"action_noise":0,"location_history":"[5,4,3,2]","action_history":"[1,0,1]","door_history":"[0,1,0]","location_rts":"[2459,453,360]","trial_type":"two-door-navigation","trial_index":28,"time_elapsed":999084,"internal_node_id":"0.0-2.0-26.0"},{"group":"hexagon_bi","room_assignment":["grey","purple","blue","yellow","red","green"],"door_color_assignment":["black","white"],"door_generator_assignment":[1,0],"goal":3,"start":2,"action_noise":0,"location_history":"[2,3]","action_history":"[1]","door_history":"[0]","location_rts":"[6635]","trial_type":"two-door-navigation","trial_index":29,"time_elapsed":1010722,"internal_node_id":"0.0-2.0-27.0"},{"group":"hexagon_bi","room_assignment":["grey","purple","blue","yellow","red","green"],"door_color_assignment":["black","white"],"door_generator_assignment":[1,0],"goal":0,"start":3,"action_noise":0,"location_history":"[3,2,1,0]","action_history":"[1,0,1]","door_history":"[0,1,0]","location_rts":"[11648,1121,336]","trial_type":"two-door-navigation","trial_index":30,"time_elapsed":1030834,"internal_node_id":"0.0-2.0-28.0"},{"group":"hexagon_bi","room_assignment":["grey","purple","blue","yellow","red","green"],"door_color_assignment":["black","white"],"door_generator_assignment":[1,0],"goal":1,"start":0,"action_noise":0,"location_history":"[0,1]","action_history":"[1]","door_history":"[0]","location_rts":"[5023]","trial_type":"two-door-navigation","trial_index":31,"time_elapsed":1040859,"internal_node_id":"0.0-2.0-29.0"},{"group":"hexagon_bi","room_assignment":["grey","purple","blue","yellow","red","green"],"door_color_assignment":["black","white"],"door_generator_assignment":[1,0],"goal":4,"start":1,"action_noise":0,"location_history":"[1,0,5,4]","action_history":"[1,0,1]","door_history":"[0,1,0]","location_rts":"[20556,333,343]","trial_type":"two-door-navigation","trial_index":32,"time_elapsed":1069095,"internal_node_id":"0.0-2.0-30.0"},{"group":"hexagon_bi","room_assignment":["grey","purple","blue","yellow","red","green"],"door_color_assignment":["black","white"],"door_generator_assignment":[1,0],"goal":5,"start":4,"action_noise":0,"location_history":"[4,5]","action_history":"[1]","door_history":"[0]","location_rts":"[1292]","trial_type":"two-door-navigation","trial_index":33,"time_elapsed":1075400,"internal_node_id":"0.0-2.0-31.0"},{"group":"hexagon_bi","room_assignment":["grey","purple","blue","yellow","red","green"],"door_color_assignment":["black","white"],"door_generator_assignment":[1,0],"goal":0,"start":5,"action_noise":0,"location_history":"[5,0]","action_history":"[0]","door_history":"[1]","location_rts":"[4128]","trial_type":"two-door-navigation","trial_index":34,"time_elapsed":1085234,"internal_node_id":"0.0-2.0-32.0"},{"group":"hexagon_bi","room_assignment":["grey","purple","blue","yellow","red","green"],"door_color_assignment":["black","white"],"door_generator_assignment":[1,0],"goal":3,"start":0,"action_noise":0,"location_history":"[0,1,2,3]","action_history":"[1,0,1]","door_history":"[0,1,0]","location_rts":"[25961,453,367]","trial_type":"two-door-navigation","trial_index":35,"time_elapsed":1119027,"internal_node_id":"0.0-2.0-33.0"},{"group":"hexagon_bi","room_assignment":["grey","purple","blue","yellow","red","green"],"door_color_assignment":["black","white"],"door_generator_assignment":[1,0],"goal":1,"start":3,"action_noise":0,"location_history":"[3,2,1]","action_history":"[1,0]","door_history":"[0,1]","location_rts":"[826,514]","trial_type":"two-door-navigation","trial_index":36,"time_elapsed":1126386,"internal_node_id":"0.0-2.0-34.0"},{"group":"hexagon_bi","room_assignment":["grey","purple","blue","yellow","red","green"],"door_color_assignment":["black","white"],"door_generator_assignment":[1,0],"goal":2,"start":1,"action_noise":0,"location_history":"[1,0,5,4,3,2]","action_history":"[1,0,1,0,1]","door_history":"[0,1,0,1,0]","location_rts":"[1716,255,376,332,357]","trial_type":"two-door-navigation","trial_index":37,"time_elapsed":1138433,"internal_node_id":"0.0-2.0-35.0"},{"group":"hexagon_bi","room_assignment":["grey","purple","blue","yellow","red","green"],"door_color_assignment":["black","white"],"door_generator_assignment":[1,0],"goal":4,"start":2,"action_noise":0,"location_history":"[2,1,0,5,4]","action_history":"[0,1,0,1]","door_history":"[1,0,1,0]","location_rts":"[24526,589,295,374]","trial_type":"two-door-navigation","trial_index":38,"time_elapsed":1172252,"internal_node_id":"0.0-2.0-36.0"},{"group":"hexagon_bi","room_assignment":["grey","purple","blue","yellow","red","green"],"door_color_assignment":["black","white"],"door_generator_assignment":[1,0],"goal":5,"start":4,"action_noise":0,"location_history":"[4,5]","action_history":"[1]","door_history":"[0]","location_rts":"[25128]","trial_type":"two-door-navigation","trial_index":39,"time_elapsed":1202391,"internal_node_id":"0.0-2.0-37.0"},{"group":"hexagon_bi","room_assignment":["grey","purple","blue","yellow","red","green"],"door_color_assignment":["black","white"],"door_generator_assignment":[1,0],"goal":1,"start":5,"action_noise":0,"location_history":"[5,4,3,2,1]","action_history":"[1,0,1,0]","door_history":"[0,1,0,1]","location_rts":"[4000,352,165,527]","trial_type":"two-door-navigation","trial_index":40,"time_elapsed":1215449,"internal_node_id":"0.0-2.0-38.0"},{"group":"hexagon_bi","room_assignment":["grey","purple","blue","yellow","red","green"],"door_color_assignment":["black","white"],"door_generator_assignment":[1,0],"goal":4,"start":1,"action_noise":0,"location_history":"[1,0,5,4]","action_history":"[1,0,1]","door_history":"[0,1,0]","location_rts":"[6579,281,192]","trial_type":"two-door-navigation","trial_index":41,"time_elapsed":1229504,"internal_node_id":"0.0-2.0-39.0"},{"group":"hexagon_bi","room_assignment":["grey","purple","blue","yellow","red","green"],"door_color_assignment":["black","white"],"door_generator_assignment":[1,0],"goal":3,"start":4,"action_noise":0,"location_history":"[4,5,0,1,2,3]","action_history":"[1,0,1,0,1]","door_history":"[0,1,0,1,0]","location_rts":"[1809,373,382,192,331]","trial_type":"two-door-navigation","trial_index":42,"time_elapsed":1243103,"internal_node_id":"0.0-2.0-40.0"},{"group":"hexagon_bi","room_assignment":["grey","purple","blue","yellow","red","green"],"door_color_assignment":["black","white"],"door_generator_assignment":[1,0],"goal":2,"start":3,"action_noise":0,"location_history":"[3,2]","action_history":"[1]","door_history":"[0]","location_rts":"[1945]","trial_type":"two-door-navigation","trial_index":43,"time_elapsed":1251085,"internal_node_id":"0.0-2.0-41.0"},{"group":"hexagon_bi","room_assignment":["grey","purple","blue","yellow","red","green"],"door_color_assignment":["black","white"],"door_generator_assignment":[1,0],"goal":0,"start":2,"action_noise":0,"location_history":"[2,1,0]","action_history":"[0,1]","door_history":"[1,0]","location_rts":"[1742,317]","trial_type":"two-door-navigation","trial_index":44,"time_elapsed":1259160,"internal_node_id":"0.0-2.0-42.0"},{"group":"hexagon_bi","room_assignment":["grey","purple","blue","yellow","red","green"],"door_color_assignment":["black","white"],"door_generator_assignment":[1,0],"goal":5,"start":0,"action_noise":0,"location_history":"[0,1,2,3,4,5]","action_history":"[1,0,1,0,1]","door_history":"[0,1,0,1,0]","location_rts":"[1914,263,323,749,368]","trial_type":"two-door-navigation","trial_index":45,"time_elapsed":1271783,"internal_node_id":"0.0-2.0-43.0"},{"group":"hexagon_bi","room_assignment":["grey","purple","blue","yellow","red","green"],"door_color_assignment":["black","white"],"door_generator_assignment":[1,0],"goal":0,"start":5,"action_noise":0,"location_history":"[5,0]","action_history":"[0]","door_history":"[1]","location_rts":"[276]","trial_type":"two-door-navigation","trial_index":46,"time_elapsed":1277060,"internal_node_id":"0.0-2.0-44.0"},{"group":"hexagon_bi","room_assignment":["grey","purple","blue","yellow","red","green"],"door_color_assignment":["black","white"],"door_generator_assignment":[1,0],"goal":2,"start":0,"action_noise":0,"location_history":"[0,1,2]","action_history":"[1,0]","door_history":"[0,1]","location_rts":"[326,344]","trial_type":"two-door-navigation","trial_index":47,"time_elapsed":1283736,"internal_node_id":"0.0-2.0-45.0"},{"group":"hexagon_bi","room_assignment":["grey","purple","blue","yellow","red","green"],"door_color_assignment":["black","white"],"door_generator_assignment":[1,0],"goal":4,"start":2,"action_noise":0,"location_history":"[2,1,0,5,4]","action_history":"[0,1,0,1]","door_history":"[1,0,1,0]","location_rts":"[588,309,296,320]","trial_type":"two-door-navigation","trial_index":48,"time_elapsed":1293252,"internal_node_id":"0.0-2.0-46.0"},{"group":"hexagon_bi","room_assignment":["grey","purple","blue","yellow","red","green"],"door_color_assignment":["black","white"],"door_generator_assignment":[1,0],"goal":1,"start":4,"action_noise":0,"location_history":"[4,5,0,1]","action_history":"[1,0,1]","door_history":"[0,1,0]","location_rts":"[583,244,237]","trial_type":"two-door-navigation","trial_index":49,"time_elapsed":1301320,"internal_node_id":"0.0-2.0-47.0"},{"group":"hexagon_bi","room_assignment":["grey","purple","blue","yellow","red","green"],"door_color_assignment":["black","white"],"door_generator_assignment":[1,0],"goal":5,"start":1,"action_noise":0,"location_history":"[1,2,3,4,5]","action_history":"[0,1,0,1]","door_history":"[1,0,1,0]","location_rts":"[1846,505,574,481]","trial_type":"two-door-navigation","trial_index":50,"time_elapsed":1312736,"internal_node_id":"0.0-2.0-48.0"},{"group":"hexagon_bi","room_assignment":["grey","purple","blue","yellow","red","green"],"door_color_assignment":["black","white"],"door_generator_assignment":[1,0],"goal":3,"start":5,"action_noise":0,"location_history":"[5,0,5,4,5,0,1,2,3]","action_history":"[0,0,1,1,0,1,0,1]","door_history":"[1,1,0,0,1,0,1,0]","location_rts":"[1997,888,252,351,945,141,319,349]","trial_type":"two-door-navigation","trial_index":51,"time_elapsed":1329996,"internal_node_id":"0.0-2.0-49.0"},{"view_history":"[{\"page_index\":0,\"viewing_time\":1206}]","rt":1207,"trial_type":"instructions","trial_index":52,"time_elapsed":1332203,"internal_node_id":"0.0-3.0"},{"view_history":"[{\"page_index\":0,\"viewing_time\":959},{\"page_index\":1,\"viewing_time\":2455}]","rt":3415,"trial_type":"instructions","trial_index":53,"time_elapsed":1336618,"internal_node_id":"0.0-4.0"},{"group":"hexagon_tri","fractal_assignment":["../images/cyn_red.png","../images/blu_wht.png","../images/pnk_blu.png","../images/gry_blk.png","../images/org_blu.png","../images/ylw_slt.png"],"mutagen_generator_assignment":[0,1],"goal":3,"start":5,"action_noise":0,"location_history":"[5,0,5,4,2,1,5,4,2,3]","action_history":"[1,0,0,1,0,1,0,1,1]","mutagen_history":"[1,0,0,1,0,1,0,1,1]","location_rts":"[6805,603,733,515,832,535,827,581,273]","trial_type":"fractal-mutation","trial_index":54,"time_elapsed":1361747,"internal_node_id":"0.0-5.0-0.0"},{"group":"hexagon_tri","fractal_assignment":["../images/cyn_red.png","../images/blu_wht.png","../images/pnk_blu.png","../images/gry_blk.png","../images/org_blu.png","../images/ylw_slt.png"],"mutagen_generator_assignment":[0,1],"goal":1,"start":3,"action_noise":0,"location_history":"[3,2,3,4,2,1]","action_history":"[0,1,1,1,0]","mutagen_history":"[0,1,1,1,0]","location_rts":"[2943,413,554,551,520]","trial_type":"fractal-mutation","trial_index":55,"time_elapsed":1375987,"internal_node_id":"0.0-5.0-1.0"},{"group":"hexagon_tri","fractal_assignment":["../images/cyn_red.png","../images/blu_wht.png","../images/pnk_blu.png","../images/gry_blk.png","../images/org_blu.png","../images/ylw_slt.png"],"mutagen_generator_assignment":[0,1],"goal":0,"start":1,"action_noise":0,"location_history":"[1,3,4,2,1,3,2,3,2,1,5,0]","action_history":"[0,1,1,0,0,0,1,0,0,1,1]","mutagen_history":"[0,1,1,0,0,0,1,0,0,1,1]","location_rts":"[1552,398,782,601,709,674,388,761,384,563,838]","trial_type":"fractal-mutation","trial_index":56,"time_elapsed":1399070,"internal_node_id":"0.0-5.0-2.0"},{"group":"hexagon_tri","fractal_assignment":["../images/cyn_red.png","../images/blu_wht.png","../images/pnk_blu.png","../images/gry_blk.png","../images/org_blu.png","../images/ylw_slt.png"],"mutagen_generator_assignment":[0,1],"goal":3,"start":0,"action_noise":0,"location_history":"[0,1,3]","action_history":"[1,0]","mutagen_history":"[1,0]","location_rts":"[1657,2668]","trial_type":"fractal-mutation","trial_index":57,"time_elapsed":1409479,"internal_node_id":"0.0-5.0-3.0"},{"group":"hexagon_tri","fractal_assignment":["../images/cyn_red.png","../images/blu_wht.png","../images/pnk_blu.png","../images/gry_blk.png","../images/org_blu.png","../images/ylw_slt.png"],"mutagen_generator_assignment":[0,1],"goal":4,"start":3,"action_noise":0,"location_history":"[3,4]","action_history":"[1]","mutagen_history":"[1]","location_rts":"[688]","trial_type":"fractal-mutation","trial_index":58,"time_elapsed":1415218,"internal_node_id":"0.0-5.0-4.0"},{"group":"hexagon_tri","fractal_assignment":["../images/cyn_red.png","../images/blu_wht.png","../images/pnk_blu.png","../images/gry_blk.png","../images/org_blu.png","../images/ylw_slt.png"],"mutagen_generator_assignment":[0,1],"goal":2,"start":4,"action_noise":0,"location_history":"[4,0,1,5,4,2]","action_history":"[0,1,1,0,1]","mutagen_history":"[0,1,1,0,1]","location_rts":"[445,404,1595,576,553]","trial_type":"fractal-mutation","trial_index":59,"time_elapsed":1427983,"internal_node_id":"0.0-5.0-5.0"},{"group":"hexagon_tri","fractal_assignment":["../images/cyn_red.png","../images/blu_wht.png","../images/pnk_blu.png","../images/gry_blk.png","../images/org_blu.png","../images/ylw_slt.png"],"mutagen_generator_assignment":[0,1],"goal":1,"start":2,"action_noise":0,"location_history":"[2,1]","action_history":"[0]","mutagen_history":"[0]","location_rts":"[1444]","trial_type":"fractal-mutation","trial_index":60,"time_elapsed":1434512,"internal_node_id":"0.0-5.0-6.0"},{"group":"hexagon_tri","fractal_assignment":["../images/cyn_red.png","../images/blu_wht.png","../images/pnk_blu.png","../images/gry_blk.png","../images/org_blu.png","../images/ylw_slt.png"],"mutagen_generator_assignment":[0,1],"goal":5,"start":1,"action_noise":0,"location_history":"[1,5]","action_history":"[1]","mutagen_history":"[1]","location_rts":"[510]","trial_type":"fractal-mutation","trial_index":61,"time_elapsed":1440078,"internal_node_id":"0.0-5.0-7.0"},{"group":"hexagon_tri","fractal_assignment":["../images/cyn_red.png","../images/blu_wht.png","../images/pnk_blu.png","../images/gry_blk.png","../images/org_blu.png","../images/ylw_slt.png"],"mutagen_generator_assignment":[0,1],"goal":4,"start":5,"action_noise":0,"location_history":"[5,4]","action_history":"[0]","mutagen_history":"[0]","location_rts":"[1983]","trial_type":"fractal-mutation","trial_index":62,"time_elapsed":1447089,"internal_node_id":"0.0-5.0-8.0"},{"group":"hexagon_tri","fractal_assignment":["../images/cyn_red.png","../images/blu_wht.png","../images/pnk_blu.png","../images/gry_blk.png","../images/org_blu.png","../images/ylw_slt.png"],"mutagen_generator_assignment":[0,1],"goal":2,"start":4,"action_noise":0,"location_history":"[4,2]","action_history":"[1]","mutagen_history":"[1]","location_rts":"[1656]","trial_type":"fractal-mutation","trial_index":63,"time_elapsed":1453797,"internal_node_id":"0.0-5.0-9.0"},{"group":"hexagon_tri","fractal_assignment":["../images/cyn_red.png","../images/blu_wht.png","../images/pnk_blu.png","../images/gry_blk.png","../images/org_blu.png","../images/ylw_slt.png"],"mutagen_generator_assignment":[0,1],"goal":0,"start":2,"action_noise":0,"location_history":"[2,1,5,0]","action_history":"[0,1,1]","mutagen_history":"[0,1,1]","location_rts":"[1506,431,494]","trial_type":"fractal-mutation","trial_index":64,"time_elapsed":1463345,"internal_node_id":"0.0-5.0-10.0"},{"group":"hexagon_tri","fractal_assignment":["../images/cyn_red.png","../images/blu_wht.png","../images/pnk_blu.png","../images/gry_blk.png","../images/org_blu.png","../images/ylw_slt.png"],"mutagen_generator_assignment":[0,1],"goal":1,"start":0,"action_noise":0,"location_history":"[0,1]","action_history":"[1]","mutagen_history":"[1]","location_rts":"[699]","trial_type":"fractal-mutation","trial_index":65,"time_elapsed":1469126,"internal_node_id":"0.0-5.0-11.0"},{"group":"hexagon_tri","fractal_assignment":["../images/cyn_red.png","../images/blu_wht.png","../images/pnk_blu.png","../images/gry_blk.png","../images/org_blu.png","../images/ylw_slt.png"],"mutagen_generator_assignment":[0,1],"goal":3,"start":1,"action_noise":0,"location_history":"[1,5,4,2,1,5,0,5,4,0,5,4,2,3]","action_history":"[1,0,1,0,1,1,0,0,0,0,0,1,1]","mutagen_history":"[1,0,1,0,1,1,0,0,0,0,0,1,1]","location_rts":"[402,380,505,942,804,224,1164,512,796,132,680,420,568]","trial_type":"fractal-mutation","trial_index":66,"time_elapsed":1494133,"internal_node_id":"0.0-5.0-12.0"},{"group":"hexagon_tri","fractal_assignment":["../images/cyn_red.png","../images/blu_wht.png","../images/pnk_blu.png","../images/gry_blk.png","../images/org_blu.png","../images/ylw_slt.png"],"mutagen_generator_assignment":[0,1],"goal":5,"start":3,"action_noise":0,"location_history":"[3,4,0,5]","action_history":"[1,0,0]","mutagen_history":"[1,0,0]","location_rts":"[2509,361,552]","trial_type":"fractal-mutation","trial_index":67,"time_elapsed":1504710,"internal_node_id":"0.0-5.0-13.0"},{"group":"hexagon_tri","fractal_assignment":["../images/cyn_red.png","../images/blu_wht.png","../images/pnk_blu.png","../images/gry_blk.png","../images/org_blu.png","../images/ylw_slt.png"],"mutagen_generator_assignment":[0,1],"goal":4,"start":5,"action_noise":0,"location_history":"[5,4]","action_history":"[0]","mutagen_history":"[0]","location_rts":"[1794]","trial_type":"fractal-mutation","trial_index":68,"time_elapsed":1511535,"internal_node_id":"0.0-5.0-14.0"},{"group":"hexagon_tri","fractal_assignment":["../images/cyn_red.png","../images/blu_wht.png","../images/pnk_blu.png","../images/gry_blk.png","../images/org_blu.png","../images/ylw_slt.png"],"mutagen_generator_assignment":[0,1],"goal":0,"start":4,"action_noise":0,"location_history":"[4,0]","action_history":"[0]","mutagen_history":"[0]","location_rts":"[1308]","trial_type":"fractal-mutation","trial_index":69,"time_elapsed":1517879,"internal_node_id":"0.0-5.0-15.0"},{"group":"hexagon_tri","fractal_assignment":["../images/cyn_red.png","../images/blu_wht.png","../images/pnk_blu.png","../images/gry_blk.png","../images/org_blu.png","../images/ylw_slt.png"],"mutagen_generator_assignment":[0,1],"goal":3,"start":0,"action_noise":0,"location_history":"[0,1,3]","action_history":"[1,0]","mutagen_history":"[1,0]","location_rts":"[2630,474]","trial_type":"fractal-mutation","trial_index":70,"time_elapsed":1527161,"internal_node_id":"0.0-5.0-16.0"},{"group":"hexagon_tri","fractal_assignment":["../images/cyn_red.png","../images/blu_wht.png","../images/pnk_blu.png","../images/gry_blk.png","../images/org_blu.png","../images/ylw_slt.png"],"mutagen_generator_assignment":[0,1],"goal":1,"start":3,"action_noise":0,"location_history":"[3,2,3,4,0,5,0,1]","action_history":"[0,1,1,0,0,1,1]","mutagen_history":"[0,1,1,0,0,1,1]","location_rts":"[3349,553,486,567,583,715,907]","trial_type":"fractal-mutation","trial_index":71,"time_elapsed":1545614,"internal_node_id":"0.0-5.0-17.0"},{"group":"hexagon_tri","fractal_assignment":["../images/cyn_red.png","../images/blu_wht.png","../images/pnk_blu.png","../images/gry_blk.png","../images/org_blu.png","../images/ylw_slt.png"],"mutagen_generator_assignment":[0,1],"goal":5,"start":1,"action_noise":0,"location_history":"[1,3,4,0,5]","action_history":"[0,1,0,0]","mutagen_history":"[0,1,0,0]","location_rts":"[5165,406,628,474]","trial_type":"fractal-mutation","trial_index":72,"time_elapsed":1560410,"internal_node_id":"0.0-5.0-18.0"},{"group":"hexagon_tri","fractal_assignment":["../images/cyn_red.png","../images/blu_wht.png","../images/pnk_blu.png","../images/gry_blk.png","../images/org_blu.png","../images/ylw_slt.png"],"mutagen_generator_assignment":[0,1],"goal":2,"start":5,"action_noise":0,"location_history":"[5,0,1,5,4,0,1,5,0,1,3,2]","action_history":"[1,1,1,0,0,1,1,1,1,0,0]","mutagen_history":"[1,1,1,0,0,1,1,1,1,0,0]","location_rts":"[4449,588,1134,640,810,585,772,818,451,551,551]","trial_type":"fractal-mutation","trial_index":73,"time_elapsed":1587215,"internal_node_id":"0.0-5.0-19.0"},{"group":"hexagon_tri","fractal_assignment":["../images/cyn_red.png","../images/blu_wht.png","../images/pnk_blu.png","../images/gry_blk.png","../images/org_blu.png","../images/ylw_slt.png"],"mutagen_generator_assignment":[0,1],"goal":4,"start":2,"action_noise":0,"location_history":"[2,1,5,0,1,3,2,1,5,4]","action_history":"[0,1,1,1,0,0,0,1,0]","mutagen_history":"[0,1,1,1,0,0,0,1,0]","location_rts":"[1280,500,667,325,329,398,405,355,522]","trial_type":"fractal-mutation","trial_index":74,"time_elapsed":1605328,"internal_node_id":"0.0-5.0-20.0"},{"group":"hexagon_tri","fractal_assignment":["../images/cyn_red.png","../images/blu_wht.png","../images/pnk_blu.png","../images/gry_blk.png","../images/org_blu.png","../images/ylw_slt.png"],"mutagen_generator_assignment":[0,1],"goal":1,"start":4,"action_noise":0,"location_history":"[4,0,1]","action_history":"[0,1]","mutagen_history":"[0,1]","location_rts":"[1137,426]","trial_type":"fractal-mutation","trial_index":75,"time_elapsed":1612967,"internal_node_id":"0.0-5.0-21.0"},{"group":"hexagon_tri","fractal_assignment":["../images/cyn_red.png","../images/blu_wht.png","../images/pnk_blu.png","../images/gry_blk.png","../images/org_blu.png","../images/ylw_slt.png"],"mutagen_generator_assignment":[0,1],"goal":3,"start":1,"action_noise":0,"location_history":"[1,5,4,2,3]","action_history":"[1,0,1,1]","mutagen_history":"[1,0,1,1]","location_rts":"[396,570,427,820]","trial_type":"fractal-mutation","trial_index":76,"time_elapsed":1623369,"internal_node_id":"0.0-5.0-22.0"},{"group":"hexagon_tri","fractal_assignment":["../images/cyn_red.png","../images/blu_wht.png","../images/pnk_blu.png","../images/gry_blk.png","../images/org_blu.png","../images/ylw_slt.png"],"mutagen_generator_assignment":[0,1],"goal":2,"start":3,"action_noise":0,"location_history":"[3,4,0,1,3,4,2]","action_history":"[1,0,1,0,1,1]","mutagen_history":"[1,0,1,0,1,1]","location_rts":"[1921,385,907,701,393,297]","trial_type":"fractal-mutation","trial_index":77,"time_elapsed":1638226,"internal_node_id":"0.0-5.0-23.0"},{"group":"hexagon_tri","fractal_assignment":["../images/cyn_red.png","../images/blu_wht.png","../images/pnk_blu.png","../images/gry_blk.png","../images/org_blu.png","../images/ylw_slt.png"],"mutagen_generator_assignment":[0,1],"goal":0,"start":2,"action_noise":0,"location_history":"[2,3,2,3,4,0]","action_history":"[1,0,1,1,0]","mutagen_history":"[1,0,1,1,0]","location_rts":"[906,154,903,480,372]","trial_type":"fractal-mutation","trial_index":78,"time_elapsed":1650245,"internal_node_id":"0.0-5.0-24.0"},{"group":"hexagon_tri","fractal_assignment":["../images/cyn_red.png","../images/blu_wht.png","../images/pnk_blu.png","../images/gry_blk.png","../images/org_blu.png","../images/ylw_slt.png"],"mutagen_generator_assignment":[0,1],"goal":5,"start":0,"action_noise":0,"location_history":"[0,5]","action_history":"[0]","mutagen_history":"[0]","location_rts":"[953]","trial_type":"fractal-mutation","trial_index":79,"time_elapsed":1656225,"internal_node_id":"0.0-5.0-25.0"},{"group":"hexagon_tri","fractal_assignment":["../images/cyn_red.png","../images/blu_wht.png","../images/pnk_blu.png","../images/gry_blk.png","../images/org_blu.png","../images/ylw_slt.png"],"mutagen_generator_assignment":[0,1],"goal":2,"start":5,"action_noise":0,"location_history":"[5,0,1,3,4,0,5,4,2]","action_history":"[1,1,0,1,0,0,0,1]","mutagen_history":"[1,1,0,1,0,0,0,1]","location_rts":"[1181,418,472,444,520,548,495,118]","trial_type":"fractal-mutation","trial_index":80,"time_elapsed":1672706,"internal_node_id":"0.0-5.0-26.0"},{"group":"hexagon_tri","fractal_assignment":["../images/cyn_red.png","../images/blu_wht.png","../images/pnk_blu.png","../images/gry_blk.png","../images/org_blu.png","../images/ylw_slt.png"],"mutagen_generator_assignment":[0,1],"goal":3,"start":2,"action_noise":0,"location_history":"[2,1,5,0,5,0,1,3]","action_history":"[0,1,1,0,1,1,0]","mutagen_history":"[0,1,1,0,1,1,0]","location_rts":"[435,499,628,462,425,606,252]","trial_type":"fractal-mutation","trial_index":81,"time_elapsed":1687274,"internal_node_id":"0.0-5.0-27.0"},{"group":"hexagon_tri","fractal_assignment":["../images/cyn_red.png","../images/blu_wht.png","../images/pnk_blu.png","../images/gry_blk.png","../images/org_blu.png","../images/ylw_slt.png"],"mutagen_generator_assignment":[0,1],"goal":0,"start":3,"action_noise":0,"location_history":"[3,2,3,2,1,5,4,0]","action_history":"[0,1,0,0,1,0,0]","mutagen_history":"[0,1,0,0,1,0,0]","location_rts":"[770,392,639,165,627,116,477]","trial_type":"fractal-mutation","trial_index":82,"time_elapsed":1701687,"internal_node_id":"0.0-5.0-28.0"},{"group":"hexagon_tri","fractal_assignment":["../images/cyn_red.png","../images/blu_wht.png","../images/pnk_blu.png","../images/gry_blk.png","../images/org_blu.png","../images/ylw_slt.png"],"mutagen_generator_assignment":[0,1],"goal":1,"start":0,"action_noise":0,"location_history":"[0,1]","action_history":"[1]","mutagen_history":"[1]","location_rts":"[760]","trial_type":"fractal-mutation","trial_index":83,"time_elapsed":1707496,"internal_node_id":"0.0-5.0-29.0"},{"group":"hexagon_tri","fractal_assignment":["../images/cyn_red.png","../images/blu_wht.png","../images/pnk_blu.png","../images/gry_blk.png","../images/org_blu.png","../images/ylw_slt.png"],"mutagen_generator_assignment":[0,1],"goal":4,"start":1,"action_noise":0,"location_history":"[1,3,2,3,2,1,3,4]","action_history":"[0,0,1,0,0,0,1]","mutagen_history":"[0,0,1,0,0,0,1]","location_rts":"[1559,1229,531,481,255,1090,954]","trial_type":"fractal-mutation","trial_index":84,"time_elapsed":1724821,"internal_node_id":"0.0-5.0-30.0"},{"group":"hexagon_tri","fractal_assignment":["../images/cyn_red.png","../images/blu_wht.png","../images/pnk_blu.png","../images/gry_blk.png","../images/org_blu.png","../images/ylw_slt.png"],"mutagen_generator_assignment":[0,1],"goal":5,"start":4,"action_noise":0,"location_history":"[4,2,1,3,4,2,3,2,3,4,0,1,3,2,3,2,1,3,2,3,4,0,1,3,4,2,1,5]","action_history":"[1,0,0,1,1,1,0,1,1,0,1,0,0,1,0,0,0,0,1,1,0,1,0,1,1,0,1]","mutagen_history":"[1,0,0,1,1,1,0,1,1,0,1,0,0,1,0,0,0,0,1,1,0,1,0,1,1,0,1]","location_rts":"[810,482,955,296,807,685,445,396,480,231,823,456,511,100,541,356,474,608,174,462,328,1341,828,416,572,266,1793]","trial_type":"fractal-mutation","trial_index":85,"time_elapsed":1772440,"internal_node_id":"0.0-5.0-31.0"},{"group":"hexagon_tri","fractal_assignment":["../images/cyn_red.png","../images/blu_wht.png","../images/pnk_blu.png","../images/gry_blk.png","../images/org_blu.png","../images/ylw_slt.png"],"mutagen_generator_assignment":[0,1],"goal":0,"start":5,"action_noise":0,"location_history":"[5,0]","action_history":"[1]","mutagen_history":"[1]","location_rts":"[266]","trial_type":"fractal-mutation","trial_index":86,"time_elapsed":1777754,"internal_node_id":"0.0-5.0-32.0"},{"group":"hexagon_tri","fractal_assignment":["../images/cyn_red.png","../images/blu_wht.png","../images/pnk_blu.png","../images/gry_blk.png","../images/org_blu.png","../images/ylw_slt.png"],"mutagen_generator_assignment":[0,1],"goal":3,"start":0,"action_noise":0,"location_history":"[0,1,3]","action_history":"[1,0]","mutagen_history":"[1,0]","location_rts":"[172,441]","trial_type":"fractal-mutation","trial_index":87,"time_elapsed":1784463,"internal_node_id":"0.0-5.0-33.0"},{"group":"hexagon_tri","fractal_assignment":["../images/cyn_red.png","../images/blu_wht.png","../images/pnk_blu.png","../images/gry_blk.png","../images/org_blu.png","../images/ylw_slt.png"],"mutagen_generator_assignment":[0,1],"goal":1,"start":3,"action_noise":0,"location_history":"[3,4,0,5,0,1]","action_history":"[1,0,0,1,1]","mutagen_history":"[1,0,0,1,1]","location_rts":"[85,418,670,229,539]","trial_type":"fractal-mutation","trial_index":88,"time_elapsed":1795620,"internal_node_id":"0.0-5.0-34.0"},{"group":"hexagon_tri","fractal_assignment":["../images/cyn_red.png","../images/blu_wht.png","../images/pnk_blu.png","../images/gry_blk.png","../images/org_blu.png","../images/ylw_slt.png"],"mutagen_generator_assignment":[0,1],"goal":2,"start":1,"action_noise":0,"location_history":"[1,3,4,0,5,0,1,5,0,5,0,1,5,0,5,0,5,4,0,1,3,4,0,1,5,0,5,4,2]","action_history":"[0,1,0,0,1,1,1,1,0,1,1,1,1,0,1,0,0,0,1,0,1,0,1,1,1,0,0,1]","mutagen_history":"[0,1,0,0,1,1,1,1,0,1,1,1,1,0,1,0,0,0,1,0,1,0,1,1,1,0,0,1]","location_rts":"[1248,471,521,573,612,595,331,428,267,325,284,939,575,47,308,993,502,415,351,564,291,658,394,333,846,147,1372,843]","trial_type":"fractal-mutation","trial_index":89,"time_elapsed":1843929,"internal_node_id":"0.0-5.0-35.0"},{"group":"hexagon_tri","fractal_assignment":["../images/cyn_red.png","../images/blu_wht.png","../images/pnk_blu.png","../images/gry_blk.png","../images/org_blu.png","../images/ylw_slt.png"],"mutagen_generator_assignment":[0,1],"goal":4,"start":2,"action_noise":0,"location_history":"[2,1,5,4]","action_history":"[0,1,0]","mutagen_history":"[0,1,0]","location_rts":"[1293,501,866]","trial_type":"fractal-mutation","trial_index":90,"time_elapsed":1853683,"internal_node_id":"0.0-5.0-36.0"},{"group":"hexagon_tri","fractal_assignment":["../images/cyn_red.png","../images/blu_wht.png","../images/pnk_blu.png","../images/gry_blk.png","../images/org_blu.png","../images/ylw_slt.png"],"mutagen_generator_assignment":[0,1],"goal":5,"start":4,"action_noise":0,"location_history":"[4,0,1,3,4,2,1,3,4,2,3,4,0,5]","action_history":"[0,1,0,1,1,0,0,1,1,1,1,0,0]","mutagen_history":"[0,1,0,1,1,0,0,1,1,1,1,0,0]","location_rts":"[121,530,1521,395,633,387,1010,409,484,413,362,268,318]","trial_type":"fractal-mutation","trial_index":91,"time_elapsed":1878011,"internal_node_id":"0.0-5.0-37.0"},{"group":"hexagon_tri","fractal_assignment":["../images/cyn_red.png","../images/blu_wht.png","../images/pnk_blu.png","../images/gry_blk.png","../images/org_blu.png","../images/ylw_slt.png"],"mutagen_generator_assignment":[0,1],"goal":1,"start":5,"action_noise":0,"location_history":"[5,0,5,4,0,1]","action_history":"[1,0,0,0,1]","mutagen_history":"[1,0,0,0,1]","location_rts":"[593,341,470,396,244]","trial_type":"fractal-mutation","trial_index":92,"time_elapsed":1889235,"internal_node_id":"0.0-5.0-38.0"},{"group":"hexagon_tri","fractal_assignment":["../images/cyn_red.png","../images/blu_wht.png","../images/pnk_blu.png","../images/gry_blk.png","../images/org_blu.png","../images/ylw_slt.png"],"mutagen_generator_assignment":[0,1],"goal":4,"start":1,"action_noise":0,"location_history":"[1,3,4]","action_history":"[0,1]","mutagen_history":"[0,1]","location_rts":"[176,731]","trial_type":"fractal-mutation","trial_index":93,"time_elapsed":1896216,"internal_node_id":"0.0-5.0-39.0"},{"group":"hexagon_tri","fractal_assignment":["../images/cyn_red.png","../images/blu_wht.png","../images/pnk_blu.png","../images/gry_blk.png","../images/org_blu.png","../images/ylw_slt.png"],"mutagen_generator_assignment":[0,1],"goal":3,"start":4,"action_noise":0,"location_history":"[4,0,1,3]","action_history":"[0,1,0]","mutagen_history":"[0,1,0]","location_rts":"[327,436,420]","trial_type":"fractal-mutation","trial_index":94,"time_elapsed":1904502,"internal_node_id":"0.0-5.0-40.0"},{"group":"hexagon_tri","fractal_assignment":["../images/cyn_red.png","../images/blu_wht.png","../images/pnk_blu.png","../images/gry_blk.png","../images/org_blu.png","../images/ylw_slt.png"],"mutagen_generator_assignment":[0,1],"goal":2,"start":3,"action_noise":0,"location_history":"[3,2]","action_history":"[0]","mutagen_history":"[0]","location_rts":"[751]","trial_type":"fractal-mutation","trial_index":95,"time_elapsed":1910282,"internal_node_id":"0.0-5.0-41.0"},{"group":"hexagon_tri","fractal_assignment":["../images/cyn_red.png","../images/blu_wht.png","../images/pnk_blu.png","../images/gry_blk.png","../images/org_blu.png","../images/ylw_slt.png"],"mutagen_generator_assignment":[0,1],"goal":0,"start":2,"action_noise":0,"location_history":"[2,3,2,1,5,4,0]","action_history":"[1,0,0,1,0,0]","mutagen_history":"[1,0,0,1,0,0]","location_rts":"[943,471,646,608,827,478]","trial_type":"fractal-mutation","trial_index":96,"time_elapsed":1924469,"internal_node_id":"0.0-5.0-42.0"},{"group":"hexagon_tri","fractal_assignment":["../images/cyn_red.png","../images/blu_wht.png","../images/pnk_blu.png","../images/gry_blk.png","../images/org_blu.png","../images/ylw_slt.png"],"mutagen_generator_assignment":[0,1],"goal":5,"start":0,"action_noise":0,"location_history":"[0,5]","action_history":"[0]","mutagen_history":"[0]","location_rts":"[725]","trial_type":"fractal-mutation","trial_index":97,"time_elapsed":1930219,"internal_node_id":"0.0-5.0-43.0"},{"group":"hexagon_tri","fractal_assignment":["../images/cyn_red.png","../images/blu_wht.png","../images/pnk_blu.png","../images/gry_blk.png","../images/org_blu.png","../images/ylw_slt.png"],"mutagen_generator_assignment":[0,1],"goal":0,"start":5,"action_noise":0,"location_history":"[5,0]","action_history":"[1]","mutagen_history":"[1]","location_rts":"[165]","trial_type":"fractal-mutation","trial_index":98,"time_elapsed":1935430,"internal_node_id":"0.0-5.0-44.0"},{"group":"hexagon_tri","fractal_assignment":["../images/cyn_red.png","../images/blu_wht.png","../images/pnk_blu.png","../images/gry_blk.png","../images/org_blu.png","../images/ylw_slt.png"],"mutagen_generator_assignment":[0,1],"goal":2,"start":0,"action_noise":0,"location_history":"[0,5,0,1,5,4,2]","action_history":"[0,1,1,1,0,1]","mutagen_history":"[0,1,1,1,0,1]","location_rts":"[10476,263,477,553,544,642]","trial_type":"fractal-mutation","trial_index":99,"time_elapsed":1958624,"internal_node_id":"0.0-5.0-45.0"},{"group":"hexagon_tri","fractal_assignment":["../images/cyn_red.png","../images/blu_wht.png","../images/pnk_blu.png","../images/gry_blk.png","../images/org_blu.png","../images/ylw_slt.png"],"mutagen_generator_assignment":[0,1],"goal":4,"start":2,"action_noise":0,"location_history":"[2,3,2,1,3,4]","action_history":"[1,0,0,0,1]","mutagen_history":"[1,0,0,0,1]","location_rts":"[14167,742,551,355,298]","trial_type":"fractal-mutation","trial_index":100,"time_elapsed":1983994,"internal_node_id":"0.0-5.0-46.0"},{"group":"hexagon_tri","fractal_assignment":["../images/cyn_red.png","../images/blu_wht.png","../images/pnk_blu.png","../images/gry_blk.png","../images/org_blu.png","../images/ylw_slt.png"],"mutagen_generator_assignment":[0,1],"goal":1,"start":4,"action_noise":0,"location_history":"[4,2,1]","action_history":"[1,0]","mutagen_history":"[1,0]","location_rts":"[9026,350]","trial_type":"fractal-mutation","trial_index":101,"time_elapsed":1999445,"internal_node_id":"0.0-5.0-47.0"},{"group":"hexagon_tri","fractal_assignment":["../images/cyn_red.png","../images/blu_wht.png","../images/pnk_blu.png","../images/gry_blk.png","../images/org_blu.png","../images/ylw_slt.png"],"mutagen_generator_assignment":[0,1],"goal":5,"start":1,"action_noise":0,"location_history":"[1,3,4,0,5]","action_history":"[0,1,0,0]","mutagen_history":"[0,1,0,0]","location_rts":"[8686,716,575,454]","trial_type":"fractal-mutation","trial_index":102,"time_elapsed":2018060,"internal_node_id":"0.0-5.0-48.0"},{"group":"hexagon_tri","fractal_assignment":["../images/cyn_red.png","../images/blu_wht.png","../images/pnk_blu.png","../images/gry_blk.png","../images/org_blu.png","../images/ylw_slt.png"],"mutagen_generator_assignment":[0,1],"goal":3,"start":5,"action_noise":0,"location_history":"[5,4,2,3]","action_history":"[0,1,1]","mutagen_history":"[0,1,1]","location_rts":"[4979,240,363]","trial_type":"fractal-mutation","trial_index":103,"time_elapsed":2030765,"internal_node_id":"0.0-5.0-49.0"},{"view_history":"[{\"page_index\":0,\"viewing_time\":3753}]","rt":3754,"trial_type":"instructions","trial_index":104,"time_elapsed":2035521,"internal_node_id":"0.0-6.0"},{"rt":6259,"responses":"{\"Q0\":\"no comment\"}","trial_type":"survey-text","trial_index":105,"time_elapsed":2042791,"internal_node_id":"0.0-7.0"}]