[{"view_history":"[{\"page_index\":0,\"viewing_time\":704024},{\"page_index\":1,\"viewing_time\":5311}]","rt":709336,"trial_type":"instructions","trial_index":0,"time_elapsed":709337,"internal_node_id":"0.0-0.0"},{"view_history":"[{\"page_index\":0,\"viewing_time\":1255},{\"page_index\":1,\"viewing_time\":6535}]","rt":7790,"trial_type":"instructions","trial_index":1,"time_elapsed":718129,"internal_node_id":"0.0-1.0"},{"group":"hexagon_tri","room_assignment":["purple","red","blue","yellow","grey","green"],"door_color_assignment":["black","white"],"door_generator_assignment":[1,0],"goal":3,"start":5,"action_noise":0,"location_history":"[5,0,1,5,4,2,3]","action_history":"[1,1,1,0,1,1]","door_history":"[0,0,0,1,0,0]","location_rts":"[53329,21555,16332,11060,19844,18823]","trial_type":"two-door-navigation","trial_index":2,"time_elapsed":869509,"internal_node_id":"0.0-2.0-0.0"},{"group":"hexagon_tri","room_assignment":["purple","red","blue","yellow","grey","green"],"door_color_assignment":["black","white"],"door_generator_assignment":[1,0],"goal":1,"start":3,"action_noise":0,"location_history":"[3,4,0,1]","action_history":"[1,0,1]","door_history":"[0,1,0]","location_rts":"[10495,8938,11319]","trial_type":"two-door-navigation","trial_index":3,"time_elapsed":907500,"internal_node_id":"0.0-2.0-1.0"},{"group":"hexagon_tri","room_assignment":["purple","red","blue","yellow","grey","green"],"door_color_assignment":["black","white"],"door_generator_assignment":[1,0],"goal":0,"start":1,"action_noise":0,"location_history":"[1,3,2,1,5,0]","action_history":"[0,0,0,1,1]","door_history":"[1,1,1,0,0]","location_rts":"[4136,9179,15481,14705,349]","trial_type":"two-door-navigation","trial_index":4,"time_elapsed":960589,"internal_node_id":"0.0-2.0-2.0"},{"group":"hexagon_tri","room_assignment":["purple","red","blue","yellow","grey","green"],"door_color_assignment":["black","white"],"door_generator_assignment":[1,0],"goal":3,"start":0,"action_noise":0,"location_history":"[0,5,4,2,3]","action_history":"[0,0,1,1]","door_history":"[1,1,0,0]","location_rts":"[249590,24882,3241,3758]","trial_type":"two-door-navigation","trial_index":5,"time_elapsed":1250254,"internal_node_id":"0.0-2.0-3.0"},{"group":"hexagon_tri","room_assignment":["purple","red","blue","yellow","grey","green"],"door_color_assignment":["black","white"],"door_generator_assignment":[1,0],"goal":4,"start":3,"action_noise":0,"location_history":"[3,4]","action_history":"[1]","door_history":"[0]","location_rts":"[4963]","trial_type":"two-door-navigation","trial_index":6,"time_elapsed":1260261,"internal_node_id":"0.0-2.0-4.0"},{"group":"hexagon_tri","room_assignment":["purple","red","blue","yellow","grey","green"],"door_color_assignment":["black","white"],"door_generator_assignment":[1,0],"goal":2,"start":4,"action_noise":0,"location_history":"[4,2]","action_history":"[1]","door_history":"[0]","location_rts":"[2775]","trial_type":"two-door-navigation","trial_index":7,"time_elapsed":1268101,"internal_node_id":"0.0-2.0-5.0"},{"group":"hexagon_tri","room_assignment":["purple","red","blue","yellow","grey","green"],"door_color_assignment":["black","white"],"door_generator_assignment":[1,0],"goal":1,"start":2,"action_noise":0,"location_history":"[2,1]","action_history":"[0]","door_history":"[1]","location_rts":"[10036]","trial_type":"two-door-navigation","trial_index":8,"time_elapsed":1283222,"internal_node_id":"0.0-2.0-6.0"},{"group":"hexagon_tri","room_assignment":["purple","red","blue","yellow","grey","green"],"door_color_assignment":["black","white"],"door_generator_assignment":[1,0],"goal":5,"start":1,"action_noise":0,"location_history":"[1,5]","action_history":"[1]","door_history":"[0]","location_rts":"[4693]","trial_type":"two-door-navigation","trial_index":9,"time_elapsed":1293001,"internal_node_id":"0.0-2.0-7.0"},{"group":"hexagon_tri","room_assignment":["purple","red","blue","yellow","grey","green"],"door_color_assignment":["black","white"],"door_generator_assignment":[1,0],"goal":4,"start":5,"action_noise":0,"location_history":"[5,4]","action_history":"[0]","door_history":"[1]","location_rts":"[5411]","trial_type":"two-door-navigation","trial_index":10,"time_elapsed":1303508,"internal_node_id":"0.0-2.0-8.0"},{"group":"hexagon_tri","room_assignment":["purple","red","blue","yellow","grey","green"],"door_color_assignment":["black","white"],"door_generator_assignment":[1,0],"goal":2,"start":4,"action_noise":0,"location_history":"[4,2]","action_history":"[1]","door_history":"[0]","location_rts":"[4022]","trial_type":"two-door-navigation","trial_index":11,"time_elapsed":1312590,"internal_node_id":"0.0-2.0-9.0"},{"group":"hexagon_tri","room_assignment":["purple","red","blue","yellow","grey","green"],"door_color_assignment":["black","white"],"door_generator_assignment":[1,0],"goal":0,"start":2,"action_noise":0,"location_history":"[2,1,5,0]","action_history":"[0,1,1]","door_history":"[1,0,0]","location_rts":"[6586,967,1807]","trial_type":"two-door-navigation","trial_index":12,"time_elapsed":1329088,"internal_node_id":"0.0-2.0-10.0"},{"group":"hexagon_tri","room_assignment":["purple","red","blue","yellow","grey","green"],"door_color_assignment":["black","white"],"door_generator_assignment":[1,0],"goal":1,"start":0,"action_noise":0,"location_history":"[0,1]","action_history":"[1]","door_history":"[0]","location_rts":"[8296]","trial_type":"two-door-navigation","trial_index":13,"time_elapsed":1342480,"internal_node_id":"0.0-2.0-11.0"},{"group":"hexagon_tri","room_assignment":["purple","red","blue","yellow","grey","green"],"door_color_assignment":["black","white"],"door_generator_assignment":[1,0],"goal":3,"start":1,"action_noise":0,"location_history":"[1,3]","action_history":"[0]","door_history":"[1]","location_rts":"[3979]","trial_type":"two-door-navigation","trial_index":14,"time_elapsed":1351542,"internal_node_id":"0.0-2.0-12.0"},{"group":"hexagon_tri","room_assignment":["purple","red","blue","yellow","grey","green"],"door_color_assignment":["black","white"],"door_generator_assignment":[1,0],"goal":5,"start":3,"action_noise":0,"location_history":"[3,2,3,4,2,1,5]","action_history":"[0,1,1,1,0,1]","door_history":"[1,0,0,0,1,0]","location_rts":"[2709,2938,2096,2141,9134,557]","trial_type":"two-door-navigation","trial_index":15,"time_elapsed":1381488,"internal_node_id":"0.0-2.0-13.0"},{"group":"hexagon_tri","room_assignment":["purple","red","blue","yellow","grey","green"],"door_color_assignment":["black","white"],"door_generator_assignment":[1,0],"goal":4,"start":5,"action_noise":0,"location_history":"[5,4]","action_history":"[0]","door_history":"[1]","location_rts":"[6071]","trial_type":"two-door-navigation","trial_index":16,"time_elapsed":1392643,"internal_node_id":"0.0-2.0-14.0"},{"group":"hexagon_tri","room_assignment":["purple","red","blue","yellow","grey","green"],"door_color_assignment":["black","white"],"door_generator_assignment":[1,0],"goal":0,"start":4,"action_noise":0,"location_history":"[4,0]","action_history":"[0]","door_history":"[1]","location_rts":"[9152]","trial_type":"two-door-navigation","trial_index":17,"time_elapsed":1406830,"internal_node_id":"0.0-2.0-15.0"},{"group":"hexagon_tri","room_assignment":["purple","red","blue","yellow","grey","green"],"door_color_assignment":["black","white"],"door_generator_assignment":[1,0],"goal":3,"start":0,"action_noise":0,"location_history":"[0,1,3]","action_history":"[1,0]","door_history":"[0,1]","location_rts":"[21974,1252]","trial_type":"two-door-navigation","trial_index":18,"time_elapsed":1436742,"internal_node_id":"0.0-2.0-16.0"},{"group":"hexagon_tri","room_assignment":["purple","red","blue","yellow","grey","green"],"door_color_assignment":["black","white"],"door_generator_assignment":[1,0],"goal":1,"start":3,"action_noise":0,"location_history":"[3,2,1]","action_history":"[0,0]","door_history":"[1,1]","location_rts":"[7820,200]","trial_type":"two-door-navigation","trial_index":19,"time_elapsed":1450890,"internal_node_id":"0.0-2.0-17.0"},{"group":"hexagon_tri","room_assignment":["purple","red","blue","yellow","grey","green"],"door_color_assignment":["black","white"],"door_generator_assignment":[1,0],"goal":5,"start":1,"action_noise":0,"location_history":"[1,5]","action_history":"[1]","door_history":"[0]","location_rts":"[7893]","trial_type":"two-door-navigation","trial_index":20,"time_elapsed":1463864,"internal_node_id":"0.0-2.0-18.0"},{"group":"hexagon_tri","room_assignment":["purple","red","blue","yellow","grey","green"],"door_color_assignment":["black","white"],"door_generator_assignment":[1,0],"goal":2,"start":5,"action_noise":0,"location_history":"[5,4,2]","action_history":"[0,1]","door_history":"[1,0]","location_rts":"[4524,2052]","trial_type":"two-door-navigation","trial_index":21,"time_elapsed":1476547,"internal_node_id":"0.0-2.0-19.0"},{"group":"hexagon_tri","room_assignment":["purple","red","blue","yellow","grey","green"],"door_color_assignment":["black","white"],"door_generator_assignment":[1,0],"goal":4,"start":2,"action_noise":0,"location_history":"[2,3,4]","action_history":"[1,1]","door_history":"[0,0]","location_rts":"[11085,627]","trial_type":"two-door-navigation","trial_index":22,"time_elapsed":1494418,"internal_node_id":"0.0-2.0-20.0"},{"group":"hexagon_tri","room_assignment":["purple","red","blue","yellow","grey","green"],"door_color_assignment":["black","white"],"door_generator_assignment":[1,0],"goal":1,"start":4,"action_noise":0,"location_history":"[4,0,1]","action_history":"[0,1]","door_history":"[1,0]","location_rts":"[4457,2211]","trial_type":"two-door-navigation","trial_index":23,"time_elapsed":1507220,"internal_node_id":"0.0-2.0-21.0"},{"group":"hexagon_tri","room_assignment":["purple","red","blue","yellow","grey","green"],"door_color_assignment":["black","white"],"door_generator_assignment":[1,0],"goal":3,"start":1,"action_noise":0,"location_history":"[1,3]","action_history":"[0]","door_history":"[1]","location_rts":"[3438]","trial_type":"two-door-navigation","trial_index":24,"time_elapsed":1515688,"internal_node_id":"0.0-2.0-22.0"},{"group":"hexagon_tri","room_assignment":["purple","red","blue","yellow","grey","green"],"door_color_assignment":["black","white"],"door_generator_assignment":[1,0],"goal":2,"start":3,"action_noise":0,"location_history":"[3,2]","action_history":"[0]","door_history":"[1]","location_rts":"[4010]","trial_type":"two-door-navigation","trial_index":25,"time_elapsed":1524779,"internal_node_id":"0.0-2.0-23.0"},{"group":"hexagon_tri","room_assignment":["purple","red","blue","yellow","grey","green"],"door_color_assignment":["black","white"],"door_generator_assignment":[1,0],"goal":0,"start":2,"action_noise":0,"location_history":"[2,1,5,0]","action_history":"[0,1,1]","door_history":"[1,0,0]","location_rts":"[11521,828,913]","trial_type":"two-door-navigation","trial_index":26,"time_elapsed":1545271,"internal_node_id":"0.0-2.0-24.0"},{"group":"hexagon_tri","room_assignment":["purple","red","blue","yellow","grey","green"],"door_color_assignment":["black","white"],"door_generator_assignment":[1,0],"goal":5,"start":0,"action_noise":0,"location_history":"[0,5]","action_history":"[0]","door_history":"[1]","location_rts":"[5998]","trial_type":"two-door-navigation","trial_index":27,"time_elapsed":1556349,"internal_node_id":"0.0-2.0-25.0"},{"group":"hexagon_tri","room_assignment":["purple","red","blue","yellow","grey","green"],"door_color_assignment":["black","white"],"door_generator_assignment":[1,0],"goal":2,"start":5,"action_noise":0,"location_history":"[5,4,2]","action_history":"[0,1]","door_history":"[1,0]","location_rts":"[5608,533]","trial_type":"two-door-navigation","trial_index":28,"time_elapsed":1568590,"internal_node_id":"0.0-2.0-26.0"},{"group":"hexagon_tri","room_assignment":["purple","red","blue","yellow","grey","green"],"door_color_assignment":["black","white"],"door_generator_assignment":[1,0],"goal":3,"start":2,"action_noise":0,"location_history":"[2,3]","action_history":"[1]","door_history":"[0]","location_rts":"[6044]","trial_type":"two-door-navigation","trial_index":29,"time_elapsed":1579678,"internal_node_id":"0.0-2.0-27.0"},{"group":"hexagon_tri","room_assignment":["purple","red","blue","yellow","grey","green"],"door_color_assignment":["black","white"],"door_generator_assignment":[1,0],"goal":0,"start":3,"action_noise":0,"location_history":"[3,4,0]","action_history":"[1,0]","door_history":"[0,1]","location_rts":"[6868,675]","trial_type":"two-door-navigation","trial_index":30,"time_elapsed":1593315,"internal_node_id":"0.0-2.0-28.0"},{"group":"hexagon_tri","room_assignment":["purple","red","blue","yellow","grey","green"],"door_color_assignment":["black","white"],"door_generator_assignment":[1,0],"goal":1,"start":0,"action_noise":0,"location_history":"[0,1]","action_history":"[1]","door_history":"[0]","location_rts":"[5747]","trial_type":"two-door-navigation","trial_index":31,"time_elapsed":1604098,"internal_node_id":"0.0-2.0-29.0"},{"group":"hexagon_tri","room_assignment":["purple","red","blue","yellow","grey","green"],"door_color_assignment":["black","white"],"door_generator_assignment":[1,0],"goal":4,"start":1,"action_noise":0,"location_history":"[1,3,4]","action_history":"[0,1]","door_history":"[1,0]","location_rts":"[9664,726]","trial_type":"two-door-navigation","trial_index":32,"time_elapsed":1620610,"internal_node_id":"0.0-2.0-30.0"},{"group":"hexagon_tri","room_assignment":["purple","red","blue","yellow","grey","green"],"door_color_assignment":["black","white"],"door_generator_assignment":[1,0],"goal":5,"start":4,"action_noise":0,"location_history":"[4,0,5]","action_history":"[0,0]","door_history":"[1,1]","location_rts":"[6356,263]","trial_type":"two-door-navigation","trial_index":33,"time_elapsed":1633356,"internal_node_id":"0.0-2.0-31.0"},{"group":"hexagon_tri","room_assignment":["purple","red","blue","yellow","grey","green"],"door_color_assignment":["black","white"],"door_generator_assignment":[1,0],"goal":0,"start":5,"action_noise":0,"location_history":"[5,0]","action_history":"[1]","door_history":"[0]","location_rts":"[6752]","trial_type":"two-door-navigation","trial_index":34,"time_elapsed":1645156,"internal_node_id":"0.0-2.0-32.0"},{"group":"hexagon_tri","room_assignment":["purple","red","blue","yellow","grey","green"],"door_color_assignment":["black","white"],"door_generator_assignment":[1,0],"goal":3,"start":0,"action_noise":0,"location_history":"[0,1,3]","action_history":"[1,0]","door_history":"[0,1]","location_rts":"[4859,577]","trial_type":"two-door-navigation","trial_index":35,"time_elapsed":1656676,"internal_node_id":"0.0-2.0-33.0"},{"group":"hexagon_tri","room_assignment":["purple","red","blue","yellow","grey","green"],"door_color_assignment":["black","white"],"door_generator_assignment":[1,0],"goal":1,"start":3,"action_noise":0,"location_history":"[3,2,1]","action_history":"[0,0]","door_history":"[1,1]","location_rts":"[6436,232]","trial_type":"two-door-navigation","trial_index":36,"time_elapsed":1669508,"internal_node_id":"0.0-2.0-34.0"},{"group":"hexagon_tri","room_assignment":["purple","red","blue","yellow","grey","green"],"door_color_assignment":["black","white"],"door_generator_assignment":[1,0],"goal":2,"start":1,"action_noise":0,"location_history":"[1,3,2]","action_history":"[0,0]","door_history":"[1,1]","location_rts":"[6550,299]","trial_type":"two-door-navigation","trial_index":37,"time_elapsed":1682519,"internal_node_id":"0.0-2.0-35.0"},{"group":"hexagon_tri","room_assignment":["purple","red","blue","yellow","grey","green"],"door_color_assignment":["black","white"],"door_generator_assignment":[1,0],"goal":4,"start":2,"action_noise":0,"location_history":"[2,3,4]","action_history":"[1,1]","door_history":"[0,0]","location_rts":"[6775,889]","trial_type":"two-door-navigation","trial_index":38,"time_elapsed":1696327,"internal_node_id":"0.0-2.0-36.0"},{"group":"hexagon_tri","room_assignment":["purple","red","blue","yellow","grey","green"],"door_color_assignment":["black","white"],"door_generator_assignment":[1,0],"goal":5,"start":4,"action_noise":0,"location_history":"[4,0,5]","action_history":"[0,0]","door_history":"[1,1]","location_rts":"[7310,334]","trial_type":"two-door-navigation","trial_index":39,"time_elapsed":1710123,"internal_node_id":"0.0-2.0-37.0"},{"group":"hexagon_tri","room_assignment":["purple","red","blue","yellow","grey","green"],"door_color_assignment":["black","white"],"door_generator_assignment":[1,0],"goal":1,"start":5,"action_noise":0,"location_history":"[5,0,1]","action_history":"[1,1]","door_history":"[0,0]","location_rts":"[6034,2512]","trial_type":"two-door-navigation","trial_index":40,"time_elapsed":1724824,"internal_node_id":"0.0-2.0-38.0"},{"group":"hexagon_tri","room_assignment":["purple","red","blue","yellow","grey","green"],"door_color_assignment":["black","white"],"door_generator_assignment":[1,0],"goal":4,"start":1,"action_noise":0,"location_history":"[1,3,4]","action_history":"[0,1]","door_history":"[1,0]","location_rts":"[4383,1108]","trial_type":"two-door-navigation","trial_index":41,"time_elapsed":1736425,"internal_node_id":"0.0-2.0-39.0"},{"group":"hexagon_tri","room_assignment":["purple","red","blue","yellow","grey","green"],"door_color_assignment":["black","white"],"door_generator_assignment":[1,0],"goal":3,"start":4,"action_noise":0,"location_history":"[4,2,3]","action_history":"[1,1]","door_history":"[0,0]","location_rts":"[8742,863]","trial_type":"two-door-navigation","trial_index":42,"time_elapsed":1752166,"internal_node_id":"0.0-2.0-40.0"},{"group":"hexagon_tri","room_assignment":["purple","red","blue","yellow","grey","green"],"door_color_assignment":["black","white"],"door_generator_assignment":[1,0],"goal":2,"start":3,"action_noise":0,"location_history":"[3,2]","action_history":"[0]","door_history":"[1]","location_rts":"[3996]","trial_type":"two-door-navigation","trial_index":43,"time_elapsed":1761202,"internal_node_id":"0.0-2.0-41.0"},{"group":"hexagon_tri","room_assignment":["purple","red","blue","yellow","grey","green"],"door_color_assignment":["black","white"],"door_generator_assignment":[1,0],"goal":0,"start":2,"action_noise":0,"location_history":"[2,1,5,0]","action_history":"[0,1,1]","door_history":"[1,0,0]","location_rts":"[4307,1636,627]","trial_type":"two-door-navigation","trial_index":44,"time_elapsed":1774923,"internal_node_id":"0.0-2.0-42.0"},{"group":"hexagon_tri","room_assignment":["purple","red","blue","yellow","grey","green"],"door_color_assignment":["black","white"],"door_generator_assignment":[1,0],"goal":5,"start":0,"action_noise":0,"location_history":"[0,1,5]","action_history":"[1,1]","door_history":"[0,0]","location_rts":"[4744,1491]","trial_type":"two-door-navigation","trial_index":45,"time_elapsed":1787251,"internal_node_id":"0.0-2.0-43.0"},{"group":"hexagon_tri","room_assignment":["purple","red","blue","yellow","grey","green"],"door_color_assignment":["black","white"],"door_generator_assignment":[1,0],"goal":0,"start":5,"action_noise":0,"location_history":"[5,0]","action_history":"[1]","door_history":"[0]","location_rts":"[2597]","trial_type":"two-door-navigation","trial_index":46,"time_elapsed":1794884,"internal_node_id":"0.0-2.0-44.0"},{"group":"hexagon_tri","room_assignment":["purple","red","blue","yellow","grey","green"],"door_color_assignment":["black","white"],"door_generator_assignment":[1,0],"goal":2,"start":0,"action_noise":0,"location_history":"[0,1,3,2]","action_history":"[1,0,0]","door_history":"[0,1,1]","location_rts":"[6500,515,670]","trial_type":"two-door-navigation","trial_index":47,"time_elapsed":1809691,"internal_node_id":"0.0-2.0-45.0"},{"group":"hexagon_tri","room_assignment":["purple","red","blue","yellow","grey","green"],"door_color_assignment":["black","white"],"door_generator_assignment":[1,0],"goal":4,"start":2,"action_noise":0,"location_history":"[2,3,2,3,4]","action_history":"[1,0,1,1]","door_history":"[0,1,0,0]","location_rts":"[6009,1604,978,264]","trial_type":"two-door-navigation","trial_index":48,"time_elapsed":1826720,"internal_node_id":"0.0-2.0-46.0"},{"group":"hexagon_tri","room_assignment":["purple","red","blue","yellow","grey","green"],"door_color_assignment":["black","white"],"door_generator_assignment":[1,0],"goal":1,"start":4,"action_noise":0,"location_history":"[4,0,1]","action_history":"[0,1]","door_history":"[1,0]","location_rts":"[4572,2449]","trial_type":"two-door-navigation","trial_index":49,"time_elapsed":1839840,"internal_node_id":"0.0-2.0-47.0"},{"group":"hexagon_tri","room_assignment":["purple","red","blue","yellow","grey","green"],"door_color_assignment":["black","white"],"door_generator_assignment":[1,0],"goal":5,"start":1,"action_noise":0,"location_history":"[1,5]","action_history":"[1]","door_history":"[0]","location_rts":"[4282]","trial_type":"two-door-navigation","trial_index":50,"time_elapsed":1849178,"internal_node_id":"0.0-2.0-48.0"},{"group":"hexagon_tri","room_assignment":["purple","red","blue","yellow","grey","green"],"door_color_assignment":["black","white"],"door_generator_assignment":[1,0],"goal":3,"start":5,"action_noise":0,"location_history":"[5,0,1,3]","action_history":"[1,1,0]","door_history":"[0,0,1]","location_rts":"[10873,448,269]","trial_type":"two-door-navigation","trial_index":51,"time_elapsed":1867930,"internal_node_id":"0.0-2.0-49.0"},{"view_history":"[{\"page_index\":0,\"viewing_time\":1531}]","rt":1531,"trial_type":"instructions","trial_index":52,"time_elapsed":1870465,"internal_node_id":"0.0-3.0"},{"view_history":"[{\"page_index\":0,\"viewing_time\":599325},{\"page_index\":1,\"viewing_time\":3353}]","rt":602678,"trial_type":"instructions","trial_index":53,"time_elapsed":2474149,"internal_node_id":"0.0-4.0"},{"group":"hexagon_tri","fractal_assignment":["../images/gry_blk.png","../images/blu_wht.png","../images/cyn_red.png","../images/pnk_blu.png","../images/org_blu.png","../images/ylw_slt.png"],"mutagen_generator_assignment":[1,0],"goal":3,"start":5,"action_noise":0,"location_history":"[5,0,1,5,4,2,3]","action_history":"[1,1,1,0,1,1]","mutagen_history":"[0,0,0,1,0,0]","location_rts":"[14922,9553,6211,5689,13021,9543]","trial_type":"fractal-mutation","trial_index":54,"time_elapsed":2543842,"internal_node_id":"0.0-5.0-0.0"},{"group":"hexagon_tri","fractal_assignment":["../images/gry_blk.png","../images/blu_wht.png","../images/cyn_red.png","../images/pnk_blu.png","../images/org_blu.png","../images/ylw_slt.png"],"mutagen_generator_assignment":[1,0],"goal":1,"start":3,"action_noise":0,"location_history":"[3,4,0,1]","action_history":"[1,0,1]","mutagen_history":"[0,1,0]","location_rts":"[8823,12727,6001]","trial_type":"fractal-mutation","trial_index":55,"time_elapsed":2578791,"internal_node_id":"0.0-5.0-1.0"},{"group":"hexagon_tri","fractal_assignment":["../images/gry_blk.png","../images/blu_wht.png","../images/cyn_red.png","../images/pnk_blu.png","../images/org_blu.png","../images/ylw_slt.png"],"mutagen_generator_assignment":[1,0],"goal":0,"start":1,"action_noise":0,"location_history":"[1,3,2,1,5,0]","action_history":"[0,0,0,1,1]","mutagen_history":"[1,1,1,0,0]","location_rts":"[6448,7407,8526,10919,1381]","trial_type":"fractal-mutation","trial_index":56,"time_elapsed":2623189,"internal_node_id":"0.0-5.0-2.0"},{"group":"hexagon_tri","fractal_assignment":["../images/gry_blk.png","../images/blu_wht.png","../images/cyn_red.png","../images/pnk_blu.png","../images/org_blu.png","../images/ylw_slt.png"],"mutagen_generator_assignment":[1,0],"goal":3,"start":0,"action_noise":0,"location_history":"[0,5,0,1,3]","action_history":"[0,1,1,0]","mutagen_history":"[1,0,0,1]","location_rts":"[6538,22336,747,4439]","trial_type":"fractal-mutation","trial_index":57,"time_elapsed":2665797,"internal_node_id":"0.0-5.0-3.0"},{"group":"hexagon_tri","fractal_assignment":["../images/gry_blk.png","../images/blu_wht.png","../images/cyn_red.png","../images/pnk_blu.png","../images/org_blu.png","../images/ylw_slt.png"],"mutagen_generator_assignment":[1,0],"goal":4,"start":3,"action_noise":0,"location_history":"[3,2,1,5,4]","action_history":"[0,0,1,0]","mutagen_history":"[1,1,0,1]","location_rts":"[4108,9281,963,2119]","trial_type":"fractal-mutation","trial_index":58,"time_elapsed":2690853,"internal_node_id":"0.0-5.0-4.0"},{"group":"hexagon_tri","fractal_assignment":["../images/gry_blk.png","../images/blu_wht.png","../images/cyn_red.png","../images/pnk_blu.png","../images/org_blu.png","../images/ylw_slt.png"],"mutagen_generator_assignment":[1,0],"goal":2,"start":4,"action_noise":0,"location_history":"[4,2]","action_history":"[1]","mutagen_history":"[0]","location_rts":"[2734]","trial_type":"fractal-mutation","trial_index":59,"time_elapsed":2698717,"internal_node_id":"0.0-5.0-5.0"},{"group":"hexagon_tri","fractal_assignment":["../images/gry_blk.png","../images/blu_wht.png","../images/cyn_red.png","../images/pnk_blu.png","../images/org_blu.png","../images/ylw_slt.png"],"mutagen_generator_assignment":[1,0],"goal":1,"start":2,"action_noise":0,"location_history":"[2,1]","action_history":"[0]","mutagen_history":"[1]","location_rts":"[5723]","trial_type":"fractal-mutation","trial_index":60,"time_elapsed":2709595,"internal_node_id":"0.0-5.0-6.0"},{"group":"hexagon_tri","fractal_assignment":["../images/gry_blk.png","../images/blu_wht.png","../images/cyn_red.png","../images/pnk_blu.png","../images/org_blu.png","../images/ylw_slt.png"],"mutagen_generator_assignment":[1,0],"goal":5,"start":1,"action_noise":0,"location_history":"[1,5]","action_history":"[1]","mutagen_history":"[0]","location_rts":"[4150]","trial_type":"fractal-mutation","trial_index":61,"time_elapsed":2718869,"internal_node_id":"0.0-5.0-7.0"},{"group":"hexagon_tri","fractal_assignment":["../images/gry_blk.png","../images/blu_wht.png","../images/cyn_red.png","../images/pnk_blu.png","../images/org_blu.png","../images/ylw_slt.png"],"mutagen_generator_assignment":[1,0],"goal":4,"start":5,"action_noise":0,"location_history":"[5,4]","action_history":"[0]","mutagen_history":"[1]","location_rts":"[5753]","trial_type":"fractal-mutation","trial_index":62,"time_elapsed":2729782,"internal_node_id":"0.0-5.0-8.0"},{"group":"hexagon_tri","fractal_assignment":["../images/gry_blk.png","../images/blu_wht.png","../images/cyn_red.png","../images/pnk_blu.png","../images/org_blu.png","../images/ylw_slt.png"],"mutagen_generator_assignment":[1,0],"goal":2,"start":4,"action_noise":0,"location_history":"[4,2]","action_history":"[1]","mutagen_history":"[0]","location_rts":"[2897]","trial_type":"fractal-mutation","trial_index":63,"time_elapsed":2737811,"internal_node_id":"0.0-5.0-9.0"},{"group":"hexagon_tri","fractal_assignment":["../images/gry_blk.png","../images/blu_wht.png","../images/cyn_red.png","../images/pnk_blu.png","../images/org_blu.png","../images/ylw_slt.png"],"mutagen_generator_assignment":[1,0],"goal":0,"start":2,"action_noise":0,"location_history":"[2,3,4,0]","action_history":"[1,1,0]","mutagen_history":"[0,0,1]","location_rts":"[7354,367,4323]","trial_type":"fractal-mutation","trial_index":64,"time_elapsed":2757254,"internal_node_id":"0.0-5.0-10.0"},{"group":"hexagon_tri","fractal_assignment":["../images/gry_blk.png","../images/blu_wht.png","../images/cyn_red.png","../images/pnk_blu.png","../images/org_blu.png","../images/ylw_slt.png"],"mutagen_generator_assignment":[1,0],"goal":1,"start":0,"action_noise":0,"location_history":"[0,1]","action_history":"[1]","mutagen_history":"[0]","location_rts":"[4660]","trial_type":"fractal-mutation","trial_index":65,"time_elapsed":2767044,"internal_node_id":"0.0-5.0-11.0"},{"group":"hexagon_tri","fractal_assignment":["../images/gry_blk.png","../images/blu_wht.png","../images/cyn_red.png","../images/pnk_blu.png","../images/org_blu.png","../images/ylw_slt.png"],"mutagen_generator_assignment":[1,0],"goal":3,"start":1,"action_noise":0,"location_history":"[1,3]","action_history":"[0]","mutagen_history":"[1]","location_rts":"[5741]","trial_type":"fractal-mutation","trial_index":66,"time_elapsed":2777940,"internal_node_id":"0.0-5.0-12.0"},{"group":"hexagon_tri","fractal_assignment":["../images/gry_blk.png","../images/blu_wht.png","../images/cyn_red.png","../images/pnk_blu.png","../images/org_blu.png","../images/ylw_slt.png"],"mutagen_generator_assignment":[1,0],"goal":5,"start":3,"action_noise":0,"location_history":"[3,2,1,5]","action_history":"[0,0,1]","mutagen_history":"[1,1,0]","location_rts":"[236327,784,10261]","trial_type":"fractal-mutation","trial_index":67,"time_elapsed":3032754,"internal_node_id":"0.0-5.0-13.0"},{"group":"hexagon_tri","fractal_assignment":["../images/gry_blk.png","../images/blu_wht.png","../images/cyn_red.png","../images/pnk_blu.png","../images/org_blu.png","../images/ylw_slt.png"],"mutagen_generator_assignment":[1,0],"goal":4,"start":5,"action_noise":0,"location_history":"[5,4]","action_history":"[0]","mutagen_history":"[1]","location_rts":"[7846]","trial_type":"fractal-mutation","trial_index":68,"time_elapsed":3045779,"internal_node_id":"0.0-5.0-14.0"},{"group":"hexagon_tri","fractal_assignment":["../images/gry_blk.png","../images/blu_wht.png","../images/cyn_red.png","../images/pnk_blu.png","../images/org_blu.png","../images/ylw_slt.png"],"mutagen_generator_assignment":[1,0],"goal":0,"start":4,"action_noise":0,"location_history":"[4,0]","action_history":"[0]","mutagen_history":"[1]","location_rts":"[3821]","trial_type":"fractal-mutation","trial_index":69,"time_elapsed":3054758,"internal_node_id":"0.0-5.0-15.0"},{"group":"hexagon_tri","fractal_assignment":["../images/gry_blk.png","../images/blu_wht.png","../images/cyn_red.png","../images/pnk_blu.png","../images/org_blu.png","../images/ylw_slt.png"],"mutagen_generator_assignment":[1,0],"goal":3,"start":0,"action_noise":0,"location_history":"[0,1,3]","action_history":"[1,0]","mutagen_history":"[0,1]","location_rts":"[6554,2434]","trial_type":"fractal-mutation","trial_index":70,"time_elapsed":3070029,"internal_node_id":"0.0-5.0-16.0"},{"group":"hexagon_tri","fractal_assignment":["../images/gry_blk.png","../images/blu_wht.png","../images/cyn_red.png","../images/pnk_blu.png","../images/org_blu.png","../images/ylw_slt.png"],"mutagen_generator_assignment":[1,0],"goal":1,"start":3,"action_noise":0,"location_history":"[3,2,1]","action_history":"[0,0]","mutagen_history":"[1,1]","location_rts":"[60722,917]","trial_type":"fractal-mutation","trial_index":71,"time_elapsed":3137979,"internal_node_id":"0.0-5.0-17.0"},{"group":"hexagon_tri","fractal_assignment":["../images/gry_blk.png","../images/blu_wht.png","../images/cyn_red.png","../images/pnk_blu.png","../images/org_blu.png","../images/ylw_slt.png"],"mutagen_generator_assignment":[1,0],"goal":5,"start":1,"action_noise":0,"location_history":"[1,5]","action_history":"[1]","mutagen_history":"[0]","location_rts":"[3908]","trial_type":"fractal-mutation","trial_index":72,"time_elapsed":3147007,"internal_node_id":"0.0-5.0-18.0"},{"group":"hexagon_tri","fractal_assignment":["../images/gry_blk.png","../images/blu_wht.png","../images/cyn_red.png","../images/pnk_blu.png","../images/org_blu.png","../images/ylw_slt.png"],"mutagen_generator_assignment":[1,0],"goal":2,"start":5,"action_noise":0,"location_history":"[5,4,2]","action_history":"[0,1]","mutagen_history":"[1,0]","location_rts":"[51276,2402]","trial_type":"fractal-mutation","trial_index":73,"time_elapsed":3206954,"internal_node_id":"0.0-5.0-19.0"},{"group":"hexagon_tri","fractal_assignment":["../images/gry_blk.png","../images/blu_wht.png","../images/cyn_red.png","../images/pnk_blu.png","../images/org_blu.png","../images/ylw_slt.png"],"mutagen_generator_assignment":[1,0],"goal":4,"start":2,"action_noise":0,"location_history":"[2,3,4]","action_history":"[1,1]","mutagen_history":"[0,0]","location_rts":"[6885,5528]","trial_type":"fractal-mutation","trial_index":74,"time_elapsed":3225581,"internal_node_id":"0.0-5.0-20.0"},{"group":"hexagon_tri","fractal_assignment":["../images/gry_blk.png","../images/blu_wht.png","../images/cyn_red.png","../images/pnk_blu.png","../images/org_blu.png","../images/ylw_slt.png"],"mutagen_generator_assignment":[1,0],"goal":1,"start":4,"action_noise":0,"location_history":"[4,0,1]","action_history":"[0,1]","mutagen_history":"[1,0]","location_rts":"[4883,503]","trial_type":"fractal-mutation","trial_index":75,"time_elapsed":3237233,"internal_node_id":"0.0-5.0-21.0"},{"group":"hexagon_tri","fractal_assignment":["../images/gry_blk.png","../images/blu_wht.png","../images/cyn_red.png","../images/pnk_blu.png","../images/org_blu.png","../images/ylw_slt.png"],"mutagen_generator_assignment":[1,0],"goal":3,"start":1,"action_noise":0,"location_history":"[1,3]","action_history":"[0]","mutagen_history":"[1]","location_rts":"[4883]","trial_type":"fractal-mutation","trial_index":76,"time_elapsed":3247289,"internal_node_id":"0.0-5.0-22.0"},{"group":"hexagon_tri","fractal_assignment":["../images/gry_blk.png","../images/blu_wht.png","../images/cyn_red.png","../images/pnk_blu.png","../images/org_blu.png","../images/ylw_slt.png"],"mutagen_generator_assignment":[1,0],"goal":2,"start":3,"action_noise":0,"location_history":"[3,2]","action_history":"[0]","mutagen_history":"[1]","location_rts":"[9629]","trial_type":"fractal-mutation","trial_index":77,"time_elapsed":3262078,"internal_node_id":"0.0-5.0-23.0"},{"group":"hexagon_tri","fractal_assignment":["../images/gry_blk.png","../images/blu_wht.png","../images/cyn_red.png","../images/pnk_blu.png","../images/org_blu.png","../images/ylw_slt.png"],"mutagen_generator_assignment":[1,0],"goal":0,"start":2,"action_noise":0,"location_history":"[2,3,4,0]","action_history":"[1,1,0]","mutagen_history":"[0,0,1]","location_rts":"[10119,397,301]","trial_type":"fractal-mutation","trial_index":78,"time_elapsed":3280292,"internal_node_id":"0.0-5.0-24.0"},{"group":"hexagon_tri","fractal_assignment":["../images/gry_blk.png","../images/blu_wht.png","../images/cyn_red.png","../images/pnk_blu.png","../images/org_blu.png","../images/ylw_slt.png"],"mutagen_generator_assignment":[1,0],"goal":5,"start":0,"action_noise":0,"location_history":"[0,5]","action_history":"[0]","mutagen_history":"[1]","location_rts":"[4625]","trial_type":"fractal-mutation","trial_index":79,"time_elapsed":3290087,"internal_node_id":"0.0-5.0-25.0"},{"group":"hexagon_tri","fractal_assignment":["../images/gry_blk.png","../images/blu_wht.png","../images/cyn_red.png","../images/pnk_blu.png","../images/org_blu.png","../images/ylw_slt.png"],"mutagen_generator_assignment":[1,0],"goal":2,"start":5,"action_noise":0,"location_history":"[5,4,2]","action_history":"[0,1]","mutagen_history":"[1,0]","location_rts":"[6683,309]","trial_type":"fractal-mutation","trial_index":80,"time_elapsed":3303363,"internal_node_id":"0.0-5.0-26.0"},{"group":"hexagon_tri","fractal_assignment":["../images/gry_blk.png","../images/blu_wht.png","../images/cyn_red.png","../images/pnk_blu.png","../images/org_blu.png","../images/ylw_slt.png"],"mutagen_generator_assignment":[1,0],"goal":3,"start":2,"action_noise":0,"location_history":"[2,3]","action_history":"[1]","mutagen_history":"[0]","location_rts":"[3227]","trial_type":"fractal-mutation","trial_index":81,"time_elapsed":3311719,"internal_node_id":"0.0-5.0-27.0"},{"group":"hexagon_tri","fractal_assignment":["../images/gry_blk.png","../images/blu_wht.png","../images/cyn_red.png","../images/pnk_blu.png","../images/org_blu.png","../images/ylw_slt.png"],"mutagen_generator_assignment":[1,0],"goal":0,"start":3,"action_noise":0,"location_history":"[3,4,0]","action_history":"[1,0]","mutagen_history":"[0,1]","location_rts":"[3652,324]","trial_type":"fractal-mutation","trial_index":82,"time_elapsed":3321947,"internal_node_id":"0.0-5.0-28.0"},{"group":"hexagon_tri","fractal_assignment":["../images/gry_blk.png","../images/blu_wht.png","../images/cyn_red.png","../images/pnk_blu.png","../images/org_blu.png","../images/ylw_slt.png"],"mutagen_generator_assignment":[1,0],"goal":1,"start":0,"action_noise":0,"location_history":"[0,1]","action_history":"[1]","mutagen_history":"[0]","location_rts":"[6218]","trial_type":"fractal-mutation","trial_index":83,"time_elapsed":3333299,"internal_node_id":"0.0-5.0-29.0"},{"group":"hexagon_tri","fractal_assignment":["../images/gry_blk.png","../images/blu_wht.png","../images/cyn_red.png","../images/pnk_blu.png","../images/org_blu.png","../images/ylw_slt.png"],"mutagen_generator_assignment":[1,0],"goal":4,"start":1,"action_noise":0,"location_history":"[1,3,2,3,4]","action_history":"[0,0,1,1]","mutagen_history":"[1,1,0,0]","location_rts":"[6740,320,5070,200]","trial_type":"fractal-mutation","trial_index":84,"time_elapsed":3354168,"internal_node_id":"0.0-5.0-30.0"},{"group":"hexagon_tri","fractal_assignment":["../images/gry_blk.png","../images/blu_wht.png","../images/cyn_red.png","../images/pnk_blu.png","../images/org_blu.png","../images/ylw_slt.png"],"mutagen_generator_assignment":[1,0],"goal":5,"start":4,"action_noise":0,"location_history":"[4,0,5]","action_history":"[0,0]","mutagen_history":"[1,1]","location_rts":"[3964,361]","trial_type":"fractal-mutation","trial_index":85,"time_elapsed":3364824,"internal_node_id":"0.0-5.0-31.0"},{"group":"hexagon_tri","fractal_assignment":["../images/gry_blk.png","../images/blu_wht.png","../images/cyn_red.png","../images/pnk_blu.png","../images/org_blu.png","../images/ylw_slt.png"],"mutagen_generator_assignment":[1,0],"goal":0,"start":5,"action_noise":0,"location_history":"[5,0]","action_history":"[1]","mutagen_history":"[0]","location_rts":"[2404]","trial_type":"fractal-mutation","trial_index":86,"time_elapsed":3372358,"internal_node_id":"0.0-5.0-32.0"},{"group":"hexagon_tri","fractal_assignment":["../images/gry_blk.png","../images/blu_wht.png","../images/cyn_red.png","../images/pnk_blu.png","../images/org_blu.png","../images/ylw_slt.png"],"mutagen_generator_assignment":[1,0],"goal":3,"start":0,"action_noise":0,"location_history":"[0,1,3]","action_history":"[1,0]","mutagen_history":"[0,1]","location_rts":"[6936,297]","trial_type":"fractal-mutation","trial_index":87,"time_elapsed":3385878,"internal_node_id":"0.0-5.0-33.0"},{"group":"hexagon_tri","fractal_assignment":["../images/gry_blk.png","../images/blu_wht.png","../images/cyn_red.png","../images/pnk_blu.png","../images/org_blu.png","../images/ylw_slt.png"],"mutagen_generator_assignment":[1,0],"goal":1,"start":3,"action_noise":0,"location_history":"[3,2,1]","action_history":"[0,0]","mutagen_history":"[1,1]","location_rts":"[7128,338]","trial_type":"fractal-mutation","trial_index":88,"time_elapsed":3399675,"internal_node_id":"0.0-5.0-34.0"},{"group":"hexagon_tri","fractal_assignment":["../images/gry_blk.png","../images/blu_wht.png","../images/cyn_red.png","../images/pnk_blu.png","../images/org_blu.png","../images/ylw_slt.png"],"mutagen_generator_assignment":[1,0],"goal":2,"start":1,"action_noise":0,"location_history":"[1,3,2]","action_history":"[0,0]","mutagen_history":"[1,1]","location_rts":"[8232,229]","trial_type":"fractal-mutation","trial_index":89,"time_elapsed":3414452,"internal_node_id":"0.0-5.0-35.0"},{"group":"hexagon_tri","fractal_assignment":["../images/gry_blk.png","../images/blu_wht.png","../images/cyn_red.png","../images/pnk_blu.png","../images/org_blu.png","../images/ylw_slt.png"],"mutagen_generator_assignment":[1,0],"goal":4,"start":2,"action_noise":0,"location_history":"[2,3,4]","action_history":"[1,1]","mutagen_history":"[0,0]","location_rts":"[5428,232]","trial_type":"fractal-mutation","trial_index":90,"time_elapsed":3426356,"internal_node_id":"0.0-5.0-36.0"},{"group":"hexagon_tri","fractal_assignment":["../images/gry_blk.png","../images/blu_wht.png","../images/cyn_red.png","../images/pnk_blu.png","../images/org_blu.png","../images/ylw_slt.png"],"mutagen_generator_assignment":[1,0],"goal":5,"start":4,"action_noise":0,"location_history":"[4,0,5]","action_history":"[0,0]","mutagen_history":"[1,1]","location_rts":"[4061,2027]","trial_type":"fractal-mutation","trial_index":91,"time_elapsed":3438757,"internal_node_id":"0.0-5.0-37.0"},{"group":"hexagon_tri","fractal_assignment":["../images/gry_blk.png","../images/blu_wht.png","../images/cyn_red.png","../images/pnk_blu.png","../images/org_blu.png","../images/ylw_slt.png"],"mutagen_generator_assignment":[1,0],"goal":1,"start":5,"action_noise":0,"location_history":"[5,0,1]","action_history":"[1,1]","mutagen_history":"[0,0]","location_rts":"[3772,241]","trial_type":"fractal-mutation","trial_index":92,"time_elapsed":3449022,"internal_node_id":"0.0-5.0-38.0"},{"group":"hexagon_tri","fractal_assignment":["../images/gry_blk.png","../images/blu_wht.png","../images/cyn_red.png","../images/pnk_blu.png","../images/org_blu.png","../images/ylw_slt.png"],"mutagen_generator_assignment":[1,0],"goal":4,"start":1,"action_noise":0,"location_history":"[1,3,4]","action_history":"[0,1]","mutagen_history":"[1,0]","location_rts":"[5847,671]","trial_type":"fractal-mutation","trial_index":93,"time_elapsed":3461822,"internal_node_id":"0.0-5.0-39.0"},{"group":"hexagon_tri","fractal_assignment":["../images/gry_blk.png","../images/blu_wht.png","../images/cyn_red.png","../images/pnk_blu.png","../images/org_blu.png","../images/ylw_slt.png"],"mutagen_generator_assignment":[1,0],"goal":3,"start":4,"action_noise":0,"location_history":"[4,2,3]","action_history":"[1,1]","mutagen_history":"[0,0]","location_rts":"[4270,234]","trial_type":"fractal-mutation","trial_index":94,"time_elapsed":3472571,"internal_node_id":"0.0-5.0-40.0"},{"group":"hexagon_tri","fractal_assignment":["../images/gry_blk.png","../images/blu_wht.png","../images/cyn_red.png","../images/pnk_blu.png","../images/org_blu.png","../images/ylw_slt.png"],"mutagen_generator_assignment":[1,0],"goal":2,"start":3,"action_noise":0,"location_history":"[3,2]","action_history":"[0]","mutagen_history":"[1]","location_rts":"[5192]","trial_type":"fractal-mutation","trial_index":95,"time_elapsed":3482931,"internal_node_id":"0.0-5.0-41.0"},{"group":"hexagon_tri","fractal_assignment":["../images/gry_blk.png","../images/blu_wht.png","../images/cyn_red.png","../images/pnk_blu.png","../images/org_blu.png","../images/ylw_slt.png"],"mutagen_generator_assignment":[1,0],"goal":0,"start":2,"action_noise":0,"location_history":"[2,1,5,0]","action_history":"[0,1,1]","mutagen_history":"[1,0,0]","location_rts":"[12229,590,276]","trial_type":"fractal-mutation","trial_index":96,"time_elapsed":3503410,"internal_node_id":"0.0-5.0-42.0"},{"group":"hexagon_tri","fractal_assignment":["../images/gry_blk.png","../images/blu_wht.png","../images/cyn_red.png","../images/pnk_blu.png","../images/org_blu.png","../images/ylw_slt.png"],"mutagen_generator_assignment":[1,0],"goal":5,"start":0,"action_noise":0,"location_history":"[0,5]","action_history":"[0]","mutagen_history":"[1]","location_rts":"[3594]","trial_type":"fractal-mutation","trial_index":97,"time_elapsed":3512172,"internal_node_id":"0.0-5.0-43.0"},{"group":"hexagon_tri","fractal_assignment":["../images/gry_blk.png","../images/blu_wht.png","../images/cyn_red.png","../images/pnk_blu.png","../images/org_blu.png","../images/ylw_slt.png"],"mutagen_generator_assignment":[1,0],"goal":0,"start":5,"action_noise":0,"location_history":"[5,0]","action_history":"[1]","mutagen_history":"[0]","location_rts":"[2703]","trial_type":"fractal-mutation","trial_index":98,"time_elapsed":3519983,"internal_node_id":"0.0-5.0-44.0"},{"group":"hexagon_tri","fractal_assignment":["../images/gry_blk.png","../images/blu_wht.png","../images/cyn_red.png","../images/pnk_blu.png","../images/org_blu.png","../images/ylw_slt.png"],"mutagen_generator_assignment":[1,0],"goal":2,"start":0,"action_noise":0,"location_history":"[0,5,4,2]","action_history":"[0,0,1]","mutagen_history":"[1,1,0]","location_rts":"[9815,294,1215]","trial_type":"fractal-mutation","trial_index":99,"time_elapsed":3538738,"internal_node_id":"0.0-5.0-45.0"},{"group":"hexagon_tri","fractal_assignment":["../images/gry_blk.png","../images/blu_wht.png","../images/cyn_red.png","../images/pnk_blu.png","../images/org_blu.png","../images/ylw_slt.png"],"mutagen_generator_assignment":[1,0],"goal":4,"start":2,"action_noise":0,"location_history":"[2,3,4]","action_history":"[1,1]","mutagen_history":"[0,0]","location_rts":"[3495,433]","trial_type":"fractal-mutation","trial_index":100,"time_elapsed":3548917,"internal_node_id":"0.0-5.0-46.0"},{"group":"hexagon_tri","fractal_assignment":["../images/gry_blk.png","../images/blu_wht.png","../images/cyn_red.png","../images/pnk_blu.png","../images/org_blu.png","../images/ylw_slt.png"],"mutagen_generator_assignment":[1,0],"goal":1,"start":4,"action_noise":0,"location_history":"[4,0,1]","action_history":"[0,1]","mutagen_history":"[1,0]","location_rts":"[5485,342]","trial_type":"fractal-mutation","trial_index":101,"time_elapsed":3561034,"internal_node_id":"0.0-5.0-47.0"},{"group":"hexagon_tri","fractal_assignment":["../images/gry_blk.png","../images/blu_wht.png","../images/cyn_red.png","../images/pnk_blu.png","../images/org_blu.png","../images/ylw_slt.png"],"mutagen_generator_assignment":[1,0],"goal":5,"start":1,"action_noise":0,"location_history":"[1,5]","action_history":"[1]","mutagen_history":"[0]","location_rts":"[3656]","trial_type":"fractal-mutation","trial_index":102,"time_elapsed":3569803,"internal_node_id":"0.0-5.0-48.0"},{"group":"hexagon_tri","fractal_assignment":["../images/gry_blk.png","../images/blu_wht.png","../images/cyn_red.png","../images/pnk_blu.png","../images/org_blu.png","../images/ylw_slt.png"],"mutagen_generator_assignment":[1,0],"goal":3,"start":5,"action_noise":0,"location_history":"[5,0,1,3]","action_history":"[1,1,0]","mutagen_history":"[0,0,1]","location_rts":"[11140,356,253]","trial_type":"fractal-mutation","trial_index":103,"time_elapsed":3588929,"internal_node_id":"0.0-5.0-49.0"},{"view_history":"[{\"page_index\":0,\"viewing_time\":9281}]","rt":9281,"trial_type":"instructions","trial_index":104,"time_elapsed":3599213,"internal_node_id":"0.0-6.0"},{"rt":3596,"responses":"{\"Q0\":\"No\"}","trial_type":"survey-text","trial_index":105,"time_elapsed":3603816,"internal_node_id":"0.0-7.0"}]