[{"view_history":"[{\"page_index\":0,\"viewing_time\":39998},{\"page_index\":1,\"viewing_time\":23414}]","rt":63412,"trial_type":"instructions","trial_index":0,"time_elapsed":63413,"internal_node_id":"0.0-0.0"},{"view_history":"[{\"page_index\":0,\"viewing_time\":9087},{\"page_index\":1,\"viewing_time\":29991}]","rt":39078,"trial_type":"instructions","trial_index":1,"time_elapsed":103492,"internal_node_id":"0.0-1.0"},{"group":"hexagon_bi","room_assignment":["grey","blue","purple","red","yellow","green"],"door_color_assignment":["black","white"],"door_generator_assignment":[1,0],"goal":3,"start":5,"action_noise":0,"location_history":"[5,4,3]","action_history":"[1,0]","door_history":"[0,1]","location_rts":"[10549,2062]","trial_type":"two-door-navigation","trial_index":2,"time_elapsed":122151,"internal_node_id":"0.0-2.0-0.0"},{"group":"hexagon_bi","room_assignment":["grey","blue","purple","red","yellow","green"],"door_color_assignment":["black","white"],"door_generator_assignment":[1,0],"goal":1,"start":3,"action_noise":0,"location_history":"[3,4,5,4,3,4,5,4,3,4,5,0,1]","action_history":"[0,1,1,0,0,1,1,0,0,1,0,1]","door_history":"[1,0,0,1,1,0,0,1,1,0,1,0]","location_rts":"[5205,2071,2073,911,2862,1581,1488,1257,2865,1372,3616,1959]","trial_type":"two-door-navigation","trial_index":3,"time_elapsed":165617,"internal_node_id":"0.0-2.0-1.0"},{"group":"hexagon_bi","room_assignment":["grey","blue","purple","red","yellow","green"],"door_color_assignment":["black","white"],"door_generator_assignment":[1,0],"goal":0,"start":1,"action_noise":0,"location_history":"[1,0]","action_history":"[1]","door_history":"[0]","location_rts":"[6603]","trial_type":"two-door-navigation","trial_index":4,"time_elapsed":177240,"internal_node_id":"0.0-2.0-2.0"},{"group":"hexagon_bi","room_assignment":["grey","blue","purple","red","yellow","green"],"door_color_assignment":["black","white"],"door_generator_assignment":[1,0],"goal":3,"start":0,"action_noise":0,"location_history":"[0,5,4,5,0,5,4,5,4,3]","action_history":"[0,1,1,0,0,1,1,1,0]","door_history":"[1,0,0,1,1,0,0,0,1]","location_rts":"[3828,1577,2398,1268,3192,1313,1291,1038,920]","trial_type":"two-door-navigation","trial_index":5,"time_elapsed":207225,"internal_node_id":"0.0-2.0-3.0"},{"group":"hexagon_bi","room_assignment":["grey","blue","purple","red","yellow","green"],"door_color_assignment":["black","white"],"door_generator_assignment":[1,0],"goal":4,"start":3,"action_noise":0,"location_history":"[3,4]","action_history":"[0]","door_history":"[1]","location_rts":"[5730]","trial_type":"two-door-navigation","trial_index":6,"time_elapsed":217974,"internal_node_id":"0.0-2.0-4.0"},{"group":"hexagon_bi","room_assignment":["grey","blue","purple","red","yellow","green"],"door_color_assignment":["black","white"],"door_generator_assignment":[1,0],"goal":2,"start":4,"action_noise":0,"location_history":"[4,5,0,1,2]","action_history":"[1,0,1,0]","door_history":"[0,1,0,1]","location_rts":"[4549,1744,1844,2882]","trial_type":"two-door-navigation","trial_index":7,"time_elapsed":237062,"internal_node_id":"0.0-2.0-5.0"},{"group":"hexagon_bi","room_assignment":["grey","blue","purple","red","yellow","green"],"door_color_assignment":["black","white"],"door_generator_assignment":[1,0],"goal":1,"start":2,"action_noise":0,"location_history":"[2,1]","action_history":"[0]","door_history":"[1]","location_rts":"[4773]","trial_type":"two-door-navigation","trial_index":8,"time_elapsed":246852,"internal_node_id":"0.0-2.0-6.0"},{"group":"hexagon_bi","room_assignment":["grey","blue","purple","red","yellow","green"],"door_color_assignment":["black","white"],"door_generator_assignment":[1,0],"goal":5,"start":1,"action_noise":0,"location_history":"[1,2,1,0,5]","action_history":"[0,0,1,0]","door_history":"[1,1,0,1]","location_rts":"[7735,1639,1448,2230]","trial_type":"two-door-navigation","trial_index":9,"time_elapsed":267973,"internal_node_id":"0.0-2.0-7.0"},{"group":"hexagon_bi","room_assignment":["grey","blue","purple","red","yellow","green"],"door_color_assignment":["black","white"],"door_generator_assignment":[1,0],"goal":4,"start":5,"action_noise":0,"location_history":"[5,0,1,2,1,0,1,2,1,2,3,4]","action_history":"[0,1,0,0,1,1,0,0,0,1,0]","door_history":"[1,0,1,1,0,0,1,1,1,0,1]","location_rts":"[6590,1727,2462,784,1089,3435,1000,599,2782,1129,4584]","trial_type":"two-door-navigation","trial_index":10,"time_elapsed":309333,"internal_node_id":"0.0-2.0-8.0"},{"group":"hexagon_bi","room_assignment":["grey","blue","purple","red","yellow","green"],"door_color_assignment":["black","white"],"door_generator_assignment":[1,0],"goal":2,"start":4,"action_noise":0,"location_history":"[4,5,0,1,0,5,4,5,4,3,4,3,2]","action_history":"[1,0,1,1,0,1,1,1,0,0,0,1]","door_history":"[0,1,0,0,1,0,0,0,1,1,1,0]","location_rts":"[3526,3054,2439,1566,2666,2378,1160,1008,969,1213,1765,1201]","trial_type":"two-door-navigation","trial_index":11,"time_elapsed":348477,"internal_node_id":"0.0-2.0-9.0"},{"group":"hexagon_bi","room_assignment":["grey","blue","purple","red","yellow","green"],"door_color_assignment":["black","white"],"door_generator_assignment":[1,0],"goal":0,"start":2,"action_noise":0,"location_history":"[2,3,4,3,4,5,0]","action_history":"[1,0,0,0,1,0]","door_history":"[0,1,1,1,0,1]","location_rts":"[5483,2144,3296,4342,1455,2146]","trial_type":"two-door-navigation","trial_index":12,"time_elapsed":377449,"internal_node_id":"0.0-2.0-10.0"},{"group":"hexagon_bi","room_assignment":["grey","blue","purple","red","yellow","green"],"door_color_assignment":["black","white"],"door_generator_assignment":[1,0],"goal":1,"start":0,"action_noise":0,"location_history":"[0,5,4,3,2,1]","action_history":"[0,1,0,1,0]","door_history":"[1,0,1,0,1]","location_rts":"[5305,1255,1456,1612,1730]","trial_type":"two-door-navigation","trial_index":13,"time_elapsed":397893,"internal_node_id":"0.0-2.0-11.0"},{"group":"hexagon_bi","room_assignment":["grey","blue","purple","red","yellow","green"],"door_color_assignment":["black","white"],"door_generator_assignment":[1,0],"goal":3,"start":1,"action_noise":0,"location_history":"[1,0,1,0,5,4,5,0,5,4,5,4,3]","action_history":"[1,1,1,0,1,1,0,0,1,1,1,0]","door_history":"[0,0,0,1,0,0,1,1,0,0,0,1]","location_rts":"[7127,2655,1499,1005,1434,867,1696,1478,4570,800,875,1385]","trial_type":"two-door-navigation","trial_index":14,"time_elapsed":439468,"internal_node_id":"0.0-2.0-12.0"},{"group":"hexagon_bi","room_assignment":["grey","blue","purple","red","yellow","green"],"door_color_assignment":["black","white"],"door_generator_assignment":[1,0],"goal":5,"start":3,"action_noise":0,"location_history":"[3,4,5]","action_history":"[0,1]","door_history":"[1,0]","location_rts":"[4270,1382]","trial_type":"two-door-navigation","trial_index":15,"time_elapsed":451159,"internal_node_id":"0.0-2.0-13.0"},{"group":"hexagon_bi","room_assignment":["grey","blue","purple","red","yellow","green"],"door_color_assignment":["black","white"],"door_generator_assignment":[1,0],"goal":4,"start":5,"action_noise":0,"location_history":"[5,0,1,2,3,2,1,2,3,2,1,2,3,4]","action_history":"[0,1,0,1,1,0,0,1,1,0,0,1,0]","door_history":"[1,0,1,0,0,1,1,0,0,1,1,0,1]","location_rts":"[5060,1701,2678,1750,967,1133,887,1279,2074,1793,825,1784,3921]","trial_type":"two-door-navigation","trial_index":16,"time_elapsed":494230,"internal_node_id":"0.0-2.0-14.0"},{"group":"hexagon_bi","room_assignment":["grey","blue","purple","red","yellow","green"],"door_color_assignment":["black","white"],"door_generator_assignment":[1,0],"goal":0,"start":4,"action_noise":0,"location_history":"[4,5,4,3,4,5,4,3,4,5,4,3,4,5,4,3,4,3,2,1,0]","action_history":"[1,1,0,0,1,1,0,0,1,1,0,0,1,1,0,0,0,1,0,1]","door_history":"[0,0,1,1,0,0,1,1,0,0,1,1,0,0,1,1,1,0,1,0]","location_rts":"[3974,1980,1071,1423,1522,736,774,638,1378,1069,1326,845,1209,1087,1688,486,585,984,2918,1152]","trial_type":"two-door-navigation","trial_index":17,"time_elapsed":545404,"internal_node_id":"0.0-2.0-15.0"},{"group":"hexagon_bi","room_assignment":["grey","blue","purple","red","yellow","green"],"door_color_assignment":["black","white"],"door_generator_assignment":[1,0],"goal":3,"start":0,"action_noise":0,"location_history":"[0,1,2,3]","action_history":"[1,0,1]","door_history":"[0,1,0]","location_rts":"[4119,2681,1767]","trial_type":"two-door-navigation","trial_index":18,"time_elapsed":561021,"internal_node_id":"0.0-2.0-16.0"},{"group":"hexagon_bi","room_assignment":["grey","blue","purple","red","yellow","green"],"door_color_assignment":["black","white"],"door_generator_assignment":[1,0],"goal":1,"start":3,"action_noise":0,"location_history":"[3,4,3,2,3,4,5,4,3,4,3,2,3,4,3,4,3,2,1]","action_history":"[0,0,1,1,0,1,1,0,0,0,1,1,0,0,0,0,1,0]","door_history":"[1,1,0,0,1,0,0,1,1,1,0,0,1,1,1,1,0,1]","location_rts":"[4614,2176,1178,2759,1837,1320,2146,1281,550,1043,1760,1676,882,3694,1533,656,903,1281]","trial_type":"two-door-navigation","trial_index":19,"time_elapsed":614630,"internal_node_id":"0.0-2.0-17.0"},{"group":"hexagon_bi","room_assignment":["grey","blue","purple","red","yellow","green"],"door_color_assignment":["black","white"],"door_generator_assignment":[1,0],"goal":5,"start":1,"action_noise":0,"location_history":"[1,2,3,4,5]","action_history":"[0,1,0,1]","door_history":"[1,0,1,0]","location_rts":"[6124,1752,5322,1475]","trial_type":"two-door-navigation","trial_index":20,"time_elapsed":637376,"internal_node_id":"0.0-2.0-18.0"},{"group":"hexagon_bi","room_assignment":["grey","blue","purple","red","yellow","green"],"door_color_assignment":["black","white"],"door_generator_assignment":[1,0],"goal":2,"start":5,"action_noise":0,"location_history":"[5,4,5,0,1,0,1,2]","action_history":"[1,1,0,1,1,1,0]","door_history":"[0,0,1,0,0,0,1]","location_rts":"[3690,1439,1268,1992,2785,1914,2063]","trial_type":"two-door-navigation","trial_index":21,"time_elapsed":663638,"internal_node_id":"0.0-2.0-19.0"},{"group":"hexagon_bi","room_assignment":["grey","blue","purple","red","yellow","green"],"door_color_assignment":["black","white"],"door_generator_assignment":[1,0],"goal":4,"start":2,"action_noise":0,"location_history":"[2,3,2,1,0,5,0,1,0,5,4]","action_history":"[1,1,0,1,0,0,1,1,0,1]","door_history":"[0,0,1,0,1,1,0,0,1,0]","location_rts":"[4390,2518,4639,2464,1411,1599,1382,1778,2566,1185]","trial_type":"two-door-navigation","trial_index":22,"time_elapsed":701741,"internal_node_id":"0.0-2.0-20.0"},{"group":"hexagon_bi","room_assignment":["grey","blue","purple","red","yellow","green"],"door_color_assignment":["black","white"],"door_generator_assignment":[1,0],"goal":1,"start":4,"action_noise":0,"location_history":"[4,5,0,1]","action_history":"[1,0,1]","door_history":"[0,1,0]","location_rts":"[3811,1241,1156]","trial_type":"two-door-navigation","trial_index":23,"time_elapsed":715002,"internal_node_id":"0.0-2.0-21.0"},{"group":"hexagon_bi","room_assignment":["grey","blue","purple","red","yellow","green"],"door_color_assignment":["black","white"],"door_generator_assignment":[1,0],"goal":3,"start":1,"action_noise":0,"location_history":"[1,0,1,2,3]","action_history":"[1,1,0,1]","door_history":"[0,0,1,0]","location_rts":"[5040,1918,1137,2078]","trial_type":"two-door-navigation","trial_index":24,"time_elapsed":733246,"internal_node_id":"0.0-2.0-22.0"},{"group":"hexagon_bi","room_assignment":["grey","blue","purple","red","yellow","green"],"door_color_assignment":["black","white"],"door_generator_assignment":[1,0],"goal":2,"start":3,"action_noise":0,"location_history":"[3,2]","action_history":"[1]","door_history":"[0]","location_rts":"[7821]","trial_type":"two-door-navigation","trial_index":25,"time_elapsed":746088,"internal_node_id":"0.0-2.0-23.0"},{"group":"hexagon_bi","room_assignment":["grey","blue","purple","red","yellow","green"],"door_color_assignment":["black","white"],"door_generator_assignment":[1,0],"goal":0,"start":2,"action_noise":0,"location_history":"[2,1,0]","action_history":"[0,1]","door_history":"[1,0]","location_rts":"[4321,1529]","trial_type":"two-door-navigation","trial_index":26,"time_elapsed":757974,"internal_node_id":"0.0-2.0-24.0"},{"group":"hexagon_bi","room_assignment":["grey","blue","purple","red","yellow","green"],"door_color_assignment":["black","white"],"door_generator_assignment":[1,0],"goal":5,"start":0,"action_noise":0,"location_history":"[0,1,2,1,0,5]","action_history":"[1,0,0,1,0]","door_history":"[0,1,1,0,1]","location_rts":"[3227,2130,2188,1120,2476]","trial_type":"two-door-navigation","trial_index":27,"time_elapsed":778198,"internal_node_id":"0.0-2.0-25.0"},{"group":"hexagon_bi","room_assignment":["grey","blue","purple","red","yellow","green"],"door_color_assignment":["black","white"],"door_generator_assignment":[1,0],"goal":2,"start":5,"action_noise":0,"location_history":"[5,4,5,0,1,2]","action_history":"[1,1,0,1,0]","door_history":"[0,0,1,0,1]","location_rts":"[5348,1874,1657,1582,1761]","trial_type":"two-door-navigation","trial_index":28,"time_elapsed":799502,"internal_node_id":"0.0-2.0-26.0"},{"group":"hexagon_bi","room_assignment":["grey","blue","purple","red","yellow","green"],"door_color_assignment":["black","white"],"door_generator_assignment":[1,0],"goal":3,"start":2,"action_noise":0,"location_history":"[2,3]","action_history":"[1]","door_history":"[0]","location_rts":"[4421]","trial_type":"two-door-navigation","trial_index":29,"time_elapsed":808943,"internal_node_id":"0.0-2.0-27.0"},{"group":"hexagon_bi","room_assignment":["grey","blue","purple","red","yellow","green"],"door_color_assignment":["black","white"],"door_generator_assignment":[1,0],"goal":0,"start":3,"action_noise":0,"location_history":"[3,4,3,2,1,0]","action_history":"[0,0,1,0,1]","door_history":"[1,1,0,1,0]","location_rts":"[5070,1544,1143,2255,1650]","trial_type":"two-door-navigation","trial_index":30,"time_elapsed":829684,"internal_node_id":"0.0-2.0-28.0"},{"group":"hexagon_bi","room_assignment":["grey","blue","purple","red","yellow","green"],"door_color_assignment":["black","white"],"door_generator_assignment":[1,0],"goal":1,"start":0,"action_noise":0,"location_history":"[0,1]","action_history":"[1]","door_history":"[0]","location_rts":"[3359]","trial_type":"two-door-navigation","trial_index":31,"time_elapsed":838060,"internal_node_id":"0.0-2.0-29.0"},{"group":"hexagon_bi","room_assignment":["grey","blue","purple","red","yellow","green"],"door_color_assignment":["black","white"],"door_generator_assignment":[1,0],"goal":4,"start":1,"action_noise":0,"location_history":"[1,0,5,0,1,2,3,2,1,2,1,0,1,2,1,0,1,2,1,2,3,2,1,2,1,2,3,4]","action_history":"[1,0,0,1,0,1,1,0,0,0,1,1,0,0,1,1,0,0,0,1,1,0,0,0,0,1,0]","door_history":"[0,1,1,0,1,0,0,1,1,1,0,0,1,1,0,0,1,1,1,0,0,1,1,1,1,0,1]","location_rts":"[4494,3377,2350,2827,1814,1856,1816,1089,759,2353,1369,1223,1679,671,4441,522,1113,794,2024,904,1900,2870,865,655,1514,1298,1990]","trial_type":"two-door-navigation","trial_index":32,"time_elapsed":918060,"internal_node_id":"0.0-2.0-30.0"},{"group":"hexagon_bi","room_assignment":["grey","blue","purple","red","yellow","green"],"door_color_assignment":["black","white"],"door_generator_assignment":[1,0],"goal":5,"start":4,"action_noise":0,"location_history":"[4,5]","action_history":"[1]","door_history":"[0]","location_rts":"[5141]","trial_type":"two-door-navigation","trial_index":33,"time_elapsed":928224,"internal_node_id":"0.0-2.0-31.0"},{"group":"hexagon_bi","room_assignment":["grey","blue","purple","red","yellow","green"],"door_color_assignment":["black","white"],"door_generator_assignment":[1,0],"goal":0,"start":5,"action_noise":0,"location_history":"[5,4,3,2,1,2,3,2,1,0]","action_history":"[1,0,1,0,0,1,1,0,1]","door_history":"[0,1,0,1,1,0,0,1,0]","location_rts":"[2737,1255,1490,1567,972,930,1006,2062,1354]","trial_type":"two-door-navigation","trial_index":34,"time_elapsed":954748,"internal_node_id":"0.0-2.0-32.0"},{"group":"hexagon_bi","room_assignment":["grey","blue","purple","red","yellow","green"],"door_color_assignment":["black","white"],"door_generator_assignment":[1,0],"goal":3,"start":0,"action_noise":0,"location_history":"[0,1,2,1,0,1,0,5,4,3]","action_history":"[1,0,0,1,1,1,0,1,0]","door_history":"[0,1,1,0,0,0,1,0,1]","location_rts":"[3059,1513,2715,1451,1223,3528,1112,2184,1616]","trial_type":"two-door-navigation","trial_index":35,"time_elapsed":986301,"internal_node_id":"0.0-2.0-33.0"},{"group":"hexagon_bi","room_assignment":["grey","blue","purple","red","yellow","green"],"door_color_assignment":["black","white"],"door_generator_assignment":[1,0],"goal":1,"start":3,"action_noise":0,"location_history":"[3,2,1]","action_history":"[1,0]","door_history":"[0,1]","location_rts":"[4813,1002]","trial_type":"two-door-navigation","trial_index":36,"time_elapsed":998152,"internal_node_id":"0.0-2.0-34.0"},{"group":"hexagon_bi","room_assignment":["grey","blue","purple","red","yellow","green"],"door_color_assignment":["black","white"],"door_generator_assignment":[1,0],"goal":2,"start":1,"action_noise":0,"location_history":"[1,2]","action_history":"[0]","door_history":"[1]","location_rts":"[5371]","trial_type":"two-door-navigation","trial_index":37,"time_elapsed":1008542,"internal_node_id":"0.0-2.0-35.0"},{"group":"hexagon_bi","room_assignment":["grey","blue","purple","red","yellow","green"],"door_color_assignment":["black","white"],"door_generator_assignment":[1,0],"goal":4,"start":2,"action_noise":0,"location_history":"[2,3,2,1,0,5,0,1,0,1,2,3,4]","action_history":"[1,1,0,1,0,0,1,1,1,0,1,0]","door_history":"[0,0,1,0,1,1,0,0,0,1,0,1]","location_rts":"[3550,1573,3765,2295,2281,1773,1815,934,710,1129,1817,2319]","trial_type":"two-door-navigation","trial_index":38,"time_elapsed":1048707,"internal_node_id":"0.0-2.0-36.0"},{"group":"hexagon_bi","room_assignment":["grey","blue","purple","red","yellow","green"],"door_color_assignment":["black","white"],"door_generator_assignment":[1,0],"goal":5,"start":4,"action_noise":0,"location_history":"[4,3,2,1,2,3,2,1,0,1,2,1,2,3,4,3,2,3,4,5]","action_history":"[0,1,0,0,1,1,0,1,1,0,0,0,1,0,0,1,1,0,1]","door_history":"[1,0,1,1,0,0,1,0,0,1,1,1,0,1,1,0,0,1,0]","location_rts":"[5494,2703,2287,1601,1220,1567,1601,2071,1590,1068,522,2066,1046,2795,9088,1305,1416,2639,2778]","trial_type":"two-door-navigation","trial_index":39,"time_elapsed":1116870,"internal_node_id":"0.0-2.0-37.0"},{"group":"hexagon_bi","room_assignment":["grey","blue","purple","red","yellow","green"],"door_color_assignment":["black","white"],"door_generator_assignment":[1,0],"goal":1,"start":5,"action_noise":0,"location_history":"[5,4,3,2,1]","action_history":"[1,0,1,0]","door_history":"[0,1,0,1]","location_rts":"[5091,1153,3182,1841]","trial_type":"two-door-navigation","trial_index":40,"time_elapsed":1136204,"internal_node_id":"0.0-2.0-38.0"},{"group":"hexagon_bi","room_assignment":["grey","blue","purple","red","yellow","green"],"door_color_assignment":["black","white"],"door_generator_assignment":[1,0],"goal":4,"start":1,"action_noise":0,"location_history":"[1,2,1,0,5,0,1,0,5,0,1,2,1,0,1,2,1,2,3,4]","action_history":"[0,0,1,0,0,1,1,0,0,1,0,0,1,1,0,0,0,1,0]","door_history":"[1,1,0,1,1,0,0,1,1,0,1,1,0,0,1,1,1,0,1]","location_rts":"[5207,2377,923,1377,1270,1912,1330,1412,1191,2099,2110,1512,1327,1259,1909,2769,1488,1256,5864]","trial_type":"two-door-navigation","trial_index":41,"time_elapsed":1198091,"internal_node_id":"0.0-2.0-39.0"},{"group":"hexagon_bi","room_assignment":["grey","blue","purple","red","yellow","green"],"door_color_assignment":["black","white"],"door_generator_assignment":[1,0],"goal":3,"start":4,"action_noise":0,"location_history":"[4,3]","action_history":"[0]","door_history":"[1]","location_rts":"[3351]","trial_type":"two-door-navigation","trial_index":42,"time_elapsed":1206461,"internal_node_id":"0.0-2.0-40.0"},{"group":"hexagon_bi","room_assignment":["grey","blue","purple","red","yellow","green"],"door_color_assignment":["black","white"],"door_generator_assignment":[1,0],"goal":2,"start":3,"action_noise":0,"location_history":"[3,2]","action_history":"[1]","door_history":"[0]","location_rts":"[3750]","trial_type":"two-door-navigation","trial_index":43,"time_elapsed":1215231,"internal_node_id":"0.0-2.0-41.0"},{"group":"hexagon_bi","room_assignment":["grey","blue","purple","red","yellow","green"],"door_color_assignment":["black","white"],"door_generator_assignment":[1,0],"goal":0,"start":2,"action_noise":0,"location_history":"[2,3,4,5,0]","action_history":"[1,0,1,0]","door_history":"[0,1,0,1]","location_rts":"[3505,1258,1810,977]","trial_type":"two-door-navigation","trial_index":44,"time_elapsed":1230849,"internal_node_id":"0.0-2.0-42.0"},{"group":"hexagon_bi","room_assignment":["grey","blue","purple","red","yellow","green"],"door_color_assignment":["black","white"],"door_generator_assignment":[1,0],"goal":5,"start":0,"action_noise":0,"location_history":"[0,1,0,5]","action_history":"[1,1,0]","door_history":"[0,0,1]","location_rts":"[4100,2393,2113]","trial_type":"two-door-navigation","trial_index":45,"time_elapsed":1246506,"internal_node_id":"0.0-2.0-43.0"},{"group":"hexagon_bi","room_assignment":["grey","blue","purple","red","yellow","green"],"door_color_assignment":["black","white"],"door_generator_assignment":[1,0],"goal":0,"start":5,"action_noise":0,"location_history":"[5,4,3,2,3,4,3,2,3,2,1,2,1,0]","action_history":"[1,0,1,1,0,0,1,1,1,0,0,0,1]","door_history":"[0,1,0,0,1,1,0,0,0,1,1,1,0]","location_rts":"[3513,1731,2236,1176,970,806,1171,1504,1491,1430,850,2188,965]","trial_type":"two-door-navigation","trial_index":46,"time_elapsed":1283735,"internal_node_id":"0.0-2.0-44.0"},{"group":"hexagon_bi","room_assignment":["grey","blue","purple","red","yellow","green"],"door_color_assignment":["black","white"],"door_generator_assignment":[1,0],"goal":2,"start":0,"action_noise":0,"location_history":"[0,5,4,5,0,5,4,5,4,3,4,5,0,5,4,5,0,5,0,1,2]","action_history":"[0,1,1,0,0,1,1,1,0,0,1,0,0,1,1,0,0,0,1,0]","door_history":"[1,0,0,1,1,0,0,0,1,1,0,1,1,0,0,1,1,1,0,1]","location_rts":"[9554,1513,1806,888,1377,953,921,560,877,2578,1449,1551,1574,5982,1555,1318,1495,1455,1250,1874]","trial_type":"two-door-navigation","trial_index":47,"time_elapsed":1348590,"internal_node_id":"0.0-2.0-45.0"},{"group":"hexagon_bi","room_assignment":["grey","blue","purple","red","yellow","green"],"door_color_assignment":["black","white"],"door_generator_assignment":[1,0],"goal":4,"start":2,"action_noise":0,"location_history":"[2,3,4]","action_history":"[1,0]","door_history":"[0,1]","location_rts":"[4940,1371]","trial_type":"two-door-navigation","trial_index":48,"time_elapsed":1360931,"internal_node_id":"0.0-2.0-46.0"},{"group":"hexagon_bi","room_assignment":["grey","blue","purple","red","yellow","green"],"door_color_assignment":["black","white"],"door_generator_assignment":[1,0],"goal":1,"start":4,"action_noise":0,"location_history":"[4,5,0,1]","action_history":"[1,0,1]","door_history":"[0,1,0]","location_rts":"[3902,1897,4937]","trial_type":"two-door-navigation","trial_index":49,"time_elapsed":1378719,"internal_node_id":"0.0-2.0-47.0"},{"group":"hexagon_bi","room_assignment":["grey","blue","purple","red","yellow","green"],"door_color_assignment":["black","white"],"door_generator_assignment":[1,0],"goal":5,"start":1,"action_noise":0,"location_history":"[1,2,3,2,1,2,3,4,3,2,1,2,3,2,1,2,3,2,1,2,3,4,3,2,1,2,3,2,1,0,5]","action_history":"[0,1,1,0,0,1,0,0,1,0,0,1,1,0,0,1,1,0,0,1,0,0,1,0,0,1,1,0,1,0]","door_history":"[1,0,0,1,1,0,1,1,0,1,1,0,0,1,1,0,0,1,1,0,1,1,0,1,1,0,0,1,0,1]","location_rts":"[6914,1688,1514,3039,2682,1373,1944,3522,1463,1927,3723,1950,3857,1646,850,1710,1815,2503,1447,1222,1055,1654,1826,1266,1048,2969,2684,1367,1974,3359]","trial_type":"two-door-navigation","trial_index":50,"time_elapsed":1479203,"internal_node_id":"0.0-2.0-48.0"},{"group":"hexagon_bi","room_assignment":["grey","blue","purple","red","yellow","green"],"door_color_assignment":["black","white"],"door_generator_assignment":[1,0],"goal":3,"start":5,"action_noise":0,"location_history":"[5,4,3]","action_history":"[1,0]","door_history":"[0,1]","location_rts":"[8095,2108]","trial_type":"two-door-navigation","trial_index":51,"time_elapsed":1495441,"internal_node_id":"0.0-2.0-49.0"},{"view_history":"[{\"page_index\":0,\"viewing_time\":5857}]","rt":5857,"trial_type":"instructions","trial_index":52,"time_elapsed":1502299,"internal_node_id":"0.0-3.0"},{"view_history":"[{\"page_index\":0,\"viewing_time\":5462},{\"page_index\":1,\"viewing_time\":10328}]","rt":15790,"trial_type":"instructions","trial_index":53,"time_elapsed":1519090,"internal_node_id":"0.0-4.0"},{"group":"hexagon_tri","fractal_assignment":["../images/ylw_slt.png","../images/blu_wht.png","../images/pnk_blu.png","../images/cyn_red.png","../images/org_blu.png","../images/gry_blk.png"],"mutagen_generator_assignment":[1,0],"goal":3,"start":5,"action_noise":0,"location_history":"[5,0,5,0,5,0,1,3]","action_history":"[1,0,1,0,1,1,0]","mutagen_history":"[0,1,0,1,0,0,1]","location_rts":"[22774,968,1946,1503,1306,253,1210]","trial_type":"fractal-mutation","trial_index":54,"time_elapsed":1560242,"internal_node_id":"0.0-5.0-0.0"},{"group":"hexagon_tri","fractal_assignment":["../images/ylw_slt.png","../images/blu_wht.png","../images/pnk_blu.png","../images/cyn_red.png","../images/org_blu.png","../images/gry_blk.png"],"mutagen_generator_assignment":[1,0],"goal":1,"start":3,"action_noise":0,"location_history":"[3,2,3,2,3,4,0,1]","action_history":"[0,1,0,1,1,0,1]","mutagen_history":"[1,0,1,0,0,1,0]","location_rts":"[2262,1434,864,2094,937,1659,747]","trial_type":"fractal-mutation","trial_index":55,"time_elapsed":1581430,"internal_node_id":"0.0-5.0-1.0"},{"group":"hexagon_tri","fractal_assignment":["../images/ylw_slt.png","../images/blu_wht.png","../images/pnk_blu.png","../images/cyn_red.png","../images/org_blu.png","../images/gry_blk.png"],"mutagen_generator_assignment":[1,0],"goal":0,"start":1,"action_noise":0,"location_history":"[1,5,0]","action_history":"[1,1]","mutagen_history":"[0,0]","location_rts":"[2739,1436]","trial_type":"fractal-mutation","trial_index":56,"time_elapsed":1591650,"internal_node_id":"0.0-5.0-2.0"},{"group":"hexagon_tri","fractal_assignment":["../images/ylw_slt.png","../images/blu_wht.png","../images/pnk_blu.png","../images/cyn_red.png","../images/org_blu.png","../images/gry_blk.png"],"mutagen_generator_assignment":[1,0],"goal":3,"start":0,"action_noise":0,"location_history":"[0,5,4,0,1,5,4,2,1,5,0,1,5,4,2,1,5,0,5,4,2,3]","action_history":"[0,0,0,1,1,0,1,0,1,1,1,1,0,1,0,1,1,0,0,1,1]","mutagen_history":"[1,1,1,0,0,1,0,1,0,0,0,0,1,0,1,0,0,1,1,0,0]","location_rts":"[2645,23,1189,748,1193,403,850,903,2465,3991,874,1611,675,1241,888,583,2438,1744,1048,2424,4003]","trial_type":"fractal-mutation","trial_index":57,"time_elapsed":1649061,"internal_node_id":"0.0-5.0-3.0"},{"group":"hexagon_tri","fractal_assignment":["../images/ylw_slt.png","../images/blu_wht.png","../images/pnk_blu.png","../images/cyn_red.png","../images/org_blu.png","../images/gry_blk.png"],"mutagen_generator_assignment":[1,0],"goal":4,"start":3,"action_noise":0,"location_history":"[3,2,3,2,3,4]","action_history":"[0,1,0,1,1]","mutagen_history":"[1,0,1,0,0]","location_rts":"[3690,679,197,816,2007]","trial_type":"fractal-mutation","trial_index":58,"time_elapsed":1665570,"internal_node_id":"0.0-5.0-4.0"},{"group":"hexagon_tri","fractal_assignment":["../images/ylw_slt.png","../images/blu_wht.png","../images/pnk_blu.png","../images/cyn_red.png","../images/org_blu.png","../images/gry_blk.png"],"mutagen_generator_assignment":[1,0],"goal":2,"start":4,"action_noise":0,"location_history":"[4,2]","action_history":"[1]","mutagen_history":"[0]","location_rts":"[2742]","trial_type":"fractal-mutation","trial_index":59,"time_elapsed":1673338,"internal_node_id":"0.0-5.0-5.0"},{"group":"hexagon_tri","fractal_assignment":["../images/ylw_slt.png","../images/blu_wht.png","../images/pnk_blu.png","../images/cyn_red.png","../images/org_blu.png","../images/gry_blk.png"],"mutagen_generator_assignment":[1,0],"goal":1,"start":2,"action_noise":0,"location_history":"[2,3,4,2,1]","action_history":"[1,1,1,0]","mutagen_history":"[0,0,0,1]","location_rts":"[2221,855,1323,1065]","trial_type":"fractal-mutation","trial_index":60,"time_elapsed":1686901,"internal_node_id":"0.0-5.0-6.0"},{"group":"hexagon_tri","fractal_assignment":["../images/ylw_slt.png","../images/blu_wht.png","../images/pnk_blu.png","../images/cyn_red.png","../images/org_blu.png","../images/gry_blk.png"],"mutagen_generator_assignment":[1,0],"goal":5,"start":1,"action_noise":0,"location_history":"[1,3,2,1,3,2,1,3,2,1,5]","action_history":"[0,0,0,0,0,0,0,0,0,1]","mutagen_history":"[1,1,1,1,1,1,1,1,1,0]","location_rts":"[1435,1774,1529,208,1418,1488,1102,1503,627,2411]","trial_type":"fractal-mutation","trial_index":61,"time_elapsed":1714631,"internal_node_id":"0.0-5.0-7.0"},{"group":"hexagon_tri","fractal_assignment":["../images/ylw_slt.png","../images/blu_wht.png","../images/pnk_blu.png","../images/cyn_red.png","../images/org_blu.png","../images/gry_blk.png"],"mutagen_generator_assignment":[1,0],"goal":4,"start":5,"action_noise":0,"location_history":"[5,0,1,5,0,1,3,2,1,3,2,1,3,4]","action_history":"[1,1,1,1,1,0,0,0,0,0,0,0,1]","mutagen_history":"[0,0,0,0,0,1,1,1,1,1,1,1,0]","location_rts":"[2737,321,1847,1540,619,1251,1090,479,1020,1016,96,704,1534]","trial_type":"fractal-mutation","trial_index":62,"time_elapsed":1746185,"internal_node_id":"0.0-5.0-8.0"},{"group":"hexagon_tri","fractal_assignment":["../images/ylw_slt.png","../images/blu_wht.png","../images/pnk_blu.png","../images/cyn_red.png","../images/org_blu.png","../images/gry_blk.png"],"mutagen_generator_assignment":[1,0],"goal":2,"start":4,"action_noise":0,"location_history":"[4,2]","action_history":"[1]","mutagen_history":"[0]","location_rts":"[3415]","trial_type":"fractal-mutation","trial_index":63,"time_elapsed":1754626,"internal_node_id":"0.0-5.0-9.0"},{"group":"hexagon_tri","fractal_assignment":["../images/ylw_slt.png","../images/blu_wht.png","../images/pnk_blu.png","../images/cyn_red.png","../images/org_blu.png","../images/gry_blk.png"],"mutagen_generator_assignment":[1,0],"goal":0,"start":2,"action_noise":0,"location_history":"[2,3,2,3,4,0]","action_history":"[1,0,1,1,0]","mutagen_history":"[0,1,0,0,1]","location_rts":"[4165,1140,728,2,2706]","trial_type":"fractal-mutation","trial_index":64,"time_elapsed":1772485,"internal_node_id":"0.0-5.0-10.0"},{"group":"hexagon_tri","fractal_assignment":["../images/ylw_slt.png","../images/blu_wht.png","../images/pnk_blu.png","../images/cyn_red.png","../images/org_blu.png","../images/gry_blk.png"],"mutagen_generator_assignment":[1,0],"goal":1,"start":0,"action_noise":0,"location_history":"[0,1]","action_history":"[1]","mutagen_history":"[0]","location_rts":"[2627]","trial_type":"fractal-mutation","trial_index":65,"time_elapsed":1780137,"internal_node_id":"0.0-5.0-11.0"},{"group":"hexagon_tri","fractal_assignment":["../images/ylw_slt.png","../images/blu_wht.png","../images/pnk_blu.png","../images/cyn_red.png","../images/org_blu.png","../images/gry_blk.png"],"mutagen_generator_assignment":[1,0],"goal":3,"start":1,"action_noise":0,"location_history":"[1,3]","action_history":"[0]","mutagen_history":"[1]","location_rts":"[2103]","trial_type":"fractal-mutation","trial_index":66,"time_elapsed":1787269,"internal_node_id":"0.0-5.0-12.0"},{"group":"hexagon_tri","fractal_assignment":["../images/ylw_slt.png","../images/blu_wht.png","../images/pnk_blu.png","../images/cyn_red.png","../images/org_blu.png","../images/gry_blk.png"],"mutagen_generator_assignment":[1,0],"goal":5,"start":3,"action_noise":0,"location_history":"[3,2,1,3,2,1,5]","action_history":"[0,0,0,0,0,1]","mutagen_history":"[1,1,1,1,1,0]","location_rts":"[2189,1276,1542,3108,1388,1641]","trial_type":"fractal-mutation","trial_index":67,"time_elapsed":1808562,"internal_node_id":"0.0-5.0-13.0"},{"group":"hexagon_tri","fractal_assignment":["../images/ylw_slt.png","../images/blu_wht.png","../images/pnk_blu.png","../images/cyn_red.png","../images/org_blu.png","../images/gry_blk.png"],"mutagen_generator_assignment":[1,0],"goal":4,"start":5,"action_noise":0,"location_history":"[5,0,1,3,4]","action_history":"[1,1,0,1]","mutagen_history":"[0,0,1,0]","location_rts":"[3295,656,1256,2351]","trial_type":"fractal-mutation","trial_index":68,"time_elapsed":1824217,"internal_node_id":"0.0-5.0-14.0"},{"group":"hexagon_tri","fractal_assignment":["../images/ylw_slt.png","../images/blu_wht.png","../images/pnk_blu.png","../images/cyn_red.png","../images/org_blu.png","../images/gry_blk.png"],"mutagen_generator_assignment":[1,0],"goal":0,"start":4,"action_noise":0,"location_history":"[4,2,1,5,4,2,3,4,0]","action_history":"[1,0,1,0,1,1,1,0]","mutagen_history":"[0,1,0,1,0,0,0,1]","location_rts":"[2031,2156,3934,938,1654,563,999,321]","trial_type":"fractal-mutation","trial_index":69,"time_elapsed":1849012,"internal_node_id":"0.0-5.0-15.0"},{"group":"hexagon_tri","fractal_assignment":["../images/ylw_slt.png","../images/blu_wht.png","../images/pnk_blu.png","../images/cyn_red.png","../images/org_blu.png","../images/gry_blk.png"],"mutagen_generator_assignment":[1,0],"goal":3,"start":0,"action_noise":0,"location_history":"[0,5,0,1,3]","action_history":"[0,1,1,0]","mutagen_history":"[1,0,0,1]","location_rts":"[1853,819,899,1574]","trial_type":"fractal-mutation","trial_index":70,"time_elapsed":1862269,"internal_node_id":"0.0-5.0-16.0"},{"group":"hexagon_tri","fractal_assignment":["../images/ylw_slt.png","../images/blu_wht.png","../images/pnk_blu.png","../images/cyn_red.png","../images/org_blu.png","../images/gry_blk.png"],"mutagen_generator_assignment":[1,0],"goal":1,"start":3,"action_noise":0,"location_history":"[3,2,1]","action_history":"[0,0]","mutagen_history":"[1,1]","location_rts":"[2259,1765]","trial_type":"fractal-mutation","trial_index":71,"time_elapsed":1872348,"internal_node_id":"0.0-5.0-17.0"},{"group":"hexagon_tri","fractal_assignment":["../images/ylw_slt.png","../images/blu_wht.png","../images/pnk_blu.png","../images/cyn_red.png","../images/org_blu.png","../images/gry_blk.png"],"mutagen_generator_assignment":[1,0],"goal":5,"start":1,"action_noise":0,"location_history":"[1,5]","action_history":"[1]","mutagen_history":"[0]","location_rts":"[2276]","trial_type":"fractal-mutation","trial_index":72,"time_elapsed":1879652,"internal_node_id":"0.0-5.0-18.0"},{"group":"hexagon_tri","fractal_assignment":["../images/ylw_slt.png","../images/blu_wht.png","../images/pnk_blu.png","../images/cyn_red.png","../images/org_blu.png","../images/gry_blk.png"],"mutagen_generator_assignment":[1,0],"goal":2,"start":5,"action_noise":0,"location_history":"[5,0,5,4,0,1,5,4,2]","action_history":"[1,0,0,0,1,1,0,1]","mutagen_history":"[0,1,1,1,0,0,1,0]","location_rts":"[1803,1637,1204,607,2457,638,1733,1140]","trial_type":"fractal-mutation","trial_index":73,"time_elapsed":1903090,"internal_node_id":"0.0-5.0-19.0"},{"group":"hexagon_tri","fractal_assignment":["../images/ylw_slt.png","../images/blu_wht.png","../images/pnk_blu.png","../images/cyn_red.png","../images/org_blu.png","../images/gry_blk.png"],"mutagen_generator_assignment":[1,0],"goal":4,"start":2,"action_noise":0,"location_history":"[2,3,2,3,2,3,2,3,2,3,2,1,5,4]","action_history":"[1,0,1,0,1,0,1,0,1,0,0,1,0]","mutagen_history":"[0,1,0,1,0,1,0,1,0,1,1,0,1]","location_rts":"[1701,232,1195,996,96,250,97,3,747,186,225,1249,509]","trial_type":"fractal-mutation","trial_index":74,"time_elapsed":1927875,"internal_node_id":"0.0-5.0-20.0"},{"group":"hexagon_tri","fractal_assignment":["../images/ylw_slt.png","../images/blu_wht.png","../images/pnk_blu.png","../images/cyn_red.png","../images/org_blu.png","../images/gry_blk.png"],"mutagen_generator_assignment":[1,0],"goal":1,"start":4,"action_noise":0,"location_history":"[4,2,1]","action_history":"[1,0]","mutagen_history":"[0,1]","location_rts":"[2036,1152]","trial_type":"fractal-mutation","trial_index":75,"time_elapsed":1937116,"internal_node_id":"0.0-5.0-21.0"},{"group":"hexagon_tri","fractal_assignment":["../images/ylw_slt.png","../images/blu_wht.png","../images/pnk_blu.png","../images/cyn_red.png","../images/org_blu.png","../images/gry_blk.png"],"mutagen_generator_assignment":[1,0],"goal":3,"start":1,"action_noise":0,"location_history":"[1,3]","action_history":"[0]","mutagen_history":"[1]","location_rts":"[3301]","trial_type":"fractal-mutation","trial_index":76,"time_elapsed":1945448,"internal_node_id":"0.0-5.0-22.0"},{"group":"hexagon_tri","fractal_assignment":["../images/ylw_slt.png","../images/blu_wht.png","../images/pnk_blu.png","../images/cyn_red.png","../images/org_blu.png","../images/gry_blk.png"],"mutagen_generator_assignment":[1,0],"goal":2,"start":3,"action_noise":0,"location_history":"[3,4,2]","action_history":"[1,1]","mutagen_history":"[0,0]","location_rts":"[1544,1792]","trial_type":"fractal-mutation","trial_index":77,"time_elapsed":1954839,"internal_node_id":"0.0-5.0-23.0"},{"group":"hexagon_tri","fractal_assignment":["../images/ylw_slt.png","../images/blu_wht.png","../images/pnk_blu.png","../images/cyn_red.png","../images/org_blu.png","../images/gry_blk.png"],"mutagen_generator_assignment":[1,0],"goal":0,"start":2,"action_noise":0,"location_history":"[2,3,2,3,4,2,3,4,2,1,5,4,0]","action_history":"[1,0,1,1,1,1,1,1,0,1,0,0]","mutagen_history":"[0,1,0,0,0,0,0,0,1,0,1,1]","location_rts":"[2306,900,160,1078,89,681,739,2830,888,810,1289,1137]","trial_type":"fractal-mutation","trial_index":78,"time_elapsed":1984029,"internal_node_id":"0.0-5.0-24.0"},{"group":"hexagon_tri","fractal_assignment":["../images/ylw_slt.png","../images/blu_wht.png","../images/pnk_blu.png","../images/cyn_red.png","../images/org_blu.png","../images/gry_blk.png"],"mutagen_generator_assignment":[1,0],"goal":5,"start":0,"action_noise":0,"location_history":"[0,5]","action_history":"[0]","mutagen_history":"[1]","location_rts":"[2803]","trial_type":"fractal-mutation","trial_index":79,"time_elapsed":1991858,"internal_node_id":"0.0-5.0-25.0"},{"group":"hexagon_tri","fractal_assignment":["../images/ylw_slt.png","../images/blu_wht.png","../images/pnk_blu.png","../images/cyn_red.png","../images/org_blu.png","../images/gry_blk.png"],"mutagen_generator_assignment":[1,0],"goal":2,"start":5,"action_noise":0,"location_history":"[5,4,0,5,0,5,0,1,3,2]","action_history":"[0,0,0,1,0,1,1,0,0]","mutagen_history":"[1,1,1,0,1,0,0,1,1]","location_rts":"[2190,1250,373,1883,282,645,378,1140,1181]","trial_type":"fractal-mutation","trial_index":80,"time_elapsed":2014393,"internal_node_id":"0.0-5.0-26.0"},{"group":"hexagon_tri","fractal_assignment":["../images/ylw_slt.png","../images/blu_wht.png","../images/pnk_blu.png","../images/cyn_red.png","../images/org_blu.png","../images/gry_blk.png"],"mutagen_generator_assignment":[1,0],"goal":3,"start":2,"action_noise":0,"location_history":"[2,3]","action_history":"[1]","mutagen_history":"[0]","location_rts":"[3671]","trial_type":"fractal-mutation","trial_index":81,"time_elapsed":2023087,"internal_node_id":"0.0-5.0-27.0"},{"group":"hexagon_tri","fractal_assignment":["../images/ylw_slt.png","../images/blu_wht.png","../images/pnk_blu.png","../images/cyn_red.png","../images/org_blu.png","../images/gry_blk.png"],"mutagen_generator_assignment":[1,0],"goal":0,"start":3,"action_noise":0,"location_history":"[3,2,1,5,0]","action_history":"[0,0,1,1]","mutagen_history":"[1,1,0,0]","location_rts":"[2018,96,1197,162]","trial_type":"fractal-mutation","trial_index":82,"time_elapsed":2034645,"internal_node_id":"0.0-5.0-28.0"},{"group":"hexagon_tri","fractal_assignment":["../images/ylw_slt.png","../images/blu_wht.png","../images/pnk_blu.png","../images/cyn_red.png","../images/org_blu.png","../images/gry_blk.png"],"mutagen_generator_assignment":[1,0],"goal":1,"start":0,"action_noise":0,"location_history":"[0,5,0,1]","action_history":"[0,1,1]","mutagen_history":"[1,0,0]","location_rts":"[2403,158,1814]","trial_type":"fractal-mutation","trial_index":83,"time_elapsed":2046089,"internal_node_id":"0.0-5.0-29.0"},{"group":"hexagon_tri","fractal_assignment":["../images/ylw_slt.png","../images/blu_wht.png","../images/pnk_blu.png","../images/cyn_red.png","../images/org_blu.png","../images/gry_blk.png"],"mutagen_generator_assignment":[1,0],"goal":4,"start":1,"action_noise":0,"location_history":"[1,3,4]","action_history":"[0,1]","mutagen_history":"[1,0]","location_rts":"[2448,1958]","trial_type":"fractal-mutation","trial_index":84,"time_elapsed":2056548,"internal_node_id":"0.0-5.0-30.0"},{"group":"hexagon_tri","fractal_assignment":["../images/ylw_slt.png","../images/blu_wht.png","../images/pnk_blu.png","../images/cyn_red.png","../images/org_blu.png","../images/gry_blk.png"],"mutagen_generator_assignment":[1,0],"goal":5,"start":4,"action_noise":0,"location_history":"[4,0,1,3,4,2,1,3,4,0,1,3,4,0,1,5]","action_history":"[0,1,0,1,1,0,0,1,0,1,0,1,0,1,1]","mutagen_history":"[1,0,1,0,0,1,1,0,1,0,1,0,1,0,0]","location_rts":"[1611,1208,2779,1413,617,0,129,188,99,479,1834,909,617,728,50]","trial_type":"fractal-mutation","trial_index":85,"time_elapsed":2088580,"internal_node_id":"0.0-5.0-31.0"},{"group":"hexagon_tri","fractal_assignment":["../images/ylw_slt.png","../images/blu_wht.png","../images/pnk_blu.png","../images/cyn_red.png","../images/org_blu.png","../images/gry_blk.png"],"mutagen_generator_assignment":[1,0],"goal":0,"start":5,"action_noise":0,"location_history":"[5,4,0]","action_history":"[0,0]","mutagen_history":"[1,1]","location_rts":"[2004,3340]","trial_type":"fractal-mutation","trial_index":86,"time_elapsed":2099978,"internal_node_id":"0.0-5.0-32.0"},{"group":"hexagon_tri","fractal_assignment":["../images/ylw_slt.png","../images/blu_wht.png","../images/pnk_blu.png","../images/cyn_red.png","../images/org_blu.png","../images/gry_blk.png"],"mutagen_generator_assignment":[1,0],"goal":3,"start":0,"action_noise":0,"location_history":"[0,1,3]","action_history":"[1,0]","mutagen_history":"[0,1]","location_rts":"[2078,937]","trial_type":"fractal-mutation","trial_index":87,"time_elapsed":2109044,"internal_node_id":"0.0-5.0-33.0"},{"group":"hexagon_tri","fractal_assignment":["../images/ylw_slt.png","../images/blu_wht.png","../images/pnk_blu.png","../images/cyn_red.png","../images/org_blu.png","../images/gry_blk.png"],"mutagen_generator_assignment":[1,0],"goal":1,"start":3,"action_noise":0,"location_history":"[3,4,0,1]","action_history":"[1,0,1]","mutagen_history":"[0,1,0]","location_rts":"[1444,688,637]","trial_type":"fractal-mutation","trial_index":88,"time_elapsed":2118887,"internal_node_id":"0.0-5.0-34.0"},{"group":"hexagon_tri","fractal_assignment":["../images/ylw_slt.png","../images/blu_wht.png","../images/pnk_blu.png","../images/cyn_red.png","../images/org_blu.png","../images/gry_blk.png"],"mutagen_generator_assignment":[1,0],"goal":2,"start":1,"action_noise":0,"location_history":"[1,5,0,1,3,4,2]","action_history":"[1,1,1,0,1,1]","mutagen_history":"[0,0,0,1,0,0]","location_rts":"[1937,1080,978,1210,886,1361]","trial_type":"fractal-mutation","trial_index":89,"time_elapsed":2136482,"internal_node_id":"0.0-5.0-35.0"},{"group":"hexagon_tri","fractal_assignment":["../images/ylw_slt.png","../images/blu_wht.png","../images/pnk_blu.png","../images/cyn_red.png","../images/org_blu.png","../images/gry_blk.png"],"mutagen_generator_assignment":[1,0],"goal":4,"start":2,"action_noise":0,"location_history":"[2,3,4]","action_history":"[1,1]","mutagen_history":"[0,0]","location_rts":"[2496,1123]","trial_type":"fractal-mutation","trial_index":90,"time_elapsed":2146156,"internal_node_id":"0.0-5.0-36.0"},{"group":"hexagon_tri","fractal_assignment":["../images/ylw_slt.png","../images/blu_wht.png","../images/pnk_blu.png","../images/cyn_red.png","../images/org_blu.png","../images/gry_blk.png"],"mutagen_generator_assignment":[1,0],"goal":5,"start":4,"action_noise":0,"location_history":"[4,0,1,3,2,3,2,1,3,4,2,3,2,1,5]","action_history":"[0,1,0,0,1,0,0,0,1,1,1,0,0,1]","mutagen_history":"[1,0,1,1,0,1,1,1,0,0,0,1,1,0]","location_rts":"[1451,280,1056,868,436,85,2038,786,346,1185,1009,697,657,173]","trial_type":"fractal-mutation","trial_index":91,"time_elapsed":2175567,"internal_node_id":"0.0-5.0-37.0"},{"group":"hexagon_tri","fractal_assignment":["../images/ylw_slt.png","../images/blu_wht.png","../images/pnk_blu.png","../images/cyn_red.png","../images/org_blu.png","../images/gry_blk.png"],"mutagen_generator_assignment":[1,0],"goal":1,"start":5,"action_noise":0,"location_history":"[5,4,0,1]","action_history":"[0,0,1]","mutagen_history":"[1,1,0]","location_rts":"[4401,788,1213]","trial_type":"fractal-mutation","trial_index":92,"time_elapsed":2189048,"internal_node_id":"0.0-5.0-38.0"},{"group":"hexagon_tri","fractal_assignment":["../images/ylw_slt.png","../images/blu_wht.png","../images/pnk_blu.png","../images/cyn_red.png","../images/org_blu.png","../images/gry_blk.png"],"mutagen_generator_assignment":[1,0],"goal":4,"start":1,"action_noise":0,"location_history":"[1,5,0,5,0,5,4]","action_history":"[1,1,0,1,0,0]","mutagen_history":"[0,0,1,0,1,1]","location_rts":"[2648,558,1479,1598,1182,792]","trial_type":"fractal-mutation","trial_index":93,"time_elapsed":2207453,"internal_node_id":"0.0-5.0-39.0"},{"group":"hexagon_tri","fractal_assignment":["../images/ylw_slt.png","../images/blu_wht.png","../images/pnk_blu.png","../images/cyn_red.png","../images/org_blu.png","../images/gry_blk.png"],"mutagen_generator_assignment":[1,0],"goal":3,"start":4,"action_noise":0,"location_history":"[4,0,1,3]","action_history":"[0,1,0]","mutagen_history":"[1,0,1]","location_rts":"[2690,1751,1455]","trial_type":"fractal-mutation","trial_index":94,"time_elapsed":2220428,"internal_node_id":"0.0-5.0-40.0"},{"group":"hexagon_tri","fractal_assignment":["../images/ylw_slt.png","../images/blu_wht.png","../images/pnk_blu.png","../images/cyn_red.png","../images/org_blu.png","../images/gry_blk.png"],"mutagen_generator_assignment":[1,0],"goal":2,"start":3,"action_noise":0,"location_history":"[3,2]","action_history":"[0]","mutagen_history":"[1]","location_rts":"[1283]","trial_type":"fractal-mutation","trial_index":95,"time_elapsed":2226740,"internal_node_id":"0.0-5.0-41.0"},{"group":"hexagon_tri","fractal_assignment":["../images/ylw_slt.png","../images/blu_wht.png","../images/pnk_blu.png","../images/cyn_red.png","../images/org_blu.png","../images/gry_blk.png"],"mutagen_generator_assignment":[1,0],"goal":0,"start":2,"action_noise":0,"location_history":"[2,3,2,3,2,3,4,0]","action_history":"[1,0,1,0,1,1,0]","mutagen_history":"[0,1,0,1,0,0,1]","location_rts":"[2021,2969,2684,1159,384,619,227]","trial_type":"fractal-mutation","trial_index":96,"time_elapsed":2247972,"internal_node_id":"0.0-5.0-42.0"},{"group":"hexagon_tri","fractal_assignment":["../images/ylw_slt.png","../images/blu_wht.png","../images/pnk_blu.png","../images/cyn_red.png","../images/org_blu.png","../images/gry_blk.png"],"mutagen_generator_assignment":[1,0],"goal":5,"start":0,"action_noise":0,"location_history":"[0,5]","action_history":"[0]","mutagen_history":"[1]","location_rts":"[2846]","trial_type":"fractal-mutation","trial_index":97,"time_elapsed":2255843,"internal_node_id":"0.0-5.0-43.0"},{"group":"hexagon_tri","fractal_assignment":["../images/ylw_slt.png","../images/blu_wht.png","../images/pnk_blu.png","../images/cyn_red.png","../images/org_blu.png","../images/gry_blk.png"],"mutagen_generator_assignment":[1,0],"goal":0,"start":5,"action_noise":0,"location_history":"[5,4,0]","action_history":"[0,0]","mutagen_history":"[1,1]","location_rts":"[2004,1637]","trial_type":"fractal-mutation","trial_index":98,"time_elapsed":2265540,"internal_node_id":"0.0-5.0-44.0"},{"group":"hexagon_tri","fractal_assignment":["../images/ylw_slt.png","../images/blu_wht.png","../images/pnk_blu.png","../images/cyn_red.png","../images/org_blu.png","../images/gry_blk.png"],"mutagen_generator_assignment":[1,0],"goal":2,"start":0,"action_noise":0,"location_history":"[0,5,0,1,3,4,0,1,5,4,2]","action_history":"[0,1,1,0,1,0,1,1,0,1]","mutagen_history":"[1,0,0,1,0,1,0,0,1,0]","location_rts":"[1421,2094,1079,714,1291,964,1060,555,84,1152]","trial_type":"fractal-mutation","trial_index":99,"time_elapsed":2290196,"internal_node_id":"0.0-5.0-45.0"},{"group":"hexagon_tri","fractal_assignment":["../images/ylw_slt.png","../images/blu_wht.png","../images/pnk_blu.png","../images/cyn_red.png","../images/org_blu.png","../images/gry_blk.png"],"mutagen_generator_assignment":[1,0],"goal":4,"start":2,"action_noise":0,"location_history":"[2,3,2,1,5,0,5,0,1,5,0,1,5,4]","action_history":"[1,0,0,1,1,0,1,1,1,1,1,1,0]","mutagen_history":"[0,1,1,0,0,1,0,0,0,0,0,0,1]","location_rts":"[3580,1859,2315,2869,103,1161,1657,537,241,1091,115,195,127]","trial_type":"fractal-mutation","trial_index":100,"time_elapsed":2323355,"internal_node_id":"0.0-5.0-46.0"},{"group":"hexagon_tri","fractal_assignment":["../images/ylw_slt.png","../images/blu_wht.png","../images/pnk_blu.png","../images/cyn_red.png","../images/org_blu.png","../images/gry_blk.png"],"mutagen_generator_assignment":[1,0],"goal":1,"start":4,"action_noise":0,"location_history":"[4,2,3,2,3,4,2,1]","action_history":"[1,1,0,1,1,1,0]","mutagen_history":"[0,0,1,0,0,0,1]","location_rts":"[2573,1601,836,753,154,1562,402]","trial_type":"fractal-mutation","trial_index":101,"time_elapsed":2342396,"internal_node_id":"0.0-5.0-47.0"},{"group":"hexagon_tri","fractal_assignment":["../images/ylw_slt.png","../images/blu_wht.png","../images/pnk_blu.png","../images/cyn_red.png","../images/org_blu.png","../images/gry_blk.png"],"mutagen_generator_assignment":[1,0],"goal":5,"start":1,"action_noise":0,"location_history":"[1,3,2,1,3,2,1,3,4,0,5]","action_history":"[0,0,0,0,0,0,0,1,0,0]","mutagen_history":"[1,1,1,1,1,1,1,0,1,1]","location_rts":"[1828,694,814,587,729,551,590,800,1079,226]","trial_type":"fractal-mutation","trial_index":102,"time_elapsed":2364557,"internal_node_id":"0.0-5.0-48.0"},{"group":"hexagon_tri","fractal_assignment":["../images/ylw_slt.png","../images/blu_wht.png","../images/pnk_blu.png","../images/cyn_red.png","../images/org_blu.png","../images/gry_blk.png"],"mutagen_generator_assignment":[1,0],"goal":3,"start":5,"action_noise":0,"location_history":"[5,0,5,4,0,5,0,1,5,4,2,1,3]","action_history":"[1,0,0,0,0,1,1,1,0,1,0,0]","mutagen_history":"[0,1,1,1,1,0,0,0,1,0,1,1]","location_rts":"[3154,105,1396,864,231,1986,721,1159,16,980,1899,960]","trial_type":"fractal-mutation","trial_index":103,"time_elapsed":2394332,"internal_node_id":"0.0-5.0-49.0"},{"view_history":"[{\"page_index\":0,\"viewing_time\":14054}]","rt":14054,"trial_type":"instructions","trial_index":104,"time_elapsed":2409387,"internal_node_id":"0.0-6.0"},{"rt":3997,"responses":"{\"Q0\":\"\"}","trial_type":"survey-text","trial_index":105,"time_elapsed":2414386,"internal_node_id":"0.0-7.0"}]