[{"view_history":"[{\"page_index\":0,\"viewing_time\":11269},{\"page_index\":1,\"viewing_time\":13360}]","rt":24631,"trial_type":"instructions","trial_index":0,"time_elapsed":24633,"internal_node_id":"0.0-0.0"},{"view_history":"[{\"page_index\":0,\"viewing_time\":4034},{\"page_index\":1,\"viewing_time\":1522}]","rt":5557,"trial_type":"instructions","trial_index":1,"time_elapsed":31193,"internal_node_id":"0.0-1.0"},{"group":"hexagon_bi","room_assignment":["grey","purple","yellow","green","blue","red"],"door_color_assignment":["white","black"],"door_generator_assignment":[1,0],"goal":3,"start":5,"action_noise":0,"location_history":"[5,0,1,2,3]","action_history":"[0,1,0,1]","door_history":"[1,0,1,0]","location_rts":"[4214,1613,459,592]","trial_type":"two-door-navigation","trial_index":2,"time_elapsed":46516,"internal_node_id":"0.0-2.0-0.0"},{"group":"hexagon_bi","room_assignment":["grey","purple","yellow","green","blue","red"],"door_color_assignment":["white","black"],"door_generator_assignment":[1,0],"goal":1,"start":3,"action_noise":0,"location_history":"[3,4,5,0,1]","action_history":"[0,1,0,1]","door_history":"[1,0,1,0]","location_rts":"[23142,548,535,539]","trial_type":"two-door-navigation","trial_index":3,"time_elapsed":80646,"internal_node_id":"0.0-2.0-1.0"},{"group":"hexagon_bi","room_assignment":["grey","purple","yellow","green","blue","red"],"door_color_assignment":["white","black"],"door_generator_assignment":[1,0],"goal":0,"start":1,"action_noise":0,"location_history":"[1,0]","action_history":"[1]","door_history":"[0]","location_rts":"[1800]","trial_type":"two-door-navigation","trial_index":4,"time_elapsed":87561,"internal_node_id":"0.0-2.0-2.0"},{"group":"hexagon_bi","room_assignment":["grey","purple","yellow","green","blue","red"],"door_color_assignment":["white","black"],"door_generator_assignment":[1,0],"goal":3,"start":0,"action_noise":0,"location_history":"[0,5,4,3]","action_history":"[0,1,0]","door_history":"[1,0,1]","location_rts":"[2353,604,480]","trial_type":"two-door-navigation","trial_index":5,"time_elapsed":98158,"internal_node_id":"0.0-2.0-3.0"},{"group":"hexagon_bi","room_assignment":["grey","purple","yellow","green","blue","red"],"door_color_assignment":["white","black"],"door_generator_assignment":[1,0],"goal":4,"start":3,"action_noise":0,"location_history":"[3,2,1,0,5,4]","action_history":"[1,0,1,0,1]","door_history":"[0,1,0,1,0]","location_rts":"[1829,634,787,809,707]","trial_type":"two-door-navigation","trial_index":6,"time_elapsed":112066,"internal_node_id":"0.0-2.0-4.0"},{"group":"hexagon_bi","room_assignment":["grey","purple","yellow","green","blue","red"],"door_color_assignment":["white","black"],"door_generator_assignment":[1,0],"goal":2,"start":4,"action_noise":0,"location_history":"[4,3,2]","action_history":"[0,1]","door_history":"[1,0]","location_rts":"[4157,683]","trial_type":"two-door-navigation","trial_index":7,"time_elapsed":122963,"internal_node_id":"0.0-2.0-5.0"},{"group":"hexagon_bi","room_assignment":["grey","purple","yellow","green","blue","red"],"door_color_assignment":["white","black"],"door_generator_assignment":[1,0],"goal":1,"start":2,"action_noise":0,"location_history":"[2,1]","action_history":"[0]","door_history":"[1]","location_rts":"[2313]","trial_type":"two-door-navigation","trial_index":8,"time_elapsed":130309,"internal_node_id":"0.0-2.0-6.0"},{"group":"hexagon_bi","room_assignment":["grey","purple","yellow","green","blue","red"],"door_color_assignment":["white","black"],"door_generator_assignment":[1,0],"goal":5,"start":1,"action_noise":0,"location_history":"[1,0,5]","action_history":"[1,0]","door_history":"[0,1]","location_rts":"[1521,574]","trial_type":"two-door-navigation","trial_index":9,"time_elapsed":138461,"internal_node_id":"0.0-2.0-7.0"},{"group":"hexagon_bi","room_assignment":["grey","purple","yellow","green","blue","red"],"door_color_assignment":["white","black"],"door_generator_assignment":[1,0],"goal":4,"start":5,"action_noise":0,"location_history":"[5,0,1,2,3,4]","action_history":"[0,1,0,1,0]","door_history":"[1,0,1,0,1]","location_rts":"[1931,923,625,614,589]","trial_type":"two-door-navigation","trial_index":10,"time_elapsed":152270,"internal_node_id":"0.0-2.0-8.0"},{"group":"hexagon_bi","room_assignment":["grey","purple","yellow","green","blue","red"],"door_color_assignment":["white","black"],"door_generator_assignment":[1,0],"goal":2,"start":4,"action_noise":0,"location_history":"[4,3,2]","action_history":"[0,1]","door_history":"[1,0]","location_rts":"[1326,743]","trial_type":"two-door-navigation","trial_index":11,"time_elapsed":160400,"internal_node_id":"0.0-2.0-9.0"},{"group":"hexagon_bi","room_assignment":["grey","purple","yellow","green","blue","red"],"door_color_assignment":["white","black"],"door_generator_assignment":[1,0],"goal":0,"start":2,"action_noise":0,"location_history":"[2,1,0]","action_history":"[0,1]","door_history":"[1,0]","location_rts":"[18636,761]","trial_type":"two-door-navigation","trial_index":12,"time_elapsed":185852,"internal_node_id":"0.0-2.0-10.0"},{"group":"hexagon_bi","room_assignment":["grey","purple","yellow","green","blue","red"],"door_color_assignment":["white","black"],"door_generator_assignment":[1,0],"goal":1,"start":0,"action_noise":0,"location_history":"[0,5,4,3,2,1]","action_history":"[0,1,0,1,0]","door_history":"[1,0,1,0,1]","location_rts":"[1960,467,559,523,602]","trial_type":"two-door-navigation","trial_index":13,"time_elapsed":199088,"internal_node_id":"0.0-2.0-11.0"},{"group":"hexagon_bi","room_assignment":["grey","purple","yellow","green","blue","red"],"door_color_assignment":["white","black"],"door_generator_assignment":[1,0],"goal":3,"start":1,"action_noise":0,"location_history":"[1,0,5,4,3]","action_history":"[1,0,1,0]","door_history":"[0,1,0,1]","location_rts":"[1253,713,644,588]","trial_type":"two-door-navigation","trial_index":14,"time_elapsed":210394,"internal_node_id":"0.0-2.0-12.0"},{"group":"hexagon_bi","room_assignment":["grey","purple","yellow","green","blue","red"],"door_color_assignment":["white","black"],"door_generator_assignment":[1,0],"goal":5,"start":3,"action_noise":0,"location_history":"[3,2,1,0,5]","action_history":"[1,0,1,0]","door_history":"[0,1,0,1]","location_rts":"[1583,542,582,608]","trial_type":"two-door-navigation","trial_index":15,"time_elapsed":221807,"internal_node_id":"0.0-2.0-13.0"},{"group":"hexagon_bi","room_assignment":["grey","purple","yellow","green","blue","red"],"door_color_assignment":["white","black"],"door_generator_assignment":[1,0],"goal":4,"start":5,"action_noise":0,"location_history":"[5,0,1,2,3,4]","action_history":"[0,1,0,1,0]","door_history":"[1,0,1,0,1]","location_rts":"[1740,775,537,617,495]","trial_type":"two-door-navigation","trial_index":16,"time_elapsed":235094,"internal_node_id":"0.0-2.0-14.0"},{"group":"hexagon_bi","room_assignment":["grey","purple","yellow","green","blue","red"],"door_color_assignment":["white","black"],"door_generator_assignment":[1,0],"goal":0,"start":4,"action_noise":0,"location_history":"[4,3,2,1,0]","action_history":"[0,1,0,1]","door_history":"[1,0,1,0]","location_rts":"[1898,648,527,771]","trial_type":"two-door-navigation","trial_index":17,"time_elapsed":247038,"internal_node_id":"0.0-2.0-15.0"},{"group":"hexagon_bi","room_assignment":["grey","purple","yellow","green","blue","red"],"door_color_assignment":["white","black"],"door_generator_assignment":[1,0],"goal":3,"start":0,"action_noise":0,"location_history":"[0,5,4,3]","action_history":"[0,1,0]","door_history":"[1,0,1]","location_rts":"[1500,417,475]","trial_type":"two-door-navigation","trial_index":18,"time_elapsed":256503,"internal_node_id":"0.0-2.0-16.0"},{"group":"hexagon_bi","room_assignment":["grey","purple","yellow","green","blue","red"],"door_color_assignment":["white","black"],"door_generator_assignment":[1,0],"goal":1,"start":3,"action_noise":0,"location_history":"[3,4,5,0,1]","action_history":"[0,1,0,1]","door_history":"[1,0,1,0]","location_rts":"[1790,736,506,429]","trial_type":"two-door-navigation","trial_index":19,"time_elapsed":268067,"internal_node_id":"0.0-2.0-17.0"},{"group":"hexagon_bi","room_assignment":["grey","purple","yellow","green","blue","red"],"door_color_assignment":["white","black"],"door_generator_assignment":[1,0],"goal":5,"start":1,"action_noise":0,"location_history":"[1,0,5]","action_history":"[1,0]","door_history":"[0,1]","location_rts":"[15221,4235]","trial_type":"two-door-navigation","trial_index":20,"time_elapsed":293576,"internal_node_id":"0.0-2.0-18.0"},{"group":"hexagon_bi","room_assignment":["grey","purple","yellow","green","blue","red"],"door_color_assignment":["white","black"],"door_generator_assignment":[1,0],"goal":2,"start":5,"action_noise":0,"location_history":"[5,4,3,2]","action_history":"[1,0,1]","door_history":"[0,1,0]","location_rts":"[1735,533,663]","trial_type":"two-door-navigation","trial_index":21,"time_elapsed":303586,"internal_node_id":"0.0-2.0-19.0"},{"group":"hexagon_bi","room_assignment":["grey","purple","yellow","green","blue","red"],"door_color_assignment":["white","black"],"door_generator_assignment":[1,0],"goal":4,"start":2,"action_noise":0,"location_history":"[2,1,0,5,4]","action_history":"[0,1,0,1]","door_history":"[1,0,1,0]","location_rts":"[2223,884,842,1349]","trial_type":"two-door-navigation","trial_index":22,"time_elapsed":316987,"internal_node_id":"0.0-2.0-20.0"},{"group":"hexagon_bi","room_assignment":["grey","purple","yellow","green","blue","red"],"door_color_assignment":["white","black"],"door_generator_assignment":[1,0],"goal":1,"start":4,"action_noise":0,"location_history":"[4,5,0,1]","action_history":"[1,0,1]","door_history":"[0,1,0]","location_rts":"[3925,584,566]","trial_type":"two-door-navigation","trial_index":23,"time_elapsed":329142,"internal_node_id":"0.0-2.0-21.0"},{"group":"hexagon_bi","room_assignment":["grey","purple","yellow","green","blue","red"],"door_color_assignment":["white","black"],"door_generator_assignment":[1,0],"goal":3,"start":1,"action_noise":0,"location_history":"[1,0,5,4,3]","action_history":"[1,0,1,0]","door_history":"[0,1,0,1]","location_rts":"[1988,817,661,550]","trial_type":"two-door-navigation","trial_index":24,"time_elapsed":341262,"internal_node_id":"0.0-2.0-22.0"},{"group":"hexagon_bi","room_assignment":["grey","purple","yellow","green","blue","red"],"door_color_assignment":["white","black"],"door_generator_assignment":[1,0],"goal":2,"start":3,"action_noise":0,"location_history":"[3,2]","action_history":"[1]","door_history":"[0]","location_rts":"[1499]","trial_type":"two-door-navigation","trial_index":25,"time_elapsed":347786,"internal_node_id":"0.0-2.0-23.0"},{"group":"hexagon_bi","room_assignment":["grey","purple","yellow","green","blue","red"],"door_color_assignment":["white","black"],"door_generator_assignment":[1,0],"goal":0,"start":2,"action_noise":0,"location_history":"[2,1,0]","action_history":"[0,1]","door_history":"[1,0]","location_rts":"[3334,773]","trial_type":"two-door-navigation","trial_index":26,"time_elapsed":357940,"internal_node_id":"0.0-2.0-24.0"},{"group":"hexagon_bi","room_assignment":["grey","purple","yellow","green","blue","red"],"door_color_assignment":["white","black"],"door_generator_assignment":[1,0],"goal":5,"start":0,"action_noise":0,"location_history":"[0,5]","action_history":"[0]","door_history":"[1]","location_rts":"[1404]","trial_type":"two-door-navigation","trial_index":27,"time_elapsed":364373,"internal_node_id":"0.0-2.0-25.0"},{"group":"hexagon_bi","room_assignment":["grey","purple","yellow","green","blue","red"],"door_color_assignment":["white","black"],"door_generator_assignment":[1,0],"goal":2,"start":5,"action_noise":0,"location_history":"[5,4,3,2]","action_history":"[1,0,1]","door_history":"[0,1,0]","location_rts":"[2258,648,642]","trial_type":"two-door-navigation","trial_index":28,"time_elapsed":374987,"internal_node_id":"0.0-2.0-26.0"},{"group":"hexagon_bi","room_assignment":["grey","purple","yellow","green","blue","red"],"door_color_assignment":["white","black"],"door_generator_assignment":[1,0],"goal":3,"start":2,"action_noise":0,"location_history":"[2,1,0,5,4,3]","action_history":"[0,1,0,1,0]","door_history":"[1,0,1,0,1]","location_rts":"[6959,1415,526,639,533]","trial_type":"two-door-navigation","trial_index":29,"time_elapsed":394170,"internal_node_id":"0.0-2.0-27.0"},{"group":"hexagon_bi","room_assignment":["grey","purple","yellow","green","blue","red"],"door_color_assignment":["white","black"],"door_generator_assignment":[1,0],"goal":0,"start":3,"action_noise":0,"location_history":"[3,4,5,0]","action_history":"[0,1,0]","door_history":"[1,0,1]","location_rts":"[1531,618,562]","trial_type":"two-door-navigation","trial_index":30,"time_elapsed":403959,"internal_node_id":"0.0-2.0-28.0"},{"group":"hexagon_bi","room_assignment":["grey","purple","yellow","green","blue","red"],"door_color_assignment":["white","black"],"door_generator_assignment":[1,0],"goal":1,"start":0,"action_noise":0,"location_history":"[0,1]","action_history":"[1]","door_history":"[0]","location_rts":"[2087]","trial_type":"two-door-navigation","trial_index":31,"time_elapsed":411073,"internal_node_id":"0.0-2.0-29.0"},{"group":"hexagon_bi","room_assignment":["grey","purple","yellow","green","blue","red"],"door_color_assignment":["white","black"],"door_generator_assignment":[1,0],"goal":4,"start":1,"action_noise":0,"location_history":"[1,2,3,4]","action_history":"[0,1,0]","door_history":"[1,0,1]","location_rts":"[1812,627,470]","trial_type":"two-door-navigation","trial_index":32,"time_elapsed":421061,"internal_node_id":"0.0-2.0-30.0"},{"group":"hexagon_bi","room_assignment":["grey","purple","yellow","green","blue","red"],"door_color_assignment":["white","black"],"door_generator_assignment":[1,0],"goal":5,"start":4,"action_noise":0,"location_history":"[4,5]","action_history":"[1]","door_history":"[0]","location_rts":"[2051]","trial_type":"two-door-navigation","trial_index":33,"time_elapsed":428142,"internal_node_id":"0.0-2.0-31.0"},{"group":"hexagon_bi","room_assignment":["grey","purple","yellow","green","blue","red"],"door_color_assignment":["white","black"],"door_generator_assignment":[1,0],"goal":0,"start":5,"action_noise":0,"location_history":"[5,4,3,2,1,0]","action_history":"[1,0,1,0,1]","door_history":"[0,1,0,1,0]","location_rts":"[1501,683,490,694,674]","trial_type":"two-door-navigation","trial_index":34,"time_elapsed":441313,"internal_node_id":"0.0-2.0-32.0"},{"group":"hexagon_bi","room_assignment":["grey","purple","yellow","green","blue","red"],"door_color_assignment":["white","black"],"door_generator_assignment":[1,0],"goal":3,"start":0,"action_noise":0,"location_history":"[0,1,2,3]","action_history":"[1,0,1]","door_history":"[0,1,0]","location_rts":"[1584,440,510]","trial_type":"two-door-navigation","trial_index":35,"time_elapsed":450928,"internal_node_id":"0.0-2.0-33.0"},{"group":"hexagon_bi","room_assignment":["grey","purple","yellow","green","blue","red"],"door_color_assignment":["white","black"],"door_generator_assignment":[1,0],"goal":1,"start":3,"action_noise":0,"location_history":"[3,4,5,0,1]","action_history":"[0,1,0,1]","door_history":"[1,0,1,0]","location_rts":"[1459,720,418,385]","trial_type":"two-door-navigation","trial_index":36,"time_elapsed":462019,"internal_node_id":"0.0-2.0-34.0"},{"group":"hexagon_bi","room_assignment":["grey","purple","yellow","green","blue","red"],"door_color_assignment":["white","black"],"door_generator_assignment":[1,0],"goal":2,"start":1,"action_noise":0,"location_history":"[1,0,5,4,3,2]","action_history":"[1,0,1,0,1]","door_history":"[0,1,0,1,0]","location_rts":"[3160,661,586,432,397]","trial_type":"two-door-navigation","trial_index":37,"time_elapsed":476388,"internal_node_id":"0.0-2.0-35.0"},{"group":"hexagon_bi","room_assignment":["grey","purple","yellow","green","blue","red"],"door_color_assignment":["white","black"],"door_generator_assignment":[1,0],"goal":4,"start":2,"action_noise":0,"location_history":"[2,1,0,5,4]","action_history":"[0,1,0,1]","door_history":"[1,0,1,0]","location_rts":"[2724,647,436,543]","trial_type":"two-door-navigation","trial_index":38,"time_elapsed":488844,"internal_node_id":"0.0-2.0-36.0"},{"group":"hexagon_bi","room_assignment":["grey","purple","yellow","green","blue","red"],"door_color_assignment":["white","black"],"door_generator_assignment":[1,0],"goal":5,"start":4,"action_noise":0,"location_history":"[4,5]","action_history":"[1]","door_history":"[0]","location_rts":"[1777]","trial_type":"two-door-navigation","trial_index":39,"time_elapsed":495651,"internal_node_id":"0.0-2.0-37.0"},{"group":"hexagon_bi","room_assignment":["grey","purple","yellow","green","blue","red"],"door_color_assignment":["white","black"],"door_generator_assignment":[1,0],"goal":1,"start":5,"action_noise":0,"location_history":"[5,4,5,0,1]","action_history":"[1,1,0,1]","door_history":"[0,0,1,0]","location_rts":"[1625,566,573,590]","trial_type":"two-door-navigation","trial_index":40,"time_elapsed":507109,"internal_node_id":"0.0-2.0-38.0"},{"group":"hexagon_bi","room_assignment":["grey","purple","yellow","green","blue","red"],"door_color_assignment":["white","black"],"door_generator_assignment":[1,0],"goal":4,"start":1,"action_noise":0,"location_history":"[1,0,5,4]","action_history":"[1,0,1]","door_history":"[0,1,0]","location_rts":"[1600,418,505]","trial_type":"two-door-navigation","trial_index":41,"time_elapsed":516720,"internal_node_id":"0.0-2.0-39.0"},{"group":"hexagon_bi","room_assignment":["grey","purple","yellow","green","blue","red"],"door_color_assignment":["white","black"],"door_generator_assignment":[1,0],"goal":3,"start":4,"action_noise":0,"location_history":"[4,3]","action_history":"[0]","door_history":"[1]","location_rts":"[1205]","trial_type":"two-door-navigation","trial_index":42,"time_elapsed":522952,"internal_node_id":"0.0-2.0-40.0"},{"group":"hexagon_bi","room_assignment":["grey","purple","yellow","green","blue","red"],"door_color_assignment":["white","black"],"door_generator_assignment":[1,0],"goal":2,"start":3,"action_noise":0,"location_history":"[3,2]","action_history":"[1]","door_history":"[0]","location_rts":"[4677]","trial_type":"two-door-navigation","trial_index":43,"time_elapsed":532658,"internal_node_id":"0.0-2.0-41.0"},{"group":"hexagon_bi","room_assignment":["grey","purple","yellow","green","blue","red"],"door_color_assignment":["white","black"],"door_generator_assignment":[1,0],"goal":0,"start":2,"action_noise":0,"location_history":"[2,1,0]","action_history":"[0,1]","door_history":"[1,0]","location_rts":"[2637,4025]","trial_type":"two-door-navigation","trial_index":44,"time_elapsed":545376,"internal_node_id":"0.0-2.0-42.0"},{"group":"hexagon_bi","room_assignment":["grey","purple","yellow","green","blue","red"],"door_color_assignment":["white","black"],"door_generator_assignment":[1,0],"goal":5,"start":0,"action_noise":0,"location_history":"[0,5]","action_history":"[0]","door_history":"[1]","location_rts":"[1785]","trial_type":"two-door-navigation","trial_index":45,"time_elapsed":552191,"internal_node_id":"0.0-2.0-43.0"},{"group":"hexagon_bi","room_assignment":["grey","purple","yellow","green","blue","red"],"door_color_assignment":["white","black"],"door_generator_assignment":[1,0],"goal":0,"start":5,"action_noise":0,"location_history":"[5,0]","action_history":"[0]","door_history":"[1]","location_rts":"[8492]","trial_type":"two-door-navigation","trial_index":46,"time_elapsed":565716,"internal_node_id":"0.0-2.0-44.0"},{"group":"hexagon_bi","room_assignment":["grey","purple","yellow","green","blue","red"],"door_color_assignment":["white","black"],"door_generator_assignment":[1,0],"goal":2,"start":0,"action_noise":0,"location_history":"[0,1,2]","action_history":"[1,0]","door_history":"[0,1]","location_rts":"[4631,802]","trial_type":"two-door-navigation","trial_index":47,"time_elapsed":577205,"internal_node_id":"0.0-2.0-45.0"},{"group":"hexagon_bi","room_assignment":["grey","purple","yellow","green","blue","red"],"door_color_assignment":["white","black"],"door_generator_assignment":[1,0],"goal":4,"start":2,"action_noise":0,"location_history":"[2,3,4]","action_history":"[1,0]","door_history":"[0,1]","location_rts":"[4451,793]","trial_type":"two-door-navigation","trial_index":48,"time_elapsed":588499,"internal_node_id":"0.0-2.0-46.0"},{"group":"hexagon_bi","room_assignment":["grey","purple","yellow","green","blue","red"],"door_color_assignment":["white","black"],"door_generator_assignment":[1,0],"goal":1,"start":4,"action_noise":0,"location_history":"[4,3,2,1]","action_history":"[0,1,0]","door_history":"[1,0,1]","location_rts":"[1491,577,506]","trial_type":"two-door-navigation","trial_index":49,"time_elapsed":598155,"internal_node_id":"0.0-2.0-47.0"},{"group":"hexagon_bi","room_assignment":["grey","purple","yellow","green","blue","red"],"door_color_assignment":["white","black"],"door_generator_assignment":[1,0],"goal":5,"start":1,"action_noise":0,"location_history":"[1,0,5]","action_history":"[1,0]","door_history":"[0,1]","location_rts":"[1292,552]","trial_type":"two-door-navigation","trial_index":50,"time_elapsed":606055,"internal_node_id":"0.0-2.0-48.0"},{"group":"hexagon_bi","room_assignment":["grey","purple","yellow","green","blue","red"],"door_color_assignment":["white","black"],"door_generator_assignment":[1,0],"goal":3,"start":5,"action_noise":0,"location_history":"[5,4,3]","action_history":"[1,0]","door_history":"[0,1]","location_rts":"[6757,1219]","trial_type":"two-door-navigation","trial_index":51,"time_elapsed":620085,"internal_node_id":"0.0-2.0-49.0"},{"view_history":"[{\"page_index\":0,\"viewing_time\":20096}]","rt":20096,"trial_type":"instructions","trial_index":52,"time_elapsed":641182,"internal_node_id":"0.0-3.0"},{"view_history":"[{\"page_index\":0,\"viewing_time\":1917},{\"page_index\":1,\"viewing_time\":1065}]","rt":2983,"trial_type":"instructions","trial_index":53,"time_elapsed":645167,"internal_node_id":"0.0-4.0"},{"group":"hexagon_bi","fractal_assignment":["../images/gry_blk.png","../images/pnk_blu.png","../images/ylw_slt.png","../images/org_blu.png","../images/blu_wht.png","../images/cyn_red.png"],"mutagen_generator_assignment":[1,0],"goal":3,"start":5,"action_noise":0,"location_history":"[5,4,3]","action_history":"[1,0]","mutagen_history":"[0,1]","location_rts":"[4158,655]","trial_type":"fractal-mutation","trial_index":54,"time_elapsed":656101,"internal_node_id":"0.0-5.0-0.0"},{"group":"hexagon_bi","fractal_assignment":["../images/gry_blk.png","../images/pnk_blu.png","../images/ylw_slt.png","../images/org_blu.png","../images/blu_wht.png","../images/cyn_red.png"],"mutagen_generator_assignment":[1,0],"goal":1,"start":3,"action_noise":0,"location_history":"[3,4,5,0,5,4,3,2,1]","action_history":"[0,1,0,0,1,0,1,0]","mutagen_history":"[1,0,1,1,0,1,0,1]","location_rts":"[2901,590,141,468,452,258,420,480]","trial_type":"fractal-mutation","trial_index":55,"time_elapsed":674230,"internal_node_id":"0.0-5.0-1.0"},{"group":"hexagon_bi","fractal_assignment":["../images/gry_blk.png","../images/pnk_blu.png","../images/ylw_slt.png","../images/org_blu.png","../images/blu_wht.png","../images/cyn_red.png"],"mutagen_generator_assignment":[1,0],"goal":0,"start":1,"action_noise":0,"location_history":"[1,0]","action_history":"[1]","mutagen_history":"[0]","location_rts":"[2344]","trial_type":"fractal-mutation","trial_index":56,"time_elapsed":681623,"internal_node_id":"0.0-5.0-2.0"},{"group":"hexagon_bi","fractal_assignment":["../images/gry_blk.png","../images/pnk_blu.png","../images/ylw_slt.png","../images/org_blu.png","../images/blu_wht.png","../images/cyn_red.png"],"mutagen_generator_assignment":[1,0],"goal":3,"start":0,"action_noise":0,"location_history":"[0,5,4,3]","action_history":"[0,1,0]","mutagen_history":"[1,0,1]","location_rts":"[3026,361,477]","trial_type":"fractal-mutation","trial_index":57,"time_elapsed":692639,"internal_node_id":"0.0-5.0-3.0"},{"group":"hexagon_bi","fractal_assignment":["../images/gry_blk.png","../images/pnk_blu.png","../images/ylw_slt.png","../images/org_blu.png","../images/blu_wht.png","../images/cyn_red.png"],"mutagen_generator_assignment":[1,0],"goal":4,"start":3,"action_noise":0,"location_history":"[3,2,1,0,5,4]","action_history":"[1,0,1,0,1]","mutagen_history":"[0,1,0,1,0]","location_rts":"[1370,422,595,498,526]","trial_type":"fractal-mutation","trial_index":58,"time_elapsed":705265,"internal_node_id":"0.0-5.0-4.0"},{"group":"hexagon_bi","fractal_assignment":["../images/gry_blk.png","../images/pnk_blu.png","../images/ylw_slt.png","../images/org_blu.png","../images/blu_wht.png","../images/cyn_red.png"],"mutagen_generator_assignment":[1,0],"goal":2,"start":4,"action_noise":0,"location_history":"[4,3,2]","action_history":"[0,1]","mutagen_history":"[1,0]","location_rts":"[1750,337]","trial_type":"fractal-mutation","trial_index":59,"time_elapsed":713450,"internal_node_id":"0.0-5.0-5.0"},{"group":"hexagon_bi","fractal_assignment":["../images/gry_blk.png","../images/pnk_blu.png","../images/ylw_slt.png","../images/org_blu.png","../images/blu_wht.png","../images/cyn_red.png"],"mutagen_generator_assignment":[1,0],"goal":1,"start":2,"action_noise":0,"location_history":"[2,1]","action_history":"[0]","mutagen_history":"[1]","location_rts":"[4777]","trial_type":"fractal-mutation","trial_index":60,"time_elapsed":723292,"internal_node_id":"0.0-5.0-6.0"},{"group":"hexagon_bi","fractal_assignment":["../images/gry_blk.png","../images/pnk_blu.png","../images/ylw_slt.png","../images/org_blu.png","../images/blu_wht.png","../images/cyn_red.png"],"mutagen_generator_assignment":[1,0],"goal":5,"start":1,"action_noise":0,"location_history":"[1,0,5]","action_history":"[1,0]","mutagen_history":"[0,1]","location_rts":"[4356,615]","trial_type":"fractal-mutation","trial_index":61,"time_elapsed":734364,"internal_node_id":"0.0-5.0-7.0"},{"group":"hexagon_bi","fractal_assignment":["../images/gry_blk.png","../images/pnk_blu.png","../images/ylw_slt.png","../images/org_blu.png","../images/blu_wht.png","../images/cyn_red.png"],"mutagen_generator_assignment":[1,0],"goal":4,"start":5,"action_noise":0,"location_history":"[5,4]","action_history":"[1]","mutagen_history":"[0]","location_rts":"[2528]","trial_type":"fractal-mutation","trial_index":62,"time_elapsed":741936,"internal_node_id":"0.0-5.0-8.0"},{"group":"hexagon_bi","fractal_assignment":["../images/gry_blk.png","../images/pnk_blu.png","../images/ylw_slt.png","../images/org_blu.png","../images/blu_wht.png","../images/cyn_red.png"],"mutagen_generator_assignment":[1,0],"goal":2,"start":4,"action_noise":0,"location_history":"[4,3,2]","action_history":"[0,1]","mutagen_history":"[1,0]","location_rts":"[5761,604]","trial_type":"fractal-mutation","trial_index":63,"time_elapsed":754397,"internal_node_id":"0.0-5.0-9.0"},{"group":"hexagon_bi","fractal_assignment":["../images/gry_blk.png","../images/pnk_blu.png","../images/ylw_slt.png","../images/org_blu.png","../images/blu_wht.png","../images/cyn_red.png"],"mutagen_generator_assignment":[1,0],"goal":0,"start":2,"action_noise":0,"location_history":"[2,3,4,5,0]","action_history":"[1,0,1,0]","mutagen_history":"[0,1,0,1]","location_rts":"[1394,347,525,393]","trial_type":"fractal-mutation","trial_index":64,"time_elapsed":765221,"internal_node_id":"0.0-5.0-10.0"},{"group":"hexagon_bi","fractal_assignment":["../images/gry_blk.png","../images/pnk_blu.png","../images/ylw_slt.png","../images/org_blu.png","../images/blu_wht.png","../images/cyn_red.png"],"mutagen_generator_assignment":[1,0],"goal":1,"start":0,"action_noise":0,"location_history":"[0,5,4,3,2,1]","action_history":"[0,1,0,1,0]","mutagen_history":"[1,0,1,0,1]","location_rts":"[1098,376,533,361,353]","trial_type":"fractal-mutation","trial_index":65,"time_elapsed":777185,"internal_node_id":"0.0-5.0-11.0"},{"group":"hexagon_bi","fractal_assignment":["../images/gry_blk.png","../images/pnk_blu.png","../images/ylw_slt.png","../images/org_blu.png","../images/blu_wht.png","../images/cyn_red.png"],"mutagen_generator_assignment":[1,0],"goal":3,"start":1,"action_noise":0,"location_history":"[1,0,5,4,3]","action_history":"[1,0,1,0]","mutagen_history":"[0,1,0,1]","location_rts":"[499,365,305,348]","trial_type":"fractal-mutation","trial_index":66,"time_elapsed":786884,"internal_node_id":"0.0-5.0-12.0"},{"group":"hexagon_bi","fractal_assignment":["../images/gry_blk.png","../images/pnk_blu.png","../images/ylw_slt.png","../images/org_blu.png","../images/blu_wht.png","../images/cyn_red.png"],"mutagen_generator_assignment":[1,0],"goal":5,"start":3,"action_noise":0,"location_history":"[3,4,5]","action_history":"[0,1]","mutagen_history":"[1,0]","location_rts":"[1842,331]","trial_type":"fractal-mutation","trial_index":67,"time_elapsed":795146,"internal_node_id":"0.0-5.0-13.0"},{"group":"hexagon_bi","fractal_assignment":["../images/gry_blk.png","../images/pnk_blu.png","../images/ylw_slt.png","../images/org_blu.png","../images/blu_wht.png","../images/cyn_red.png"],"mutagen_generator_assignment":[1,0],"goal":4,"start":5,"action_noise":0,"location_history":"[5,0,1,2,3,4]","action_history":"[0,1,0,1,0]","mutagen_history":"[1,0,1,0,1]","location_rts":"[867,483,555,456,700]","trial_type":"fractal-mutation","trial_index":68,"time_elapsed":807438,"internal_node_id":"0.0-5.0-14.0"},{"group":"hexagon_bi","fractal_assignment":["../images/gry_blk.png","../images/pnk_blu.png","../images/ylw_slt.png","../images/org_blu.png","../images/blu_wht.png","../images/cyn_red.png"],"mutagen_generator_assignment":[1,0],"goal":0,"start":4,"action_noise":0,"location_history":"[4,5,0]","action_history":"[1,0]","mutagen_history":"[0,1]","location_rts":"[1411,362]","trial_type":"fractal-mutation","trial_index":69,"time_elapsed":815296,"internal_node_id":"0.0-5.0-15.0"},{"group":"hexagon_bi","fractal_assignment":["../images/gry_blk.png","../images/pnk_blu.png","../images/ylw_slt.png","../images/org_blu.png","../images/blu_wht.png","../images/cyn_red.png"],"mutagen_generator_assignment":[1,0],"goal":3,"start":0,"action_noise":0,"location_history":"[0,5,4,3]","action_history":"[0,1,0]","mutagen_history":"[1,0,1]","location_rts":"[798,377,460]","trial_type":"fractal-mutation","trial_index":70,"time_elapsed":824078,"internal_node_id":"0.0-5.0-16.0"},{"group":"hexagon_bi","fractal_assignment":["../images/gry_blk.png","../images/pnk_blu.png","../images/ylw_slt.png","../images/org_blu.png","../images/blu_wht.png","../images/cyn_red.png"],"mutagen_generator_assignment":[1,0],"goal":1,"start":3,"action_noise":0,"location_history":"[3,4,5,0,1]","action_history":"[0,1,0,1]","mutagen_history":"[1,0,1,0]","location_rts":"[2892,402,828,777]","trial_type":"fractal-mutation","trial_index":71,"time_elapsed":837167,"internal_node_id":"0.0-5.0-17.0"},{"group":"hexagon_bi","fractal_assignment":["../images/gry_blk.png","../images/pnk_blu.png","../images/ylw_slt.png","../images/org_blu.png","../images/blu_wht.png","../images/cyn_red.png"],"mutagen_generator_assignment":[1,0],"goal":5,"start":1,"action_noise":0,"location_history":"[1,0,5]","action_history":"[1,0]","mutagen_history":"[0,1]","location_rts":"[8850,1384]","trial_type":"fractal-mutation","trial_index":72,"time_elapsed":853488,"internal_node_id":"0.0-5.0-18.0"},{"group":"hexagon_bi","fractal_assignment":["../images/gry_blk.png","../images/pnk_blu.png","../images/ylw_slt.png","../images/org_blu.png","../images/blu_wht.png","../images/cyn_red.png"],"mutagen_generator_assignment":[1,0],"goal":2,"start":5,"action_noise":0,"location_history":"[5,4,3,2]","action_history":"[1,0,1]","mutagen_history":"[0,1,0]","location_rts":"[759,372,268]","trial_type":"fractal-mutation","trial_index":73,"time_elapsed":862022,"internal_node_id":"0.0-5.0-19.0"},{"group":"hexagon_bi","fractal_assignment":["../images/gry_blk.png","../images/pnk_blu.png","../images/ylw_slt.png","../images/org_blu.png","../images/blu_wht.png","../images/cyn_red.png"],"mutagen_generator_assignment":[1,0],"goal":4,"start":2,"action_noise":0,"location_history":"[2,1,0,5,4]","action_history":"[0,1,0,1]","mutagen_history":"[1,0,1,0]","location_rts":"[691,397,354,316]","trial_type":"fractal-mutation","trial_index":74,"time_elapsed":871955,"internal_node_id":"0.0-5.0-20.0"},{"group":"hexagon_bi","fractal_assignment":["../images/gry_blk.png","../images/pnk_blu.png","../images/ylw_slt.png","../images/org_blu.png","../images/blu_wht.png","../images/cyn_red.png"],"mutagen_generator_assignment":[1,0],"goal":1,"start":4,"action_noise":0,"location_history":"[4,3,2,1]","action_history":"[0,1,0]","mutagen_history":"[1,0,1]","location_rts":"[1279,359,409]","trial_type":"fractal-mutation","trial_index":75,"time_elapsed":881152,"internal_node_id":"0.0-5.0-21.0"},{"group":"hexagon_bi","fractal_assignment":["../images/gry_blk.png","../images/pnk_blu.png","../images/ylw_slt.png","../images/org_blu.png","../images/blu_wht.png","../images/cyn_red.png"],"mutagen_generator_assignment":[1,0],"goal":3,"start":1,"action_noise":0,"location_history":"[1,0,5,4,3]","action_history":"[1,0,1,0]","mutagen_history":"[0,1,0,1]","location_rts":"[1137,341,722,396]","trial_type":"fractal-mutation","trial_index":76,"time_elapsed":891929,"internal_node_id":"0.0-5.0-22.0"},{"group":"hexagon_bi","fractal_assignment":["../images/gry_blk.png","../images/pnk_blu.png","../images/ylw_slt.png","../images/org_blu.png","../images/blu_wht.png","../images/cyn_red.png"],"mutagen_generator_assignment":[1,0],"goal":2,"start":3,"action_noise":0,"location_history":"[3,2]","action_history":"[1]","mutagen_history":"[0]","location_rts":"[642]","trial_type":"fractal-mutation","trial_index":77,"time_elapsed":897612,"internal_node_id":"0.0-5.0-23.0"},{"group":"hexagon_bi","fractal_assignment":["../images/gry_blk.png","../images/pnk_blu.png","../images/ylw_slt.png","../images/org_blu.png","../images/blu_wht.png","../images/cyn_red.png"],"mutagen_generator_assignment":[1,0],"goal":0,"start":2,"action_noise":0,"location_history":"[2,1,0]","action_history":"[0,1]","mutagen_history":"[1,0]","location_rts":"[818,412]","trial_type":"fractal-mutation","trial_index":78,"time_elapsed":904934,"internal_node_id":"0.0-5.0-24.0"},{"group":"hexagon_bi","fractal_assignment":["../images/gry_blk.png","../images/pnk_blu.png","../images/ylw_slt.png","../images/org_blu.png","../images/blu_wht.png","../images/cyn_red.png"],"mutagen_generator_assignment":[1,0],"goal":5,"start":0,"action_noise":0,"location_history":"[0,1,0,1,2,3,4,5]","action_history":"[1,1,1,0,1,0,1]","mutagen_history":"[0,0,0,1,0,1,0]","location_rts":"[630,538,285,510,360,801,492]","trial_type":"fractal-mutation","trial_index":79,"time_elapsed":919827,"internal_node_id":"0.0-5.0-25.0"},{"group":"hexagon_bi","fractal_assignment":["../images/gry_blk.png","../images/pnk_blu.png","../images/ylw_slt.png","../images/org_blu.png","../images/blu_wht.png","../images/cyn_red.png"],"mutagen_generator_assignment":[1,0],"goal":2,"start":5,"action_noise":0,"location_history":"[5,0,1,2]","action_history":"[0,1,0]","mutagen_history":"[1,0,1]","location_rts":"[1020,674,1297]","trial_type":"fractal-mutation","trial_index":80,"time_elapsed":929952,"internal_node_id":"0.0-5.0-26.0"},{"group":"hexagon_bi","fractal_assignment":["../images/gry_blk.png","../images/pnk_blu.png","../images/ylw_slt.png","../images/org_blu.png","../images/blu_wht.png","../images/cyn_red.png"],"mutagen_generator_assignment":[1,0],"goal":3,"start":2,"action_noise":0,"location_history":"[2,3]","action_history":"[1]","mutagen_history":"[0]","location_rts":"[462]","trial_type":"fractal-mutation","trial_index":81,"time_elapsed":935465,"internal_node_id":"0.0-5.0-27.0"},{"group":"hexagon_bi","fractal_assignment":["../images/gry_blk.png","../images/pnk_blu.png","../images/ylw_slt.png","../images/org_blu.png","../images/blu_wht.png","../images/cyn_red.png"],"mutagen_generator_assignment":[1,0],"goal":0,"start":3,"action_noise":0,"location_history":"[3,4,5,0]","action_history":"[0,1,0]","mutagen_history":"[1,0,1]","location_rts":"[574,370,514]","trial_type":"fractal-mutation","trial_index":82,"time_elapsed":944060,"internal_node_id":"0.0-5.0-28.0"},{"group":"hexagon_bi","fractal_assignment":["../images/gry_blk.png","../images/pnk_blu.png","../images/ylw_slt.png","../images/org_blu.png","../images/blu_wht.png","../images/cyn_red.png"],"mutagen_generator_assignment":[1,0],"goal":1,"start":0,"action_noise":0,"location_history":"[0,1]","action_history":"[1]","mutagen_history":"[0]","location_rts":"[589]","trial_type":"fractal-mutation","trial_index":83,"time_elapsed":949695,"internal_node_id":"0.0-5.0-29.0"},{"group":"hexagon_bi","fractal_assignment":["../images/gry_blk.png","../images/pnk_blu.png","../images/ylw_slt.png","../images/org_blu.png","../images/blu_wht.png","../images/cyn_red.png"],"mutagen_generator_assignment":[1,0],"goal":4,"start":1,"action_noise":0,"location_history":"[1,2,3,4]","action_history":"[0,1,0]","mutagen_history":"[1,0,1]","location_rts":"[1972,598,417]","trial_type":"fractal-mutation","trial_index":84,"time_elapsed":959824,"internal_node_id":"0.0-5.0-30.0"},{"group":"hexagon_bi","fractal_assignment":["../images/gry_blk.png","../images/pnk_blu.png","../images/ylw_slt.png","../images/org_blu.png","../images/blu_wht.png","../images/cyn_red.png"],"mutagen_generator_assignment":[1,0],"goal":5,"start":4,"action_noise":0,"location_history":"[4,5]","action_history":"[1]","mutagen_history":"[0]","location_rts":"[646]","trial_type":"fractal-mutation","trial_index":85,"time_elapsed":965512,"internal_node_id":"0.0-5.0-31.0"},{"group":"hexagon_bi","fractal_assignment":["../images/gry_blk.png","../images/pnk_blu.png","../images/ylw_slt.png","../images/org_blu.png","../images/blu_wht.png","../images/cyn_red.png"],"mutagen_generator_assignment":[1,0],"goal":0,"start":5,"action_noise":0,"location_history":"[5,4,3,2,1,0]","action_history":"[1,0,1,0,1]","mutagen_history":"[0,1,0,1,0]","location_rts":"[17665,405,381,558,444]","trial_type":"fractal-mutation","trial_index":86,"time_elapsed":994188,"internal_node_id":"0.0-5.0-32.0"},{"group":"hexagon_bi","fractal_assignment":["../images/gry_blk.png","../images/pnk_blu.png","../images/ylw_slt.png","../images/org_blu.png","../images/blu_wht.png","../images/cyn_red.png"],"mutagen_generator_assignment":[1,0],"goal":3,"start":0,"action_noise":0,"location_history":"[0,5,4,3]","action_history":"[0,1,0]","mutagen_history":"[1,0,1]","location_rts":"[2639,347,2223]","trial_type":"fractal-mutation","trial_index":87,"time_elapsed":1006542,"internal_node_id":"0.0-5.0-33.0"},{"group":"hexagon_bi","fractal_assignment":["../images/gry_blk.png","../images/pnk_blu.png","../images/ylw_slt.png","../images/org_blu.png","../images/blu_wht.png","../images/cyn_red.png"],"mutagen_generator_assignment":[1,0],"goal":1,"start":3,"action_noise":0,"location_history":"[3,4,5,0,1]","action_history":"[0,1,0,1]","mutagen_history":"[1,0,1,0]","location_rts":"[1765,660,375,381]","trial_type":"fractal-mutation","trial_index":88,"time_elapsed":1017901,"internal_node_id":"0.0-5.0-34.0"},{"group":"hexagon_bi","fractal_assignment":["../images/gry_blk.png","../images/pnk_blu.png","../images/ylw_slt.png","../images/org_blu.png","../images/blu_wht.png","../images/cyn_red.png"],"mutagen_generator_assignment":[1,0],"goal":2,"start":1,"action_noise":0,"location_history":"[1,0,5,4,3,2]","action_history":"[1,0,1,0,1]","mutagen_history":"[0,1,0,1,0]","location_rts":"[1004,419,337,302,429]","trial_type":"fractal-mutation","trial_index":89,"time_elapsed":1029607,"internal_node_id":"0.0-5.0-35.0"},{"group":"hexagon_bi","fractal_assignment":["../images/gry_blk.png","../images/pnk_blu.png","../images/ylw_slt.png","../images/org_blu.png","../images/blu_wht.png","../images/cyn_red.png"],"mutagen_generator_assignment":[1,0],"goal":4,"start":2,"action_noise":0,"location_history":"[2,3,4]","action_history":"[1,0]","mutagen_history":"[0,1]","location_rts":"[1011,3171]","trial_type":"fractal-mutation","trial_index":90,"time_elapsed":1039882,"internal_node_id":"0.0-5.0-36.0"},{"group":"hexagon_bi","fractal_assignment":["../images/gry_blk.png","../images/pnk_blu.png","../images/ylw_slt.png","../images/org_blu.png","../images/blu_wht.png","../images/cyn_red.png"],"mutagen_generator_assignment":[1,0],"goal":5,"start":4,"action_noise":0,"location_history":"[4,5]","action_history":"[1]","mutagen_history":"[0]","location_rts":"[2426]","trial_type":"fractal-mutation","trial_index":91,"time_elapsed":1047348,"internal_node_id":"0.0-5.0-37.0"},{"group":"hexagon_bi","fractal_assignment":["../images/gry_blk.png","../images/pnk_blu.png","../images/ylw_slt.png","../images/org_blu.png","../images/blu_wht.png","../images/cyn_red.png"],"mutagen_generator_assignment":[1,0],"goal":1,"start":5,"action_noise":0,"location_history":"[5,4,3,2,1]","action_history":"[1,0,1,0]","mutagen_history":"[0,1,0,1]","location_rts":"[527,536,877,421]","trial_type":"fractal-mutation","trial_index":92,"time_elapsed":1057893,"internal_node_id":"0.0-5.0-38.0"},{"group":"hexagon_bi","fractal_assignment":["../images/gry_blk.png","../images/pnk_blu.png","../images/ylw_slt.png","../images/org_blu.png","../images/blu_wht.png","../images/cyn_red.png"],"mutagen_generator_assignment":[1,0],"goal":4,"start":1,"action_noise":0,"location_history":"[1,0,5,4]","action_history":"[1,0,1]","mutagen_history":"[0,1,0]","location_rts":"[684,488,409]","trial_type":"fractal-mutation","trial_index":93,"time_elapsed":1066592,"internal_node_id":"0.0-5.0-39.0"},{"group":"hexagon_bi","fractal_assignment":["../images/gry_blk.png","../images/pnk_blu.png","../images/ylw_slt.png","../images/org_blu.png","../images/blu_wht.png","../images/cyn_red.png"],"mutagen_generator_assignment":[1,0],"goal":3,"start":4,"action_noise":0,"location_history":"[4,5,0,1,2,3]","action_history":"[1,0,1,0,1]","mutagen_history":"[0,1,0,1,0]","location_rts":"[1654,12475,789,372,458]","trial_type":"fractal-mutation","trial_index":94,"time_elapsed":1091544,"internal_node_id":"0.0-5.0-40.0"},{"group":"hexagon_bi","fractal_assignment":["../images/gry_blk.png","../images/pnk_blu.png","../images/ylw_slt.png","../images/org_blu.png","../images/blu_wht.png","../images/cyn_red.png"],"mutagen_generator_assignment":[1,0],"goal":2,"start":3,"action_noise":0,"location_history":"[3,2]","action_history":"[1]","mutagen_history":"[0]","location_rts":"[1970]","trial_type":"fractal-mutation","trial_index":95,"time_elapsed":1098553,"internal_node_id":"0.0-5.0-41.0"},{"group":"hexagon_bi","fractal_assignment":["../images/gry_blk.png","../images/pnk_blu.png","../images/ylw_slt.png","../images/org_blu.png","../images/blu_wht.png","../images/cyn_red.png"],"mutagen_generator_assignment":[1,0],"goal":0,"start":2,"action_noise":0,"location_history":"[2,3,4,5,0]","action_history":"[1,0,1,0]","mutagen_history":"[0,1,0,1]","location_rts":"[2749,393,339,115]","trial_type":"fractal-mutation","trial_index":96,"time_elapsed":1110324,"internal_node_id":"0.0-5.0-42.0"},{"group":"hexagon_bi","fractal_assignment":["../images/gry_blk.png","../images/pnk_blu.png","../images/ylw_slt.png","../images/org_blu.png","../images/blu_wht.png","../images/cyn_red.png"],"mutagen_generator_assignment":[1,0],"goal":5,"start":0,"action_noise":0,"location_history":"[0,1,2,3,4,5]","action_history":"[1,0,1,0,1]","mutagen_history":"[0,1,0,1,0]","location_rts":"[488,446,345,494,609]","trial_type":"fractal-mutation","trial_index":97,"time_elapsed":1121906,"internal_node_id":"0.0-5.0-43.0"},{"group":"hexagon_bi","fractal_assignment":["../images/gry_blk.png","../images/pnk_blu.png","../images/ylw_slt.png","../images/org_blu.png","../images/blu_wht.png","../images/cyn_red.png"],"mutagen_generator_assignment":[1,0],"goal":0,"start":5,"action_noise":0,"location_history":"[5,0]","action_history":"[0]","mutagen_history":"[1]","location_rts":"[623]","trial_type":"fractal-mutation","trial_index":98,"time_elapsed":1127589,"internal_node_id":"0.0-5.0-44.0"},{"group":"hexagon_bi","fractal_assignment":["../images/gry_blk.png","../images/pnk_blu.png","../images/ylw_slt.png","../images/org_blu.png","../images/blu_wht.png","../images/cyn_red.png"],"mutagen_generator_assignment":[1,0],"goal":2,"start":0,"action_noise":0,"location_history":"[0,1,2]","action_history":"[1,0]","mutagen_history":"[0,1]","location_rts":"[488,478]","trial_type":"fractal-mutation","trial_index":99,"time_elapsed":1134652,"internal_node_id":"0.0-5.0-45.0"},{"group":"hexagon_bi","fractal_assignment":["../images/gry_blk.png","../images/pnk_blu.png","../images/ylw_slt.png","../images/org_blu.png","../images/blu_wht.png","../images/cyn_red.png"],"mutagen_generator_assignment":[1,0],"goal":4,"start":2,"action_noise":0,"location_history":"[2,3,4]","action_history":"[1,0]","mutagen_history":"[0,1]","location_rts":"[525,411]","trial_type":"fractal-mutation","trial_index":100,"time_elapsed":1141671,"internal_node_id":"0.0-5.0-46.0"},{"group":"hexagon_bi","fractal_assignment":["../images/gry_blk.png","../images/pnk_blu.png","../images/ylw_slt.png","../images/org_blu.png","../images/blu_wht.png","../images/cyn_red.png"],"mutagen_generator_assignment":[1,0],"goal":1,"start":4,"action_noise":0,"location_history":"[4,5,0,1]","action_history":"[1,0,1]","mutagen_history":"[0,1,0]","location_rts":"[584,381,528]","trial_type":"fractal-mutation","trial_index":101,"time_elapsed":1150299,"internal_node_id":"0.0-5.0-47.0"},{"group":"hexagon_bi","fractal_assignment":["../images/gry_blk.png","../images/pnk_blu.png","../images/ylw_slt.png","../images/org_blu.png","../images/blu_wht.png","../images/cyn_red.png"],"mutagen_generator_assignment":[1,0],"goal":5,"start":1,"action_noise":0,"location_history":"[1,0,5]","action_history":"[1,0]","mutagen_history":"[0,1]","location_rts":"[538,445]","trial_type":"fractal-mutation","trial_index":102,"time_elapsed":1157375,"internal_node_id":"0.0-5.0-48.0"},{"group":"hexagon_bi","fractal_assignment":["../images/gry_blk.png","../images/pnk_blu.png","../images/ylw_slt.png","../images/org_blu.png","../images/blu_wht.png","../images/cyn_red.png"],"mutagen_generator_assignment":[1,0],"goal":3,"start":5,"action_noise":0,"location_history":"[5,4,3]","action_history":"[1,0]","mutagen_history":"[0,1]","location_rts":"[670,361]","trial_type":"fractal-mutation","trial_index":103,"time_elapsed":1164500,"internal_node_id":"0.0-5.0-49.0"},{"view_history":"[{\"page_index\":0,\"viewing_time\":12096}]","rt":12096,"trial_type":"instructions","trial_index":104,"time_elapsed":1177598,"internal_node_id":"0.0-6.0"},{"rt":2220,"responses":"{\"Q0\":\"\"}","trial_type":"survey-text","trial_index":105,"time_elapsed":1180826,"internal_node_id":"0.0-7.0"}]