[{"view_history":"[{\"page_index\":0,\"viewing_time\":12476},{\"page_index\":1,\"viewing_time\":18410}]","rt":30887,"trial_type":"instructions","trial_index":0,"time_elapsed":30890,"internal_node_id":"0.0-0.0"},{"view_history":"[{\"page_index\":0,\"viewing_time\":5046},{\"page_index\":1,\"viewing_time\":21834}]","rt":26881,"trial_type":"instructions","trial_index":1,"time_elapsed":58772,"internal_node_id":"0.0-1.0"},{"group":"hexagon_bi","room_assignment":["purple","red","grey","blue","green","yellow"],"door_color_assignment":["white","black"],"door_generator_assignment":[1,0],"goal":3,"start":5,"action_noise":0,"location_history":"[5,4,3]","action_history":"[1,0]","door_history":"[0,1]","location_rts":"[1803,803]","trial_type":"two-door-navigation","trial_index":2,"time_elapsed":67434,"internal_node_id":"0.0-2.0-0.0"},{"group":"hexagon_bi","room_assignment":["purple","red","grey","blue","green","yellow"],"door_color_assignment":["white","black"],"door_generator_assignment":[1,0],"goal":1,"start":3,"action_noise":0,"location_history":"[3,4,5,0,1]","action_history":"[0,1,0,1]","door_history":"[1,0,1,0]","location_rts":"[4031,650,1711,986]","trial_type":"two-door-navigation","trial_index":3,"time_elapsed":82855,"internal_node_id":"0.0-2.0-1.0"},{"group":"hexagon_bi","room_assignment":["purple","red","grey","blue","green","yellow"],"door_color_assignment":["white","black"],"door_generator_assignment":[1,0],"goal":0,"start":1,"action_noise":0,"location_history":"[1,2,3,2,1,2,3,2,3,4,3,2,3,2,1,0]","action_history":"[0,1,1,0,0,1,1,1,0,0,1,1,1,0,1]","door_history":"[1,0,0,1,1,0,0,0,1,1,0,0,0,1,0]","location_rts":"[1711,841,718,797,535,1128,980,1471,739,831,661,507,1520,821,632]","trial_type":"two-door-navigation","trial_index":4,"time_elapsed":115916,"internal_node_id":"0.0-2.0-2.0"},{"group":"hexagon_bi","room_assignment":["purple","red","grey","blue","green","yellow"],"door_color_assignment":["white","black"],"door_generator_assignment":[1,0],"goal":3,"start":0,"action_noise":0,"location_history":"[0,1,2,3]","action_history":"[1,0,1]","door_history":"[0,1,0]","location_rts":"[2114,732,796]","trial_type":"two-door-navigation","trial_index":5,"time_elapsed":126588,"internal_node_id":"0.0-2.0-3.0"},{"group":"hexagon_bi","room_assignment":["purple","red","grey","blue","green","yellow"],"door_color_assignment":["white","black"],"door_generator_assignment":[1,0],"goal":4,"start":3,"action_noise":0,"location_history":"[3,4]","action_history":"[0]","door_history":"[1]","location_rts":"[1646]","trial_type":"two-door-navigation","trial_index":6,"time_elapsed":133247,"internal_node_id":"0.0-2.0-4.0"},{"group":"hexagon_bi","room_assignment":["purple","red","grey","blue","green","yellow"],"door_color_assignment":["white","black"],"door_generator_assignment":[1,0],"goal":2,"start":4,"action_noise":0,"location_history":"[4,5,0,1,0,5,0,1,0,1,0,5,4,5,0,5,4,5,4,3,2]","action_history":"[1,0,1,1,0,0,1,1,1,1,0,1,1,0,0,1,1,1,0,1]","door_history":"[0,1,0,0,1,1,0,0,0,0,1,0,0,1,1,0,0,0,1,0]","location_rts":"[1728,2076,447,391,803,1884,503,309,581,529,323,466,1544,702,888,788,399,896,1214,1055]","trial_type":"two-door-navigation","trial_index":7,"time_elapsed":174979,"internal_node_id":"0.0-2.0-5.0"},{"group":"hexagon_bi","room_assignment":["purple","red","grey","blue","green","yellow"],"door_color_assignment":["white","black"],"door_generator_assignment":[1,0],"goal":1,"start":2,"action_noise":0,"location_history":"[2,1]","action_history":"[0]","door_history":"[1]","location_rts":"[3618]","trial_type":"two-door-navigation","trial_index":8,"time_elapsed":183613,"internal_node_id":"0.0-2.0-6.0"},{"group":"hexagon_bi","room_assignment":["purple","red","grey","blue","green","yellow"],"door_color_assignment":["white","black"],"door_generator_assignment":[1,0],"goal":5,"start":1,"action_noise":0,"location_history":"[1,0,5]","action_history":"[1,0]","door_history":"[0,1]","location_rts":"[2960,816]","trial_type":"two-door-navigation","trial_index":9,"time_elapsed":193414,"internal_node_id":"0.0-2.0-7.0"},{"group":"hexagon_bi","room_assignment":["purple","red","grey","blue","green","yellow"],"door_color_assignment":["white","black"],"door_generator_assignment":[1,0],"goal":4,"start":5,"action_noise":0,"location_history":"[5,0,1,0,5,0,1,0,1,2,1,0,1,0,1,2,3,2,1,2,3,2,1,2,3,2,3,4]","action_history":"[0,1,1,0,0,1,1,1,0,0,1,1,1,1,0,1,1,0,0,1,1,0,0,1,1,1,0]","door_history":"[1,0,0,1,1,0,0,0,1,1,0,0,0,0,1,0,0,1,1,0,0,1,1,0,0,0,1]","location_rts":"[3902,437,678,575,1058,465,633,1012,974,798,1857,875,1318,822,771,4112,2196,714,476,992,1940,801,587,880,1868,724,786]","trial_type":"two-door-navigation","trial_index":10,"time_elapsed":256920,"internal_node_id":"0.0-2.0-8.0"},{"group":"hexagon_bi","room_assignment":["purple","red","grey","blue","green","yellow"],"door_color_assignment":["white","black"],"door_generator_assignment":[1,0],"goal":2,"start":4,"action_noise":0,"location_history":"[4,5,0,1,0,5,0,1,2]","action_history":"[1,0,1,1,0,0,1,0]","door_history":"[0,1,0,0,1,1,0,1]","location_rts":"[1531,706,735,576,1396,456,565,631]","trial_type":"two-door-navigation","trial_index":11,"time_elapsed":275603,"internal_node_id":"0.0-2.0-9.0"},{"group":"hexagon_bi","room_assignment":["purple","red","grey","blue","green","yellow"],"door_color_assignment":["white","black"],"door_generator_assignment":[1,0],"goal":0,"start":2,"action_noise":0,"location_history":"[2,1,0]","action_history":"[0,1]","door_history":"[1,0]","location_rts":"[2910,1700]","trial_type":"two-door-navigation","trial_index":12,"time_elapsed":286236,"internal_node_id":"0.0-2.0-10.0"},{"group":"hexagon_bi","room_assignment":["purple","red","grey","blue","green","yellow"],"door_color_assignment":["white","black"],"door_generator_assignment":[1,0],"goal":1,"start":0,"action_noise":0,"location_history":"[0,5,4,3,2,1]","action_history":"[0,1,0,1,0]","door_history":"[1,0,1,0,1]","location_rts":"[4464,810,1093,573,789]","trial_type":"two-door-navigation","trial_index":13,"time_elapsed":303020,"internal_node_id":"0.0-2.0-11.0"},{"group":"hexagon_bi","room_assignment":["purple","red","grey","blue","green","yellow"],"door_color_assignment":["white","black"],"door_generator_assignment":[1,0],"goal":3,"start":1,"action_noise":0,"location_history":"[1,0,5,4,5,0,5,4,5,4,3]","action_history":"[1,0,1,1,0,0,1,1,1,0]","door_history":"[0,1,0,0,1,1,0,0,0,1]","location_rts":"[1706,1067,931,741,794,1095,417,372,583,740]","trial_type":"two-door-navigation","trial_index":14,"time_elapsed":325586,"internal_node_id":"0.0-2.0-12.0"},{"group":"hexagon_bi","room_assignment":["purple","red","grey","blue","green","yellow"],"door_color_assignment":["white","black"],"door_generator_assignment":[1,0],"goal":5,"start":3,"action_noise":0,"location_history":"[3,4,5]","action_history":"[0,1]","door_history":"[1,0]","location_rts":"[2590,739]","trial_type":"two-door-navigation","trial_index":15,"time_elapsed":334938,"internal_node_id":"0.0-2.0-13.0"},{"group":"hexagon_bi","room_assignment":["purple","red","grey","blue","green","yellow"],"door_color_assignment":["white","black"],"door_generator_assignment":[1,0],"goal":4,"start":5,"action_noise":0,"location_history":"[5,0,1,0,5,0,1,0,1,2,3,2,1,0,1,0,5,0,1,0,1,0,5,4]","action_history":"[0,1,1,0,0,1,1,1,0,1,1,0,1,1,1,0,0,1,1,1,1,0,1]","door_history":"[1,0,0,1,1,0,0,0,1,0,0,1,0,0,0,1,1,0,0,0,0,1,0]","location_rts":"[3142,655,500,872,1063,766,401,571,1370,1527,764,971,632,687,815,554,950,467,537,612,1129,312,2576]","trial_type":"two-door-navigation","trial_index":16,"time_elapsed":384055,"internal_node_id":"0.0-2.0-14.0"},{"group":"hexagon_bi","room_assignment":["purple","red","grey","blue","green","yellow"],"door_color_assignment":["white","black"],"door_generator_assignment":[1,0],"goal":0,"start":4,"action_noise":0,"location_history":"[4,3,2,3,4,5,0]","action_history":"[0,1,1,0,1,0]","door_history":"[1,0,0,1,0,1]","location_rts":"[2465,997,2800,1004,973,1018]","trial_type":"two-door-navigation","trial_index":17,"time_elapsed":403373,"internal_node_id":"0.0-2.0-15.0"},{"group":"hexagon_bi","room_assignment":["purple","red","grey","blue","green","yellow"],"door_color_assignment":["white","black"],"door_generator_assignment":[1,0],"goal":3,"start":0,"action_noise":0,"location_history":"[0,1,2,3]","action_history":"[1,0,1]","door_history":"[0,1,0]","location_rts":"[1517,769,920]","trial_type":"two-door-navigation","trial_index":18,"time_elapsed":413626,"internal_node_id":"0.0-2.0-16.0"},{"group":"hexagon_bi","room_assignment":["purple","red","grey","blue","green","yellow"],"door_color_assignment":["white","black"],"door_generator_assignment":[1,0],"goal":1,"start":3,"action_noise":0,"location_history":"[3,4,5,0,1]","action_history":"[0,1,0,1]","door_history":"[1,0,1,0]","location_rts":"[2545,899,1592,883]","trial_type":"two-door-navigation","trial_index":19,"time_elapsed":427592,"internal_node_id":"0.0-2.0-17.0"},{"group":"hexagon_bi","room_assignment":["purple","red","grey","blue","green","yellow"],"door_color_assignment":["white","black"],"door_generator_assignment":[1,0],"goal":5,"start":1,"action_noise":0,"location_history":"[1,2,3,2,1,0,5]","action_history":"[0,1,1,0,1,0]","door_history":"[1,0,0,1,0,1]","location_rts":"[3430,816,1249,2108,726,735]","trial_type":"two-door-navigation","trial_index":20,"time_elapsed":446715,"internal_node_id":"0.0-2.0-18.0"},{"group":"hexagon_bi","room_assignment":["purple","red","grey","blue","green","yellow"],"door_color_assignment":["white","black"],"door_generator_assignment":[1,0],"goal":2,"start":5,"action_noise":0,"location_history":"[5,0,1,2]","action_history":"[0,1,0]","door_history":"[1,0,1]","location_rts":"[2954,917,981]","trial_type":"two-door-navigation","trial_index":21,"time_elapsed":458588,"internal_node_id":"0.0-2.0-19.0"},{"group":"hexagon_bi","room_assignment":["purple","red","grey","blue","green","yellow"],"door_color_assignment":["white","black"],"door_generator_assignment":[1,0],"goal":4,"start":2,"action_noise":0,"location_history":"[2,3,2,1,2,3,4]","action_history":"[1,1,0,0,1,0]","door_history":"[0,0,1,1,0,1]","location_rts":"[1784,1580,699,989,1133,759]","trial_type":"two-door-navigation","trial_index":22,"time_elapsed":475599,"internal_node_id":"0.0-2.0-20.0"},{"group":"hexagon_bi","room_assignment":["purple","red","grey","blue","green","yellow"],"door_color_assignment":["white","black"],"door_generator_assignment":[1,0],"goal":1,"start":4,"action_noise":0,"location_history":"[4,5,0,1]","action_history":"[1,0,1]","door_history":"[0,1,0]","location_rts":"[3289,637,898]","trial_type":"two-door-navigation","trial_index":23,"time_elapsed":487454,"internal_node_id":"0.0-2.0-21.0"},{"group":"hexagon_bi","room_assignment":["purple","red","grey","blue","green","yellow"],"door_color_assignment":["white","black"],"door_generator_assignment":[1,0],"goal":3,"start":1,"action_noise":0,"location_history":"[1,0,1,2,3]","action_history":"[1,1,0,1]","door_history":"[0,0,1,0]","location_rts":"[2330,2166,497,564]","trial_type":"two-door-navigation","trial_index":24,"time_elapsed":501063,"internal_node_id":"0.0-2.0-22.0"},{"group":"hexagon_bi","room_assignment":["purple","red","grey","blue","green","yellow"],"door_color_assignment":["white","black"],"door_generator_assignment":[1,0],"goal":2,"start":3,"action_noise":0,"location_history":"[3,4,5,0,5,4,5,0,1,2]","action_history":"[0,1,0,0,1,1,0,1,0]","door_history":"[1,0,1,1,0,0,1,0,1]","location_rts":"[2018,884,1099,1071,380,708,596,612,552]","trial_type":"two-door-navigation","trial_index":25,"time_elapsed":522070,"internal_node_id":"0.0-2.0-23.0"},{"group":"hexagon_bi","room_assignment":["purple","red","grey","blue","green","yellow"],"door_color_assignment":["white","black"],"door_generator_assignment":[1,0],"goal":0,"start":2,"action_noise":0,"location_history":"[2,3,4,5,0]","action_history":"[1,0,1,0]","door_history":"[0,1,0,1]","location_rts":"[2042,1083,951,926]","trial_type":"two-door-navigation","trial_index":26,"time_elapsed":535118,"internal_node_id":"0.0-2.0-24.0"},{"group":"hexagon_bi","room_assignment":["purple","red","grey","blue","green","yellow"],"door_color_assignment":["white","black"],"door_generator_assignment":[1,0],"goal":5,"start":0,"action_noise":0,"location_history":"[0,5]","action_history":"[0]","door_history":"[1]","location_rts":"[2111]","trial_type":"two-door-navigation","trial_index":27,"time_elapsed":542238,"internal_node_id":"0.0-2.0-25.0"},{"group":"hexagon_bi","room_assignment":["purple","red","grey","blue","green","yellow"],"door_color_assignment":["white","black"],"door_generator_assignment":[1,0],"goal":2,"start":5,"action_noise":0,"location_history":"[5,4,3,2]","action_history":"[1,0,1]","door_history":"[0,1,0]","location_rts":"[3840,843,687]","trial_type":"two-door-navigation","trial_index":28,"time_elapsed":554642,"internal_node_id":"0.0-2.0-26.0"},{"group":"hexagon_bi","room_assignment":["purple","red","grey","blue","green","yellow"],"door_color_assignment":["white","black"],"door_generator_assignment":[1,0],"goal":3,"start":2,"action_noise":0,"location_history":"[2,1,0,1,2,1,0,1,0,1,2,3]","action_history":"[0,1,1,0,0,1,1,1,1,0,1]","door_history":"[1,0,0,1,1,0,0,0,0,1,0]","location_rts":"[2315,669,1888,824,1396,780,513,632,1229,275,1284]","trial_type":"two-door-navigation","trial_index":29,"time_elapsed":581550,"internal_node_id":"0.0-2.0-27.0"},{"group":"hexagon_bi","room_assignment":["purple","red","grey","blue","green","yellow"],"door_color_assignment":["white","black"],"door_generator_assignment":[1,0],"goal":0,"start":3,"action_noise":0,"location_history":"[3,4,5,0]","action_history":"[0,1,0]","door_history":"[1,0,1]","location_rts":"[3004,2187,911]","trial_type":"two-door-navigation","trial_index":30,"time_elapsed":594690,"internal_node_id":"0.0-2.0-28.0"},{"group":"hexagon_bi","room_assignment":["purple","red","grey","blue","green","yellow"],"door_color_assignment":["white","black"],"door_generator_assignment":[1,0],"goal":1,"start":0,"action_noise":0,"location_history":"[0,1]","action_history":"[1]","door_history":"[0]","location_rts":"[1465]","trial_type":"two-door-navigation","trial_index":31,"time_elapsed":601168,"internal_node_id":"0.0-2.0-29.0"},{"group":"hexagon_bi","room_assignment":["purple","red","grey","blue","green","yellow"],"door_color_assignment":["white","black"],"door_generator_assignment":[1,0],"goal":4,"start":1,"action_noise":0,"location_history":"[1,2,3,2,1,0,5,4]","action_history":"[0,1,1,0,1,0,1]","door_history":"[1,0,0,1,0,1,0]","location_rts":"[1702,618,933,900,675,813,477]","trial_type":"two-door-navigation","trial_index":32,"time_elapsed":618350,"internal_node_id":"0.0-2.0-30.0"},{"group":"hexagon_bi","room_assignment":["purple","red","grey","blue","green","yellow"],"door_color_assignment":["white","black"],"door_generator_assignment":[1,0],"goal":5,"start":4,"action_noise":0,"location_history":"[4,5]","action_history":"[1]","door_history":"[0]","location_rts":"[3052]","trial_type":"two-door-navigation","trial_index":33,"time_elapsed":626415,"internal_node_id":"0.0-2.0-31.0"},{"group":"hexagon_bi","room_assignment":["purple","red","grey","blue","green","yellow"],"door_color_assignment":["white","black"],"door_generator_assignment":[1,0],"goal":0,"start":5,"action_noise":0,"location_history":"[5,0]","action_history":"[0]","door_history":"[1]","location_rts":"[2354]","trial_type":"two-door-navigation","trial_index":34,"time_elapsed":633782,"internal_node_id":"0.0-2.0-32.0"},{"group":"hexagon_bi","room_assignment":["purple","red","grey","blue","green","yellow"],"door_color_assignment":["white","black"],"door_generator_assignment":[1,0],"goal":3,"start":0,"action_noise":0,"location_history":"[0,1,2,3]","action_history":"[1,0,1]","door_history":"[0,1,0]","location_rts":"[1233,741,1482]","trial_type":"two-door-navigation","trial_index":35,"time_elapsed":644270,"internal_node_id":"0.0-2.0-33.0"},{"group":"hexagon_bi","room_assignment":["purple","red","grey","blue","green","yellow"],"door_color_assignment":["white","black"],"door_generator_assignment":[1,0],"goal":1,"start":3,"action_noise":0,"location_history":"[3,4,5,0,1]","action_history":"[0,1,0,1]","door_history":"[1,0,1,0]","location_rts":"[1460,984,911,1157]","trial_type":"two-door-navigation","trial_index":36,"time_elapsed":656817,"internal_node_id":"0.0-2.0-34.0"},{"group":"hexagon_bi","room_assignment":["purple","red","grey","blue","green","yellow"],"door_color_assignment":["white","black"],"door_generator_assignment":[1,0],"goal":2,"start":1,"action_noise":0,"location_history":"[1,0,5,4,3,4,5,4,3,2]","action_history":"[1,0,1,0,0,1,1,0,1]","door_history":"[0,1,0,1,1,0,0,1,0]","location_rts":"[3364,981,1468,753,553,1103,914,700,476]","trial_type":"two-door-navigation","trial_index":37,"time_elapsed":680213,"internal_node_id":"0.0-2.0-35.0"},{"group":"hexagon_bi","room_assignment":["purple","red","grey","blue","green","yellow"],"door_color_assignment":["white","black"],"door_generator_assignment":[1,0],"goal":4,"start":2,"action_noise":0,"location_history":"[2,1,0,1,2,3,2,1,0,5,0,5,4]","action_history":"[0,1,1,0,1,1,0,1,0,0,0,1]","door_history":"[1,0,0,1,0,0,1,0,1,1,1,0]","location_rts":"[2967,557,526,593,548,910,627,695,469,697,1200,285]","trial_type":"two-door-navigation","trial_index":38,"time_elapsed":706411,"internal_node_id":"0.0-2.0-36.0"},{"group":"hexagon_bi","room_assignment":["purple","red","grey","blue","green","yellow"],"door_color_assignment":["white","black"],"door_generator_assignment":[1,0],"goal":5,"start":4,"action_noise":0,"location_history":"[4,5]","action_history":"[1]","door_history":"[0]","location_rts":"[2471]","trial_type":"two-door-navigation","trial_index":39,"time_elapsed":713896,"internal_node_id":"0.0-2.0-37.0"},{"group":"hexagon_bi","room_assignment":["purple","red","grey","blue","green","yellow"],"door_color_assignment":["white","black"],"door_generator_assignment":[1,0],"goal":1,"start":5,"action_noise":0,"location_history":"[5,0,1]","action_history":"[0,1]","door_history":"[1,0]","location_rts":"[2173,763]","trial_type":"two-door-navigation","trial_index":40,"time_elapsed":722859,"internal_node_id":"0.0-2.0-38.0"},{"group":"hexagon_bi","room_assignment":["purple","red","grey","blue","green","yellow"],"door_color_assignment":["white","black"],"door_generator_assignment":[1,0],"goal":4,"start":1,"action_noise":0,"location_history":"[1,0,5,4]","action_history":"[1,0,1]","door_history":"[0,1,0]","location_rts":"[3493,817,566]","trial_type":"two-door-navigation","trial_index":41,"time_elapsed":734768,"internal_node_id":"0.0-2.0-39.0"},{"group":"hexagon_bi","room_assignment":["purple","red","grey","blue","green","yellow"],"door_color_assignment":["white","black"],"door_generator_assignment":[1,0],"goal":3,"start":4,"action_noise":0,"location_history":"[4,3]","action_history":"[0]","door_history":"[1]","location_rts":"[2743]","trial_type":"two-door-navigation","trial_index":42,"time_elapsed":742529,"internal_node_id":"0.0-2.0-40.0"},{"group":"hexagon_bi","room_assignment":["purple","red","grey","blue","green","yellow"],"door_color_assignment":["white","black"],"door_generator_assignment":[1,0],"goal":2,"start":3,"action_noise":0,"location_history":"[3,2]","action_history":"[1]","door_history":"[0]","location_rts":"[1475]","trial_type":"two-door-navigation","trial_index":43,"time_elapsed":749016,"internal_node_id":"0.0-2.0-41.0"},{"group":"hexagon_bi","room_assignment":["purple","red","grey","blue","green","yellow"],"door_color_assignment":["white","black"],"door_generator_assignment":[1,0],"goal":0,"start":2,"action_noise":0,"location_history":"[2,1,0]","action_history":"[0,1]","door_history":"[1,0]","location_rts":"[1998,618]","trial_type":"two-door-navigation","trial_index":44,"time_elapsed":757658,"internal_node_id":"0.0-2.0-42.0"},{"group":"hexagon_bi","room_assignment":["purple","red","grey","blue","green","yellow"],"door_color_assignment":["white","black"],"door_generator_assignment":[1,0],"goal":5,"start":0,"action_noise":0,"location_history":"[0,1,2,3,4,5]","action_history":"[1,0,1,0,1]","door_history":"[0,1,0,1,0]","location_rts":"[2057,496,1266,1087,2606]","trial_type":"two-door-navigation","trial_index":45,"time_elapsed":774235,"internal_node_id":"0.0-2.0-43.0"},{"group":"hexagon_bi","room_assignment":["purple","red","grey","blue","green","yellow"],"door_color_assignment":["white","black"],"door_generator_assignment":[1,0],"goal":0,"start":5,"action_noise":0,"location_history":"[5,0]","action_history":"[0]","door_history":"[1]","location_rts":"[1261]","trial_type":"two-door-navigation","trial_index":46,"time_elapsed":780505,"internal_node_id":"0.0-2.0-44.0"},{"group":"hexagon_bi","room_assignment":["purple","red","grey","blue","green","yellow"],"door_color_assignment":["white","black"],"door_generator_assignment":[1,0],"goal":2,"start":0,"action_noise":0,"location_history":"[0,1,2]","action_history":"[1,0]","door_history":"[0,1]","location_rts":"[1507,1364]","trial_type":"two-door-navigation","trial_index":47,"time_elapsed":789403,"internal_node_id":"0.0-2.0-45.0"},{"group":"hexagon_bi","room_assignment":["purple","red","grey","blue","green","yellow"],"door_color_assignment":["white","black"],"door_generator_assignment":[1,0],"goal":4,"start":2,"action_noise":0,"location_history":"[2,3,4]","action_history":"[1,0]","door_history":"[0,1]","location_rts":"[2689,1037]","trial_type":"two-door-navigation","trial_index":48,"time_elapsed":799153,"internal_node_id":"0.0-2.0-46.0"},{"group":"hexagon_bi","room_assignment":["purple","red","grey","blue","green","yellow"],"door_color_assignment":["white","black"],"door_generator_assignment":[1,0],"goal":1,"start":4,"action_noise":0,"location_history":"[4,5,0,1]","action_history":"[1,0,1]","door_history":"[0,1,0]","location_rts":"[1904,728,1005]","trial_type":"two-door-navigation","trial_index":49,"time_elapsed":809818,"internal_node_id":"0.0-2.0-47.0"},{"group":"hexagon_bi","room_assignment":["purple","red","grey","blue","green","yellow"],"door_color_assignment":["white","black"],"door_generator_assignment":[1,0],"goal":5,"start":1,"action_noise":0,"location_history":"[1,2,3,2,1,2,3,4,5]","action_history":"[0,1,1,0,0,1,0,1]","door_history":"[1,0,0,1,1,0,1,0]","location_rts":"[5143,1336,900,804,925,1013,931,797]","trial_type":"two-door-navigation","trial_index":50,"time_elapsed":833761,"internal_node_id":"0.0-2.0-48.0"},{"group":"hexagon_bi","room_assignment":["purple","red","grey","blue","green","yellow"],"door_color_assignment":["white","black"],"door_generator_assignment":[1,0],"goal":3,"start":5,"action_noise":0,"location_history":"[5,0,1,2,1,0,1,2,3]","action_history":"[0,1,0,0,1,1,0,1]","door_history":"[1,0,1,1,0,0,1,0]","location_rts":"[1274,1102,932,651,843,1208,646,420]","trial_type":"two-door-navigation","trial_index":51,"time_elapsed":852917,"internal_node_id":"0.0-2.0-49.0"},{"view_history":"[{\"page_index\":0,\"viewing_time\":1973}]","rt":1974,"trial_type":"instructions","trial_index":52,"time_elapsed":855893,"internal_node_id":"0.0-3.0"},{"view_history":"[{\"page_index\":0,\"viewing_time\":2029},{\"page_index\":1,\"viewing_time\":13790}]","rt":15820,"trial_type":"instructions","trial_index":53,"time_elapsed":872713,"internal_node_id":"0.0-4.0"},{"group":"hexagon_bi","fractal_assignment":["../images/cyn_red.png","../images/gry_blk.png","../images/org_blu.png","../images/pnk_blu.png","../images/blu_wht.png","../images/ylw_slt.png"],"mutagen_generator_assignment":[0,1],"goal":3,"start":5,"action_noise":0,"location_history":"[5,0,1,2,3]","action_history":"[0,1,0,1]","mutagen_history":"[0,1,0,1]","location_rts":"[1416,43,443,1260]","trial_type":"fractal-mutation","trial_index":54,"time_elapsed":884009,"internal_node_id":"0.0-5.0-0.0"},{"group":"hexagon_bi","fractal_assignment":["../images/cyn_red.png","../images/gry_blk.png","../images/org_blu.png","../images/pnk_blu.png","../images/blu_wht.png","../images/ylw_slt.png"],"mutagen_generator_assignment":[0,1],"goal":1,"start":3,"action_noise":0,"location_history":"[3,4,5,0,1]","action_history":"[0,1,0,1]","mutagen_history":"[0,1,0,1]","location_rts":"[1341,735,433,448]","trial_type":"fractal-mutation","trial_index":55,"time_elapsed":895075,"internal_node_id":"0.0-5.0-1.0"},{"group":"hexagon_bi","fractal_assignment":["../images/cyn_red.png","../images/gry_blk.png","../images/org_blu.png","../images/pnk_blu.png","../images/blu_wht.png","../images/ylw_slt.png"],"mutagen_generator_assignment":[0,1],"goal":0,"start":1,"action_noise":0,"location_history":"[1,0]","action_history":"[1]","mutagen_history":"[1]","location_rts":"[1322]","trial_type":"fractal-mutation","trial_index":56,"time_elapsed":901435,"internal_node_id":"0.0-5.0-2.0"},{"group":"hexagon_bi","fractal_assignment":["../images/cyn_red.png","../images/gry_blk.png","../images/org_blu.png","../images/pnk_blu.png","../images/blu_wht.png","../images/ylw_slt.png"],"mutagen_generator_assignment":[0,1],"goal":3,"start":0,"action_noise":0,"location_history":"[0,5,4,3]","action_history":"[0,1,0]","mutagen_history":"[0,1,0]","location_rts":"[1018,483,489]","trial_type":"fractal-mutation","trial_index":57,"time_elapsed":910517,"internal_node_id":"0.0-5.0-3.0"},{"group":"hexagon_bi","fractal_assignment":["../images/cyn_red.png","../images/gry_blk.png","../images/org_blu.png","../images/pnk_blu.png","../images/blu_wht.png","../images/ylw_slt.png"],"mutagen_generator_assignment":[0,1],"goal":4,"start":3,"action_noise":0,"location_history":"[3,2,3,4]","action_history":"[1,1,0]","mutagen_history":"[1,1,0]","location_rts":"[1040,728,660]","trial_type":"fractal-mutation","trial_index":58,"time_elapsed":920030,"internal_node_id":"0.0-5.0-4.0"},{"group":"hexagon_bi","fractal_assignment":["../images/cyn_red.png","../images/gry_blk.png","../images/org_blu.png","../images/pnk_blu.png","../images/blu_wht.png","../images/ylw_slt.png"],"mutagen_generator_assignment":[0,1],"goal":2,"start":4,"action_noise":0,"location_history":"[4,3,2]","action_history":"[0,1]","mutagen_history":"[0,1]","location_rts":"[1196,1431]","trial_type":"fractal-mutation","trial_index":59,"time_elapsed":928715,"internal_node_id":"0.0-5.0-5.0"},{"group":"hexagon_bi","fractal_assignment":["../images/cyn_red.png","../images/gry_blk.png","../images/org_blu.png","../images/pnk_blu.png","../images/blu_wht.png","../images/ylw_slt.png"],"mutagen_generator_assignment":[0,1],"goal":1,"start":2,"action_noise":0,"location_history":"[2,3,4,3,2,1]","action_history":"[1,0,0,1,0]","mutagen_history":"[1,0,0,1,0]","location_rts":"[1028,379,1078,367,495]","trial_type":"fractal-mutation","trial_index":60,"time_elapsed":941193,"internal_node_id":"0.0-5.0-6.0"},{"group":"hexagon_bi","fractal_assignment":["../images/cyn_red.png","../images/gry_blk.png","../images/org_blu.png","../images/pnk_blu.png","../images/blu_wht.png","../images/ylw_slt.png"],"mutagen_generator_assignment":[0,1],"goal":5,"start":1,"action_noise":0,"location_history":"[1,0,5]","action_history":"[1,0]","mutagen_history":"[1,0]","location_rts":"[1189,1102]","trial_type":"fractal-mutation","trial_index":61,"time_elapsed":949548,"internal_node_id":"0.0-5.0-7.0"},{"group":"hexagon_bi","fractal_assignment":["../images/cyn_red.png","../images/gry_blk.png","../images/org_blu.png","../images/pnk_blu.png","../images/blu_wht.png","../images/ylw_slt.png"],"mutagen_generator_assignment":[0,1],"goal":4,"start":5,"action_noise":0,"location_history":"[5,4]","action_history":"[1]","mutagen_history":"[1]","location_rts":"[1001]","trial_type":"fractal-mutation","trial_index":62,"time_elapsed":955586,"internal_node_id":"0.0-5.0-8.0"},{"group":"hexagon_bi","fractal_assignment":["../images/cyn_red.png","../images/gry_blk.png","../images/org_blu.png","../images/pnk_blu.png","../images/blu_wht.png","../images/ylw_slt.png"],"mutagen_generator_assignment":[0,1],"goal":2,"start":4,"action_noise":0,"location_history":"[4,3,2]","action_history":"[0,1]","mutagen_history":"[0,1]","location_rts":"[1988,730]","trial_type":"fractal-mutation","trial_index":63,"time_elapsed":964360,"internal_node_id":"0.0-5.0-9.0"},{"group":"hexagon_bi","fractal_assignment":["../images/cyn_red.png","../images/gry_blk.png","../images/org_blu.png","../images/pnk_blu.png","../images/blu_wht.png","../images/ylw_slt.png"],"mutagen_generator_assignment":[0,1],"goal":0,"start":2,"action_noise":0,"location_history":"[2,1,0]","action_history":"[0,1]","mutagen_history":"[0,1]","location_rts":"[2044,529]","trial_type":"fractal-mutation","trial_index":64,"time_elapsed":972997,"internal_node_id":"0.0-5.0-10.0"},{"group":"hexagon_bi","fractal_assignment":["../images/cyn_red.png","../images/gry_blk.png","../images/org_blu.png","../images/pnk_blu.png","../images/blu_wht.png","../images/ylw_slt.png"],"mutagen_generator_assignment":[0,1],"goal":1,"start":0,"action_noise":0,"location_history":"[0,5,4,3,2,1]","action_history":"[0,1,0,1,0]","mutagen_history":"[0,1,0,1,0]","location_rts":"[1953,323,476,629,1021]","trial_type":"fractal-mutation","trial_index":65,"time_elapsed":986529,"internal_node_id":"0.0-5.0-11.0"},{"group":"hexagon_bi","fractal_assignment":["../images/cyn_red.png","../images/gry_blk.png","../images/org_blu.png","../images/pnk_blu.png","../images/blu_wht.png","../images/ylw_slt.png"],"mutagen_generator_assignment":[0,1],"goal":3,"start":1,"action_noise":0,"location_history":"[1,2,3]","action_history":"[0,1]","mutagen_history":"[0,1]","location_rts":"[1280,1009]","trial_type":"fractal-mutation","trial_index":66,"time_elapsed":994867,"internal_node_id":"0.0-5.0-12.0"},{"group":"hexagon_bi","fractal_assignment":["../images/cyn_red.png","../images/gry_blk.png","../images/org_blu.png","../images/pnk_blu.png","../images/blu_wht.png","../images/ylw_slt.png"],"mutagen_generator_assignment":[0,1],"goal":5,"start":3,"action_noise":0,"location_history":"[3,2,1,0,5]","action_history":"[1,0,1,0]","mutagen_history":"[1,0,1,0]","location_rts":"[2154,491,369,567]","trial_type":"fractal-mutation","trial_index":67,"time_elapsed":1006547,"internal_node_id":"0.0-5.0-13.0"},{"group":"hexagon_bi","fractal_assignment":["../images/cyn_red.png","../images/gry_blk.png","../images/org_blu.png","../images/pnk_blu.png","../images/blu_wht.png","../images/ylw_slt.png"],"mutagen_generator_assignment":[0,1],"goal":4,"start":5,"action_noise":0,"location_history":"[5,4]","action_history":"[1]","mutagen_history":"[1]","location_rts":"[1285]","trial_type":"fractal-mutation","trial_index":68,"time_elapsed":1012872,"internal_node_id":"0.0-5.0-14.0"},{"group":"hexagon_bi","fractal_assignment":["../images/cyn_red.png","../images/gry_blk.png","../images/org_blu.png","../images/pnk_blu.png","../images/blu_wht.png","../images/ylw_slt.png"],"mutagen_generator_assignment":[0,1],"goal":0,"start":4,"action_noise":0,"location_history":"[4,3,2,1,0]","action_history":"[0,1,0,1]","mutagen_history":"[0,1,0,1]","location_rts":"[1656,451,575,559]","trial_type":"fractal-mutation","trial_index":69,"time_elapsed":1024222,"internal_node_id":"0.0-5.0-15.0"},{"group":"hexagon_bi","fractal_assignment":["../images/cyn_red.png","../images/gry_blk.png","../images/org_blu.png","../images/pnk_blu.png","../images/blu_wht.png","../images/ylw_slt.png"],"mutagen_generator_assignment":[0,1],"goal":3,"start":0,"action_noise":0,"location_history":"[0,1,2,3]","action_history":"[1,0,1]","mutagen_history":"[1,0,1]","location_rts":"[2101,380,442]","trial_type":"fractal-mutation","trial_index":70,"time_elapsed":1034207,"internal_node_id":"0.0-5.0-16.0"},{"group":"hexagon_bi","fractal_assignment":["../images/cyn_red.png","../images/gry_blk.png","../images/org_blu.png","../images/pnk_blu.png","../images/blu_wht.png","../images/ylw_slt.png"],"mutagen_generator_assignment":[0,1],"goal":1,"start":3,"action_noise":0,"location_history":"[3,2,1]","action_history":"[1,0]","mutagen_history":"[1,0]","location_rts":"[1420,368]","trial_type":"fractal-mutation","trial_index":71,"time_elapsed":1042054,"internal_node_id":"0.0-5.0-17.0"},{"group":"hexagon_bi","fractal_assignment":["../images/cyn_red.png","../images/gry_blk.png","../images/org_blu.png","../images/pnk_blu.png","../images/blu_wht.png","../images/ylw_slt.png"],"mutagen_generator_assignment":[0,1],"goal":5,"start":1,"action_noise":0,"location_history":"[1,0,1,0,5]","action_history":"[1,1,1,0]","mutagen_history":"[1,1,1,0]","location_rts":"[983,596,998,288]","trial_type":"fractal-mutation","trial_index":72,"time_elapsed":1053030,"internal_node_id":"0.0-5.0-18.0"},{"group":"hexagon_bi","fractal_assignment":["../images/cyn_red.png","../images/gry_blk.png","../images/org_blu.png","../images/pnk_blu.png","../images/blu_wht.png","../images/ylw_slt.png"],"mutagen_generator_assignment":[0,1],"goal":2,"start":5,"action_noise":0,"location_history":"[5,0,1,2]","action_history":"[0,1,0]","mutagen_history":"[0,1,0]","location_rts":"[1218,678,483]","trial_type":"fractal-mutation","trial_index":73,"time_elapsed":1062497,"internal_node_id":"0.0-5.0-19.0"},{"group":"hexagon_bi","fractal_assignment":["../images/cyn_red.png","../images/gry_blk.png","../images/org_blu.png","../images/pnk_blu.png","../images/blu_wht.png","../images/ylw_slt.png"],"mutagen_generator_assignment":[0,1],"goal":4,"start":2,"action_noise":0,"location_history":"[2,3,4]","action_history":"[1,0]","mutagen_history":"[1,0]","location_rts":"[1281,303]","trial_type":"fractal-mutation","trial_index":74,"time_elapsed":1070130,"internal_node_id":"0.0-5.0-20.0"},{"group":"hexagon_bi","fractal_assignment":["../images/cyn_red.png","../images/gry_blk.png","../images/org_blu.png","../images/pnk_blu.png","../images/blu_wht.png","../images/ylw_slt.png"],"mutagen_generator_assignment":[0,1],"goal":1,"start":4,"action_noise":0,"location_history":"[4,3,2,1]","action_history":"[0,1,0]","mutagen_history":"[0,1,0]","location_rts":"[2635,435,440]","trial_type":"fractal-mutation","trial_index":75,"time_elapsed":1080709,"internal_node_id":"0.0-5.0-21.0"},{"group":"hexagon_bi","fractal_assignment":["../images/cyn_red.png","../images/gry_blk.png","../images/org_blu.png","../images/pnk_blu.png","../images/blu_wht.png","../images/ylw_slt.png"],"mutagen_generator_assignment":[0,1],"goal":3,"start":1,"action_noise":0,"location_history":"[1,0,5,4,3]","action_history":"[1,0,1,0]","mutagen_history":"[1,0,1,0]","location_rts":"[1775,321,488,502]","trial_type":"fractal-mutation","trial_index":76,"time_elapsed":1091890,"internal_node_id":"0.0-5.0-22.0"},{"group":"hexagon_bi","fractal_assignment":["../images/cyn_red.png","../images/gry_blk.png","../images/org_blu.png","../images/pnk_blu.png","../images/blu_wht.png","../images/ylw_slt.png"],"mutagen_generator_assignment":[0,1],"goal":2,"start":3,"action_noise":0,"location_history":"[3,4,5,0,1,0,5,4,3,4,5,0,1,2]","action_history":"[0,1,0,1,1,0,1,0,0,1,0,1,0]","mutagen_history":"[0,1,0,1,1,0,1,0,0,1,0,1,0]","location_rts":"[1110,362,482,466,11722,352,707,441,1001,360,289,1744,434]","trial_type":"fractal-mutation","trial_index":77,"time_elapsed":1128680,"internal_node_id":"0.0-5.0-23.0"},{"group":"hexagon_bi","fractal_assignment":["../images/cyn_red.png","../images/gry_blk.png","../images/org_blu.png","../images/pnk_blu.png","../images/blu_wht.png","../images/ylw_slt.png"],"mutagen_generator_assignment":[0,1],"goal":0,"start":2,"action_noise":0,"location_history":"[2,3,4,3,2,1,0]","action_history":"[1,0,0,1,0,1]","mutagen_history":"[1,0,0,1,0,1]","location_rts":"[20950,487,925,384,462,401]","trial_type":"fractal-mutation","trial_index":78,"time_elapsed":1162446,"internal_node_id":"0.0-5.0-24.0"},{"group":"hexagon_bi","fractal_assignment":["../images/cyn_red.png","../images/gry_blk.png","../images/org_blu.png","../images/pnk_blu.png","../images/blu_wht.png","../images/ylw_slt.png"],"mutagen_generator_assignment":[0,1],"goal":5,"start":0,"action_noise":0,"location_history":"[0,1,2,3,4,5]","action_history":"[1,0,1,0,1]","mutagen_history":"[1,0,1,0,1]","location_rts":"[1268,1057,515,474,405]","trial_type":"fractal-mutation","trial_index":79,"time_elapsed":1175305,"internal_node_id":"0.0-5.0-25.0"},{"group":"hexagon_bi","fractal_assignment":["../images/cyn_red.png","../images/gry_blk.png","../images/org_blu.png","../images/pnk_blu.png","../images/blu_wht.png","../images/ylw_slt.png"],"mutagen_generator_assignment":[0,1],"goal":2,"start":5,"action_noise":0,"location_history":"[5,0,1,2]","action_history":"[0,1,0]","mutagen_history":"[0,1,0]","location_rts":"[2520,371,579]","trial_type":"fractal-mutation","trial_index":80,"time_elapsed":1185865,"internal_node_id":"0.0-5.0-26.0"},{"group":"hexagon_bi","fractal_assignment":["../images/cyn_red.png","../images/gry_blk.png","../images/org_blu.png","../images/pnk_blu.png","../images/blu_wht.png","../images/ylw_slt.png"],"mutagen_generator_assignment":[0,1],"goal":3,"start":2,"action_noise":0,"location_history":"[2,1,0,5,4,3]","action_history":"[0,1,0,1,0]","mutagen_history":"[0,1,0,1,0]","location_rts":"[1412,391,379,509,736]","trial_type":"fractal-mutation","trial_index":81,"time_elapsed":1198412,"internal_node_id":"0.0-5.0-27.0"},{"group":"hexagon_bi","fractal_assignment":["../images/cyn_red.png","../images/gry_blk.png","../images/org_blu.png","../images/pnk_blu.png","../images/blu_wht.png","../images/ylw_slt.png"],"mutagen_generator_assignment":[0,1],"goal":0,"start":3,"action_noise":0,"location_history":"[3,2,1,0]","action_history":"[1,0,1]","mutagen_history":"[1,0,1]","location_rts":"[1692,402,534]","trial_type":"fractal-mutation","trial_index":82,"time_elapsed":1208125,"internal_node_id":"0.0-5.0-28.0"},{"group":"hexagon_bi","fractal_assignment":["../images/cyn_red.png","../images/gry_blk.png","../images/org_blu.png","../images/pnk_blu.png","../images/blu_wht.png","../images/ylw_slt.png"],"mutagen_generator_assignment":[0,1],"goal":1,"start":0,"action_noise":0,"location_history":"[0,1]","action_history":"[1]","mutagen_history":"[1]","location_rts":"[1308]","trial_type":"fractal-mutation","trial_index":83,"time_elapsed":1214469,"internal_node_id":"0.0-5.0-29.0"},{"group":"hexagon_bi","fractal_assignment":["../images/cyn_red.png","../images/gry_blk.png","../images/org_blu.png","../images/pnk_blu.png","../images/blu_wht.png","../images/ylw_slt.png"],"mutagen_generator_assignment":[0,1],"goal":4,"start":1,"action_noise":0,"location_history":"[1,0,5,4]","action_history":"[1,0,1]","mutagen_history":"[1,0,1]","location_rts":"[2267,370,922]","trial_type":"fractal-mutation","trial_index":84,"time_elapsed":1225107,"internal_node_id":"0.0-5.0-30.0"},{"group":"hexagon_bi","fractal_assignment":["../images/cyn_red.png","../images/gry_blk.png","../images/org_blu.png","../images/pnk_blu.png","../images/blu_wht.png","../images/ylw_slt.png"],"mutagen_generator_assignment":[0,1],"goal":5,"start":4,"action_noise":0,"location_history":"[4,3,2,1,0,5]","action_history":"[0,1,0,1,0]","mutagen_history":"[0,1,0,1,0]","location_rts":"[6574,371,349,379,531]","trial_type":"fractal-mutation","trial_index":85,"time_elapsed":1242438,"internal_node_id":"0.0-5.0-31.0"},{"group":"hexagon_bi","fractal_assignment":["../images/cyn_red.png","../images/gry_blk.png","../images/org_blu.png","../images/pnk_blu.png","../images/blu_wht.png","../images/ylw_slt.png"],"mutagen_generator_assignment":[0,1],"goal":0,"start":5,"action_noise":0,"location_history":"[5,4,3,2,1,0]","action_history":"[1,0,1,0,1]","mutagen_history":"[1,0,1,0,1]","location_rts":"[3166,326,633,505,482]","trial_type":"fractal-mutation","trial_index":86,"time_elapsed":1256688,"internal_node_id":"0.0-5.0-32.0"},{"group":"hexagon_bi","fractal_assignment":["../images/cyn_red.png","../images/gry_blk.png","../images/org_blu.png","../images/pnk_blu.png","../images/blu_wht.png","../images/ylw_slt.png"],"mutagen_generator_assignment":[0,1],"goal":3,"start":0,"action_noise":0,"location_history":"[0,5,4,3]","action_history":"[0,1,0]","mutagen_history":"[0,1,0]","location_rts":"[3043,804,423]","trial_type":"fractal-mutation","trial_index":87,"time_elapsed":1268031,"internal_node_id":"0.0-5.0-33.0"},{"group":"hexagon_bi","fractal_assignment":["../images/cyn_red.png","../images/gry_blk.png","../images/org_blu.png","../images/pnk_blu.png","../images/blu_wht.png","../images/ylw_slt.png"],"mutagen_generator_assignment":[0,1],"goal":1,"start":3,"action_noise":0,"location_history":"[3,2,1]","action_history":"[1,0]","mutagen_history":"[1,0]","location_rts":"[4628,546]","trial_type":"fractal-mutation","trial_index":88,"time_elapsed":1279267,"internal_node_id":"0.0-5.0-34.0"},{"group":"hexagon_bi","fractal_assignment":["../images/cyn_red.png","../images/gry_blk.png","../images/org_blu.png","../images/pnk_blu.png","../images/blu_wht.png","../images/ylw_slt.png"],"mutagen_generator_assignment":[0,1],"goal":2,"start":1,"action_noise":0,"location_history":"[1,0,5,4,3,2]","action_history":"[1,0,1,0,1]","mutagen_history":"[1,0,1,0,1]","location_rts":"[1243,376,526,427,1297]","trial_type":"fractal-mutation","trial_index":89,"time_elapsed":1292270,"internal_node_id":"0.0-5.0-35.0"},{"group":"hexagon_bi","fractal_assignment":["../images/cyn_red.png","../images/gry_blk.png","../images/org_blu.png","../images/pnk_blu.png","../images/blu_wht.png","../images/ylw_slt.png"],"mutagen_generator_assignment":[0,1],"goal":4,"start":2,"action_noise":0,"location_history":"[2,1,0,5,4]","action_history":"[0,1,0,1]","mutagen_history":"[0,1,0,1]","location_rts":"[1632,394,489,1016]","trial_type":"fractal-mutation","trial_index":90,"time_elapsed":1303898,"internal_node_id":"0.0-5.0-36.0"},{"group":"hexagon_bi","fractal_assignment":["../images/cyn_red.png","../images/gry_blk.png","../images/org_blu.png","../images/pnk_blu.png","../images/blu_wht.png","../images/ylw_slt.png"],"mutagen_generator_assignment":[0,1],"goal":5,"start":4,"action_noise":0,"location_history":"[4,3,2,1,0,5]","action_history":"[0,1,0,1,0]","mutagen_history":"[0,1,0,1,0]","location_rts":"[3565,319,351,329,569]","trial_type":"fractal-mutation","trial_index":91,"time_elapsed":1318157,"internal_node_id":"0.0-5.0-37.0"},{"group":"hexagon_bi","fractal_assignment":["../images/cyn_red.png","../images/gry_blk.png","../images/org_blu.png","../images/pnk_blu.png","../images/blu_wht.png","../images/ylw_slt.png"],"mutagen_generator_assignment":[0,1],"goal":1,"start":5,"action_noise":0,"location_history":"[5,4,5,0,1]","action_history":"[1,1,0,1]","mutagen_history":"[1,1,0,1]","location_rts":"[1141,1807,521,368]","trial_type":"fractal-mutation","trial_index":92,"time_elapsed":1330131,"internal_node_id":"0.0-5.0-38.0"},{"group":"hexagon_bi","fractal_assignment":["../images/cyn_red.png","../images/gry_blk.png","../images/org_blu.png","../images/pnk_blu.png","../images/blu_wht.png","../images/ylw_slt.png"],"mutagen_generator_assignment":[0,1],"goal":4,"start":1,"action_noise":0,"location_history":"[1,2,3,4]","action_history":"[0,1,0]","mutagen_history":"[0,1,0]","location_rts":"[2287,352,368]","trial_type":"fractal-mutation","trial_index":93,"time_elapsed":1340221,"internal_node_id":"0.0-5.0-39.0"},{"group":"hexagon_bi","fractal_assignment":["../images/cyn_red.png","../images/gry_blk.png","../images/org_blu.png","../images/pnk_blu.png","../images/blu_wht.png","../images/ylw_slt.png"],"mutagen_generator_assignment":[0,1],"goal":3,"start":4,"action_noise":0,"location_history":"[4,3]","action_history":"[0]","mutagen_history":"[0]","location_rts":"[967]","trial_type":"fractal-mutation","trial_index":94,"time_elapsed":1346220,"internal_node_id":"0.0-5.0-40.0"},{"group":"hexagon_bi","fractal_assignment":["../images/cyn_red.png","../images/gry_blk.png","../images/org_blu.png","../images/pnk_blu.png","../images/blu_wht.png","../images/ylw_slt.png"],"mutagen_generator_assignment":[0,1],"goal":2,"start":3,"action_noise":0,"location_history":"[3,2]","action_history":"[1]","mutagen_history":"[1]","location_rts":"[1688]","trial_type":"fractal-mutation","trial_index":95,"time_elapsed":1352936,"internal_node_id":"0.0-5.0-41.0"},{"group":"hexagon_bi","fractal_assignment":["../images/cyn_red.png","../images/gry_blk.png","../images/org_blu.png","../images/pnk_blu.png","../images/blu_wht.png","../images/ylw_slt.png"],"mutagen_generator_assignment":[0,1],"goal":0,"start":2,"action_noise":0,"location_history":"[2,1,0]","action_history":"[0,1]","mutagen_history":"[0,1]","location_rts":"[1024,449]","trial_type":"fractal-mutation","trial_index":96,"time_elapsed":1360470,"internal_node_id":"0.0-5.0-42.0"},{"group":"hexagon_bi","fractal_assignment":["../images/cyn_red.png","../images/gry_blk.png","../images/org_blu.png","../images/pnk_blu.png","../images/blu_wht.png","../images/ylw_slt.png"],"mutagen_generator_assignment":[0,1],"goal":5,"start":0,"action_noise":0,"location_history":"[0,1,2,3,4,5]","action_history":"[1,0,1,0,1]","mutagen_history":"[1,0,1,0,1]","location_rts":"[1470,363,946,440,733]","trial_type":"fractal-mutation","trial_index":97,"time_elapsed":1373553,"internal_node_id":"0.0-5.0-43.0"},{"group":"hexagon_bi","fractal_assignment":["../images/cyn_red.png","../images/gry_blk.png","../images/org_blu.png","../images/pnk_blu.png","../images/blu_wht.png","../images/ylw_slt.png"],"mutagen_generator_assignment":[0,1],"goal":0,"start":5,"action_noise":0,"location_history":"[5,4,3,2,1,0]","action_history":"[1,0,1,0,1]","mutagen_history":"[1,0,1,0,1]","location_rts":"[1785,262,541,443,444]","trial_type":"fractal-mutation","trial_index":98,"time_elapsed":1386161,"internal_node_id":"0.0-5.0-44.0"},{"group":"hexagon_bi","fractal_assignment":["../images/cyn_red.png","../images/gry_blk.png","../images/org_blu.png","../images/pnk_blu.png","../images/blu_wht.png","../images/ylw_slt.png"],"mutagen_generator_assignment":[0,1],"goal":2,"start":0,"action_noise":0,"location_history":"[0,1,2]","action_history":"[1,0]","mutagen_history":"[1,0]","location_rts":"[2820,287]","trial_type":"fractal-mutation","trial_index":99,"time_elapsed":1395323,"internal_node_id":"0.0-5.0-45.0"},{"group":"hexagon_bi","fractal_assignment":["../images/cyn_red.png","../images/gry_blk.png","../images/org_blu.png","../images/pnk_blu.png","../images/blu_wht.png","../images/ylw_slt.png"],"mutagen_generator_assignment":[0,1],"goal":4,"start":2,"action_noise":0,"location_history":"[2,3,4]","action_history":"[1,0]","mutagen_history":"[1,0]","location_rts":"[658,401]","trial_type":"fractal-mutation","trial_index":100,"time_elapsed":1402431,"internal_node_id":"0.0-5.0-46.0"},{"group":"hexagon_bi","fractal_assignment":["../images/cyn_red.png","../images/gry_blk.png","../images/org_blu.png","../images/pnk_blu.png","../images/blu_wht.png","../images/ylw_slt.png"],"mutagen_generator_assignment":[0,1],"goal":1,"start":4,"action_noise":0,"location_history":"[4,3,2,1]","action_history":"[0,1,0]","mutagen_history":"[0,1,0]","location_rts":"[1556,306,370]","trial_type":"fractal-mutation","trial_index":101,"time_elapsed":1411735,"internal_node_id":"0.0-5.0-47.0"},{"group":"hexagon_bi","fractal_assignment":["../images/cyn_red.png","../images/gry_blk.png","../images/org_blu.png","../images/pnk_blu.png","../images/blu_wht.png","../images/ylw_slt.png"],"mutagen_generator_assignment":[0,1],"goal":5,"start":1,"action_noise":0,"location_history":"[1,0,5]","action_history":"[1,0]","mutagen_history":"[1,0]","location_rts":"[860,533]","trial_type":"fractal-mutation","trial_index":102,"time_elapsed":1419187,"internal_node_id":"0.0-5.0-48.0"},{"group":"hexagon_bi","fractal_assignment":["../images/cyn_red.png","../images/gry_blk.png","../images/org_blu.png","../images/pnk_blu.png","../images/blu_wht.png","../images/ylw_slt.png"],"mutagen_generator_assignment":[0,1],"goal":3,"start":5,"action_noise":0,"location_history":"[5,0,1,2,3]","action_history":"[0,1,0,1]","mutagen_history":"[0,1,0,1]","location_rts":"[3127,619,448,443]","trial_type":"fractal-mutation","trial_index":103,"time_elapsed":1431918,"internal_node_id":"0.0-5.0-49.0"},{"view_history":"[{\"page_index\":0,\"viewing_time\":7199}]","rt":7200,"trial_type":"instructions","trial_index":104,"time_elapsed":1440118,"internal_node_id":"0.0-6.0"},{"rt":6339,"responses":"{\"Q0\":\"No comments\"}","trial_type":"survey-text","trial_index":105,"time_elapsed":1447464,"internal_node_id":"0.0-7.0"}]