[{"view_history":"[{\"page_index\":0,\"viewing_time\":10735},{\"page_index\":1,\"viewing_time\":7841}]","rt":18576,"trial_type":"instructions","trial_index":0,"time_elapsed":18576,"internal_node_id":"0.0-0.0"},{"view_history":"[{\"page_index\":0,\"viewing_time\":3827},{\"page_index\":1,\"viewing_time\":8373}]","rt":12200,"trial_type":"instructions","trial_index":1,"time_elapsed":31777,"internal_node_id":"0.0-1.0"},{"group":"hexagon_bi","room_assignment":["yellow","grey","blue","red","purple","green"],"door_color_assignment":["black","white"],"door_generator_assignment":[0,1],"goal":3,"start":5,"action_noise":0,"location_history":"[5,4,3]","action_history":"[1,0]","door_history":"[1,0]","location_rts":"[1779,456]","trial_type":"two-door-navigation","trial_index":2,"time_elapsed":40077,"internal_node_id":"0.0-2.0-0.0"},{"group":"hexagon_bi","room_assignment":["yellow","grey","blue","red","purple","green"],"door_color_assignment":["black","white"],"door_generator_assignment":[0,1],"goal":1,"start":3,"action_noise":0,"location_history":"[3,2,1]","action_history":"[1,0]","door_history":"[1,0]","location_rts":"[667,224]","trial_type":"two-door-navigation","trial_index":3,"time_elapsed":47020,"internal_node_id":"0.0-2.0-1.0"},{"group":"hexagon_bi","room_assignment":["yellow","grey","blue","red","purple","green"],"door_color_assignment":["black","white"],"door_generator_assignment":[0,1],"goal":0,"start":1,"action_noise":0,"location_history":"[1,2,3,4,5,0]","action_history":"[0,1,0,1,0]","door_history":"[0,1,0,1,0]","location_rts":"[386,76,110,214,416]","trial_type":"two-door-navigation","trial_index":4,"time_elapsed":57346,"internal_node_id":"0.0-2.0-2.0"},{"group":"hexagon_bi","room_assignment":["yellow","grey","blue","red","purple","green"],"door_color_assignment":["black","white"],"door_generator_assignment":[0,1],"goal":3,"start":0,"action_noise":0,"location_history":"[0,1,2,3]","action_history":"[1,0,1]","door_history":"[1,0,1]","location_rts":"[353,251,80]","trial_type":"two-door-navigation","trial_index":5,"time_elapsed":65107,"internal_node_id":"0.0-2.0-3.0"},{"group":"hexagon_bi","room_assignment":["yellow","grey","blue","red","purple","green"],"door_color_assignment":["black","white"],"door_generator_assignment":[0,1],"goal":4,"start":3,"action_noise":0,"location_history":"[3,4]","action_history":"[0]","door_history":"[0]","location_rts":"[1297]","trial_type":"two-door-navigation","trial_index":6,"time_elapsed":71424,"internal_node_id":"0.0-2.0-4.0"},{"group":"hexagon_bi","room_assignment":["yellow","grey","blue","red","purple","green"],"door_color_assignment":["black","white"],"door_generator_assignment":[0,1],"goal":2,"start":4,"action_noise":0,"location_history":"[4,5,0,1,2]","action_history":"[1,0,1,0]","door_history":"[1,0,1,0]","location_rts":"[36853,128,113,113]","trial_type":"two-door-navigation","trial_index":7,"time_elapsed":116721,"internal_node_id":"0.0-2.0-5.0"},{"group":"hexagon_bi","room_assignment":["yellow","grey","blue","red","purple","green"],"door_color_assignment":["black","white"],"door_generator_assignment":[0,1],"goal":1,"start":2,"action_noise":0,"location_history":"[2,3,4,5,0,1]","action_history":"[1,0,1,0,1]","door_history":"[1,0,1,0,1]","location_rts":"[14202,217,264,731,574]","trial_type":"two-door-navigation","trial_index":8,"time_elapsed":141807,"internal_node_id":"0.0-2.0-6.0"},{"group":"hexagon_bi","room_assignment":["yellow","grey","blue","red","purple","green"],"door_color_assignment":["black","white"],"door_generator_assignment":[0,1],"goal":5,"start":1,"action_noise":0,"location_history":"[1,2,3,4,5]","action_history":"[0,1,0,1]","door_history":"[0,1,0,1]","location_rts":"[358,56,37,239]","trial_type":"two-door-navigation","trial_index":9,"time_elapsed":150580,"internal_node_id":"0.0-2.0-7.0"},{"group":"hexagon_bi","room_assignment":["yellow","grey","blue","red","purple","green"],"door_color_assignment":["black","white"],"door_generator_assignment":[0,1],"goal":4,"start":5,"action_noise":0,"location_history":"[5,0,1,2,3,4]","action_history":"[0,1,0,1,0]","door_history":"[0,1,0,1,0]","location_rts":"[427,197,75,262,611]","trial_type":"two-door-navigation","trial_index":10,"time_elapsed":161268,"internal_node_id":"0.0-2.0-8.0"},{"group":"hexagon_bi","room_assignment":["yellow","grey","blue","red","purple","green"],"door_color_assignment":["black","white"],"door_generator_assignment":[0,1],"goal":2,"start":4,"action_noise":0,"location_history":"[4,5,0,1,2]","action_history":"[1,0,1,0]","door_history":"[1,0,1,0]","location_rts":"[3349,187,73,292]","trial_type":"two-door-navigation","trial_index":11,"time_elapsed":173254,"internal_node_id":"0.0-2.0-9.0"},{"group":"hexagon_bi","room_assignment":["yellow","grey","blue","red","purple","green"],"door_color_assignment":["black","white"],"door_generator_assignment":[0,1],"goal":0,"start":2,"action_noise":0,"location_history":"[2,3,4,5,0]","action_history":"[1,0,1,0]","door_history":"[1,0,1,0]","location_rts":"[40166,285,244,361]","trial_type":"two-door-navigation","trial_index":12,"time_elapsed":222398,"internal_node_id":"0.0-2.0-10.0"},{"group":"hexagon_bi","room_assignment":["yellow","grey","blue","red","purple","green"],"door_color_assignment":["black","white"],"door_generator_assignment":[0,1],"goal":1,"start":0,"action_noise":0,"location_history":"[0,1]","action_history":"[1]","door_history":"[1]","location_rts":"[12129]","trial_type":"two-door-navigation","trial_index":13,"time_elapsed":239559,"internal_node_id":"0.0-2.0-11.0"},{"group":"hexagon_bi","room_assignment":["yellow","grey","blue","red","purple","green"],"door_color_assignment":["black","white"],"door_generator_assignment":[0,1],"goal":3,"start":1,"action_noise":0,"location_history":"[1,2,3]","action_history":"[0,1]","door_history":"[0,1]","location_rts":"[2853,288]","trial_type":"two-door-navigation","trial_index":14,"time_elapsed":248750,"internal_node_id":"0.0-2.0-12.0"},{"group":"hexagon_bi","room_assignment":["yellow","grey","blue","red","purple","green"],"door_color_assignment":["black","white"],"door_generator_assignment":[0,1],"goal":5,"start":3,"action_noise":0,"location_history":"[3,2,1,0,5]","action_history":"[1,0,1,0]","door_history":"[1,0,1,0]","location_rts":"[1585,15,388,437]","trial_type":"two-door-navigation","trial_index":15,"time_elapsed":259263,"internal_node_id":"0.0-2.0-13.0"},{"group":"hexagon_bi","room_assignment":["yellow","grey","blue","red","purple","green"],"door_color_assignment":["black","white"],"door_generator_assignment":[0,1],"goal":4,"start":5,"action_noise":0,"location_history":"[5,4]","action_history":"[1]","door_history":"[1]","location_rts":"[33455]","trial_type":"two-door-navigation","trial_index":16,"time_elapsed":297743,"internal_node_id":"0.0-2.0-14.0"},{"group":"hexagon_bi","room_assignment":["yellow","grey","blue","red","purple","green"],"door_color_assignment":["black","white"],"door_generator_assignment":[0,1],"goal":0,"start":4,"action_noise":0,"location_history":"[4,3,2,1,0]","action_history":"[0,1,0,1]","door_history":"[0,1,0,1]","location_rts":"[628,406,538,276]","trial_type":"two-door-navigation","trial_index":17,"time_elapsed":307670,"internal_node_id":"0.0-2.0-15.0"},{"group":"hexagon_bi","room_assignment":["yellow","grey","blue","red","purple","green"],"door_color_assignment":["black","white"],"door_generator_assignment":[0,1],"goal":3,"start":0,"action_noise":0,"location_history":"[0,1,2,3]","action_history":"[1,0,1]","door_history":"[1,0,1]","location_rts":"[11014,212,250]","trial_type":"two-door-navigation","trial_index":18,"time_elapsed":326202,"internal_node_id":"0.0-2.0-16.0"},{"group":"hexagon_bi","room_assignment":["yellow","grey","blue","red","purple","green"],"door_color_assignment":["black","white"],"door_generator_assignment":[0,1],"goal":1,"start":3,"action_noise":0,"location_history":"[3,2,1]","action_history":"[1,0]","door_history":"[1,0]","location_rts":"[5897,384]","trial_type":"two-door-navigation","trial_index":19,"time_elapsed":338528,"internal_node_id":"0.0-2.0-17.0"},{"group":"hexagon_bi","room_assignment":["yellow","grey","blue","red","purple","green"],"door_color_assignment":["black","white"],"door_generator_assignment":[0,1],"goal":5,"start":1,"action_noise":0,"location_history":"[1,0,5]","action_history":"[1,0]","door_history":"[1,0]","location_rts":"[15454,233]","trial_type":"two-door-navigation","trial_index":20,"time_elapsed":360258,"internal_node_id":"0.0-2.0-18.0"},{"group":"hexagon_bi","room_assignment":["yellow","grey","blue","red","purple","green"],"door_color_assignment":["black","white"],"door_generator_assignment":[0,1],"goal":2,"start":5,"action_noise":0,"location_history":"[5,4,3,2]","action_history":"[1,0,1]","door_history":"[1,0,1]","location_rts":"[11867,703,236]","trial_type":"two-door-navigation","trial_index":21,"time_elapsed":380128,"internal_node_id":"0.0-2.0-19.0"},{"group":"hexagon_bi","room_assignment":["yellow","grey","blue","red","purple","green"],"door_color_assignment":["black","white"],"door_generator_assignment":[0,1],"goal":4,"start":2,"action_noise":0,"location_history":"[2,3,4]","action_history":"[1,0]","door_history":"[1,0]","location_rts":"[12242,46]","trial_type":"two-door-navigation","trial_index":22,"time_elapsed":398456,"internal_node_id":"0.0-2.0-20.0"},{"group":"hexagon_bi","room_assignment":["yellow","grey","blue","red","purple","green"],"door_color_assignment":["black","white"],"door_generator_assignment":[0,1],"goal":1,"start":4,"action_noise":0,"location_history":"[4,5,0,1]","action_history":"[1,0,1]","door_history":"[1,0,1]","location_rts":"[21014,224,354]","trial_type":"two-door-navigation","trial_index":23,"time_elapsed":427112,"internal_node_id":"0.0-2.0-21.0"},{"group":"hexagon_bi","room_assignment":["yellow","grey","blue","red","purple","green"],"door_color_assignment":["black","white"],"door_generator_assignment":[0,1],"goal":3,"start":1,"action_noise":0,"location_history":"[1,0,5,4,3]","action_history":"[1,0,1,0]","door_history":"[1,0,1,0]","location_rts":"[12601,654,262,627]","trial_type":"two-door-navigation","trial_index":24,"time_elapsed":449330,"internal_node_id":"0.0-2.0-22.0"},{"group":"hexagon_bi","room_assignment":["yellow","grey","blue","red","purple","green"],"door_color_assignment":["black","white"],"door_generator_assignment":[0,1],"goal":2,"start":3,"action_noise":0,"location_history":"[3,2]","action_history":"[1]","door_history":"[1]","location_rts":"[11896]","trial_type":"two-door-navigation","trial_index":25,"time_elapsed":466247,"internal_node_id":"0.0-2.0-23.0"},{"group":"hexagon_bi","room_assignment":["yellow","grey","blue","red","purple","green"],"door_color_assignment":["black","white"],"door_generator_assignment":[0,1],"goal":0,"start":2,"action_noise":0,"location_history":"[2,3,4,5,0]","action_history":"[1,0,1,0]","door_history":"[1,0,1,0]","location_rts":"[9971,235,1281,336]","trial_type":"two-door-navigation","trial_index":26,"time_elapsed":486150,"internal_node_id":"0.0-2.0-24.0"},{"group":"hexagon_bi","room_assignment":["yellow","grey","blue","red","purple","green"],"door_color_assignment":["black","white"],"door_generator_assignment":[0,1],"goal":5,"start":0,"action_noise":0,"location_history":"[0,1,2,3,4,5]","action_history":"[1,0,1,0,1]","door_history":"[1,0,1,0,1]","location_rts":"[9344,100,565,245,416]","trial_type":"two-door-navigation","trial_index":27,"time_elapsed":505937,"internal_node_id":"0.0-2.0-25.0"},{"group":"hexagon_bi","room_assignment":["yellow","grey","blue","red","purple","green"],"door_color_assignment":["black","white"],"door_generator_assignment":[0,1],"goal":2,"start":5,"action_noise":0,"location_history":"[5,4,3,2]","action_history":"[1,0,1]","door_history":"[1,0,1]","location_rts":"[11377,227,230]","trial_type":"two-door-navigation","trial_index":28,"time_elapsed":524838,"internal_node_id":"0.0-2.0-26.0"},{"group":"hexagon_bi","room_assignment":["yellow","grey","blue","red","purple","green"],"door_color_assignment":["black","white"],"door_generator_assignment":[0,1],"goal":3,"start":2,"action_noise":0,"location_history":"[2,3]","action_history":"[1]","door_history":"[1]","location_rts":"[15319]","trial_type":"two-door-navigation","trial_index":29,"time_elapsed":545186,"internal_node_id":"0.0-2.0-27.0"},{"group":"hexagon_bi","room_assignment":["yellow","grey","blue","red","purple","green"],"door_color_assignment":["black","white"],"door_generator_assignment":[0,1],"goal":0,"start":3,"action_noise":0,"location_history":"[3,2,1,0]","action_history":"[1,0,1]","door_history":"[1,0,1]","location_rts":"[14604,1027,263]","trial_type":"two-door-navigation","trial_index":30,"time_elapsed":568134,"internal_node_id":"0.0-2.0-28.0"},{"group":"hexagon_bi","room_assignment":["yellow","grey","blue","red","purple","green"],"door_color_assignment":["black","white"],"door_generator_assignment":[0,1],"goal":1,"start":0,"action_noise":0,"location_history":"[0,1]","action_history":"[1]","door_history":"[1]","location_rts":"[7192]","trial_type":"two-door-navigation","trial_index":31,"time_elapsed":580352,"internal_node_id":"0.0-2.0-29.0"},{"group":"hexagon_bi","room_assignment":["yellow","grey","blue","red","purple","green"],"door_color_assignment":["black","white"],"door_generator_assignment":[0,1],"goal":4,"start":1,"action_noise":0,"location_history":"[1,0,5,4]","action_history":"[1,0,1]","door_history":"[1,0,1]","location_rts":"[30217,376,314]","trial_type":"two-door-navigation","trial_index":32,"time_elapsed":618334,"internal_node_id":"0.0-2.0-30.0"},{"group":"hexagon_bi","room_assignment":["yellow","grey","blue","red","purple","green"],"door_color_assignment":["black","white"],"door_generator_assignment":[0,1],"goal":5,"start":4,"action_noise":0,"location_history":"[4,5]","action_history":"[1]","door_history":"[1]","location_rts":"[7587]","trial_type":"two-door-navigation","trial_index":33,"time_elapsed":630948,"internal_node_id":"0.0-2.0-31.0"},{"group":"hexagon_bi","room_assignment":["yellow","grey","blue","red","purple","green"],"door_color_assignment":["black","white"],"door_generator_assignment":[0,1],"goal":0,"start":5,"action_noise":0,"location_history":"[5,0]","action_history":"[0]","door_history":"[0]","location_rts":"[2211]","trial_type":"two-door-navigation","trial_index":34,"time_elapsed":638187,"internal_node_id":"0.0-2.0-32.0"},{"group":"hexagon_bi","room_assignment":["yellow","grey","blue","red","purple","green"],"door_color_assignment":["black","white"],"door_generator_assignment":[0,1],"goal":3,"start":0,"action_noise":0,"location_history":"[0,5,4,3]","action_history":"[0,1,0]","door_history":"[0,1,0]","location_rts":"[4164,296,687]","trial_type":"two-door-navigation","trial_index":35,"time_elapsed":650390,"internal_node_id":"0.0-2.0-33.0"},{"group":"hexagon_bi","room_assignment":["yellow","grey","blue","red","purple","green"],"door_color_assignment":["black","white"],"door_generator_assignment":[0,1],"goal":1,"start":3,"action_noise":0,"location_history":"[3,2,1]","action_history":"[1,0]","door_history":"[1,0]","location_rts":"[2377,240]","trial_type":"two-door-navigation","trial_index":36,"time_elapsed":659047,"internal_node_id":"0.0-2.0-34.0"},{"group":"hexagon_bi","room_assignment":["yellow","grey","blue","red","purple","green"],"door_color_assignment":["black","white"],"door_generator_assignment":[0,1],"goal":2,"start":1,"action_noise":0,"location_history":"[1,0,5,4,3,2]","action_history":"[1,0,1,0,1]","door_history":"[1,0,1,0,1]","location_rts":"[3326,261,357,485,1027]","trial_type":"two-door-navigation","trial_index":37,"time_elapsed":673606,"internal_node_id":"0.0-2.0-35.0"},{"group":"hexagon_bi","room_assignment":["yellow","grey","blue","red","purple","green"],"door_color_assignment":["black","white"],"door_generator_assignment":[0,1],"goal":4,"start":2,"action_noise":0,"location_history":"[2,3,4]","action_history":"[1,0]","door_history":"[1,0]","location_rts":"[20660,268]","trial_type":"two-door-navigation","trial_index":38,"time_elapsed":700580,"internal_node_id":"0.0-2.0-36.0"},{"group":"hexagon_bi","room_assignment":["yellow","grey","blue","red","purple","green"],"door_color_assignment":["black","white"],"door_generator_assignment":[0,1],"goal":5,"start":4,"action_noise":0,"location_history":"[4,5]","action_history":"[1]","door_history":"[1]","location_rts":"[2119]","trial_type":"two-door-navigation","trial_index":39,"time_elapsed":707724,"internal_node_id":"0.0-2.0-37.0"},{"group":"hexagon_bi","room_assignment":["yellow","grey","blue","red","purple","green"],"door_color_assignment":["black","white"],"door_generator_assignment":[0,1],"goal":1,"start":5,"action_noise":0,"location_history":"[5,4,3,2,1]","action_history":"[1,0,1,0]","door_history":"[1,0,1,0]","location_rts":"[1875,397,711,381]","trial_type":"two-door-navigation","trial_index":40,"time_elapsed":719171,"internal_node_id":"0.0-2.0-38.0"},{"group":"hexagon_bi","room_assignment":["yellow","grey","blue","red","purple","green"],"door_color_assignment":["black","white"],"door_generator_assignment":[0,1],"goal":4,"start":1,"action_noise":0,"location_history":"[1,0,1,2,3,4]","action_history":"[1,1,0,1,0]","door_history":"[1,1,0,1,0]","location_rts":"[10188,1206,338,566,626]","trial_type":"two-door-navigation","trial_index":41,"time_elapsed":741212,"internal_node_id":"0.0-2.0-39.0"},{"group":"hexagon_bi","room_assignment":["yellow","grey","blue","red","purple","green"],"door_color_assignment":["black","white"],"door_generator_assignment":[0,1],"goal":3,"start":4,"action_noise":0,"location_history":"[4,3]","action_history":"[0]","door_history":"[0]","location_rts":"[15654]","trial_type":"two-door-navigation","trial_index":42,"time_elapsed":761892,"internal_node_id":"0.0-2.0-40.0"},{"group":"hexagon_bi","room_assignment":["yellow","grey","blue","red","purple","green"],"door_color_assignment":["black","white"],"door_generator_assignment":[0,1],"goal":2,"start":3,"action_noise":0,"location_history":"[3,2]","action_history":"[1]","door_history":"[1]","location_rts":"[1377]","trial_type":"two-door-navigation","trial_index":43,"time_elapsed":768294,"internal_node_id":"0.0-2.0-41.0"},{"group":"hexagon_bi","room_assignment":["yellow","grey","blue","red","purple","green"],"door_color_assignment":["black","white"],"door_generator_assignment":[0,1],"goal":0,"start":2,"action_noise":0,"location_history":"[2,3,4,5,0]","action_history":"[1,0,1,0]","door_history":"[1,0,1,0]","location_rts":"[15649,1800,2988,546]","trial_type":"two-door-navigation","trial_index":44,"time_elapsed":797352,"internal_node_id":"0.0-2.0-42.0"},{"group":"hexagon_bi","room_assignment":["yellow","grey","blue","red","purple","green"],"door_color_assignment":["black","white"],"door_generator_assignment":[0,1],"goal":5,"start":0,"action_noise":0,"location_history":"[0,1,2,3,4,5]","action_history":"[1,0,1,0,1]","door_history":"[1,0,1,0,1]","location_rts":"[6059,1489,274,249,467]","trial_type":"two-door-navigation","trial_index":45,"time_elapsed":814991,"internal_node_id":"0.0-2.0-43.0"},{"group":"hexagon_bi","room_assignment":["yellow","grey","blue","red","purple","green"],"door_color_assignment":["black","white"],"door_generator_assignment":[0,1],"goal":0,"start":5,"action_noise":0,"location_history":"[5,0]","action_history":"[0]","door_history":"[0]","location_rts":"[1686]","trial_type":"two-door-navigation","trial_index":46,"time_elapsed":821699,"internal_node_id":"0.0-2.0-44.0"},{"group":"hexagon_bi","room_assignment":["yellow","grey","blue","red","purple","green"],"door_color_assignment":["black","white"],"door_generator_assignment":[0,1],"goal":2,"start":0,"action_noise":0,"location_history":"[0,5,4,3,2]","action_history":"[0,1,0,1]","door_history":"[0,1,0,1]","location_rts":"[4008,438,361,854]","trial_type":"two-door-navigation","trial_index":47,"time_elapsed":835446,"internal_node_id":"0.0-2.0-45.0"},{"group":"hexagon_bi","room_assignment":["yellow","grey","blue","red","purple","green"],"door_color_assignment":["black","white"],"door_generator_assignment":[0,1],"goal":4,"start":2,"action_noise":0,"location_history":"[2,1,0,5,4]","action_history":"[0,1,0,1]","door_history":"[0,1,0,1]","location_rts":"[898,452,499,468]","trial_type":"two-door-navigation","trial_index":48,"time_elapsed":845846,"internal_node_id":"0.0-2.0-46.0"},{"group":"hexagon_bi","room_assignment":["yellow","grey","blue","red","purple","green"],"door_color_assignment":["black","white"],"door_generator_assignment":[0,1],"goal":1,"start":4,"action_noise":0,"location_history":"[4,3,2,1]","action_history":"[0,1,0]","door_history":"[0,1,0]","location_rts":"[364,229,877]","trial_type":"two-door-navigation","trial_index":49,"time_elapsed":854388,"internal_node_id":"0.0-2.0-47.0"},{"group":"hexagon_bi","room_assignment":["yellow","grey","blue","red","purple","green"],"door_color_assignment":["black","white"],"door_generator_assignment":[0,1],"goal":5,"start":1,"action_noise":0,"location_history":"[1,0,5]","action_history":"[1,0]","door_history":"[1,0]","location_rts":"[149872,54]","trial_type":"two-door-navigation","trial_index":50,"time_elapsed":1010357,"internal_node_id":"0.0-2.0-48.0"},{"group":"hexagon_bi","room_assignment":["yellow","grey","blue","red","purple","green"],"door_color_assignment":["black","white"],"door_generator_assignment":[0,1],"goal":3,"start":5,"action_noise":0,"location_history":"[5,4,3]","action_history":"[1,0]","door_history":"[1,0]","location_rts":"[18114,2111]","trial_type":"two-door-navigation","trial_index":51,"time_elapsed":1036621,"internal_node_id":"0.0-2.0-49.0"},{"view_history":"[{\"page_index\":0,\"viewing_time\":5021}]","rt":5022,"trial_type":"instructions","trial_index":52,"time_elapsed":1042644,"internal_node_id":"0.0-3.0"},{"view_history":"[{\"page_index\":0,\"viewing_time\":109687},{\"page_index\":1,\"viewing_time\":5262}]","rt":114949,"trial_type":"instructions","trial_index":53,"time_elapsed":1158596,"internal_node_id":"0.0-4.0"},{"group":"hexagon_tri","fractal_assignment":["../images/cyn_red.png","../images/gry_blk.png","../images/ylw_slt.png","../images/pnk_blu.png","../images/blu_wht.png","../images/org_blu.png"],"mutagen_generator_assignment":[1,0],"goal":3,"start":5,"action_noise":0,"location_history":"[5,0,1,5,0,1,5,0,1,5,4,0,5,4,2,3]","action_history":"[1,1,1,1,1,1,1,1,1,0,0,0,0,1,1]","mutagen_history":"[0,0,0,0,0,0,0,0,0,1,1,1,1,0,0]","location_rts":"[18721,1067,293,570,703,1115,668,336,341,2900,106,663,389,513,393]","trial_type":"fractal-mutation","trial_index":54,"time_elapsed":1207597,"internal_node_id":"0.0-5.0-0.0"},{"group":"hexagon_tri","fractal_assignment":["../images/cyn_red.png","../images/gry_blk.png","../images/ylw_slt.png","../images/pnk_blu.png","../images/blu_wht.png","../images/org_blu.png"],"mutagen_generator_assignment":[1,0],"goal":1,"start":3,"action_noise":0,"location_history":"[3,2,1]","action_history":"[0,0]","mutagen_history":"[1,1]","location_rts":"[595,348]","trial_type":"fractal-mutation","trial_index":55,"time_elapsed":1214782,"internal_node_id":"0.0-5.0-1.0"},{"group":"hexagon_tri","fractal_assignment":["../images/cyn_red.png","../images/gry_blk.png","../images/ylw_slt.png","../images/pnk_blu.png","../images/blu_wht.png","../images/org_blu.png"],"mutagen_generator_assignment":[1,0],"goal":0,"start":1,"action_noise":0,"location_history":"[1,5,0]","action_history":"[1,1]","mutagen_history":"[0,0]","location_rts":"[3026,450]","trial_type":"fractal-mutation","trial_index":56,"time_elapsed":1224401,"internal_node_id":"0.0-5.0-2.0"},{"group":"hexagon_tri","fractal_assignment":["../images/cyn_red.png","../images/gry_blk.png","../images/ylw_slt.png","../images/pnk_blu.png","../images/blu_wht.png","../images/org_blu.png"],"mutagen_generator_assignment":[1,0],"goal":3,"start":0,"action_noise":0,"location_history":"[0,5,4,0,5,0,1,3]","action_history":"[0,0,0,0,1,1,0]","mutagen_history":"[1,1,1,1,0,0,1]","location_rts":"[343,1087,1000,761,249,243,399]","trial_type":"fractal-mutation","trial_index":57,"time_elapsed":1240156,"internal_node_id":"0.0-5.0-3.0"},{"group":"hexagon_tri","fractal_assignment":["../images/cyn_red.png","../images/gry_blk.png","../images/ylw_slt.png","../images/pnk_blu.png","../images/blu_wht.png","../images/org_blu.png"],"mutagen_generator_assignment":[1,0],"goal":4,"start":3,"action_noise":0,"location_history":"[3,4]","action_history":"[1]","mutagen_history":"[0]","location_rts":"[251]","trial_type":"fractal-mutation","trial_index":58,"time_elapsed":1245471,"internal_node_id":"0.0-5.0-4.0"},{"group":"hexagon_tri","fractal_assignment":["../images/cyn_red.png","../images/gry_blk.png","../images/ylw_slt.png","../images/pnk_blu.png","../images/blu_wht.png","../images/org_blu.png"],"mutagen_generator_assignment":[1,0],"goal":2,"start":4,"action_noise":0,"location_history":"[4,2]","action_history":"[1]","mutagen_history":"[0]","location_rts":"[431]","trial_type":"fractal-mutation","trial_index":59,"time_elapsed":1250964,"internal_node_id":"0.0-5.0-5.0"},{"group":"hexagon_tri","fractal_assignment":["../images/cyn_red.png","../images/gry_blk.png","../images/ylw_slt.png","../images/pnk_blu.png","../images/blu_wht.png","../images/org_blu.png"],"mutagen_generator_assignment":[1,0],"goal":1,"start":2,"action_noise":0,"location_history":"[2,1]","action_history":"[0]","mutagen_history":"[1]","location_rts":"[1416]","trial_type":"fractal-mutation","trial_index":60,"time_elapsed":1257503,"internal_node_id":"0.0-5.0-6.0"},{"group":"hexagon_tri","fractal_assignment":["../images/cyn_red.png","../images/gry_blk.png","../images/ylw_slt.png","../images/pnk_blu.png","../images/blu_wht.png","../images/org_blu.png"],"mutagen_generator_assignment":[1,0],"goal":5,"start":1,"action_noise":0,"location_history":"[1,5]","action_history":"[1]","mutagen_history":"[0]","location_rts":"[3373]","trial_type":"fractal-mutation","trial_index":61,"time_elapsed":1265947,"internal_node_id":"0.0-5.0-7.0"},{"group":"hexagon_tri","fractal_assignment":["../images/cyn_red.png","../images/gry_blk.png","../images/ylw_slt.png","../images/pnk_blu.png","../images/blu_wht.png","../images/org_blu.png"],"mutagen_generator_assignment":[1,0],"goal":4,"start":5,"action_noise":0,"location_history":"[5,0,5,0,1,5,4]","action_history":"[1,0,1,1,1,0]","mutagen_history":"[0,1,0,0,0,1]","location_rts":"[246,259,214,1775,730,235]","trial_type":"fractal-mutation","trial_index":62,"time_elapsed":1279878,"internal_node_id":"0.0-5.0-8.0"},{"group":"hexagon_tri","fractal_assignment":["../images/cyn_red.png","../images/gry_blk.png","../images/ylw_slt.png","../images/pnk_blu.png","../images/blu_wht.png","../images/org_blu.png"],"mutagen_generator_assignment":[1,0],"goal":2,"start":4,"action_noise":0,"location_history":"[4,2]","action_history":"[1]","mutagen_history":"[0]","location_rts":"[337]","trial_type":"fractal-mutation","trial_index":63,"time_elapsed":1285284,"internal_node_id":"0.0-5.0-9.0"},{"group":"hexagon_tri","fractal_assignment":["../images/cyn_red.png","../images/gry_blk.png","../images/ylw_slt.png","../images/pnk_blu.png","../images/blu_wht.png","../images/org_blu.png"],"mutagen_generator_assignment":[1,0],"goal":0,"start":2,"action_noise":0,"location_history":"[2,3,2,3,4,0]","action_history":"[1,0,1,1,0]","mutagen_history":"[0,1,0,0,1]","location_rts":"[525,121,583,503,2341]","trial_type":"fractal-mutation","trial_index":64,"time_elapsed":1298791,"internal_node_id":"0.0-5.0-10.0"},{"group":"hexagon_tri","fractal_assignment":["../images/cyn_red.png","../images/gry_blk.png","../images/ylw_slt.png","../images/pnk_blu.png","../images/blu_wht.png","../images/org_blu.png"],"mutagen_generator_assignment":[1,0],"goal":1,"start":0,"action_noise":0,"location_history":"[0,1]","action_history":"[1]","mutagen_history":"[0]","location_rts":"[4064]","trial_type":"fractal-mutation","trial_index":65,"time_elapsed":1307919,"internal_node_id":"0.0-5.0-11.0"},{"group":"hexagon_tri","fractal_assignment":["../images/cyn_red.png","../images/gry_blk.png","../images/ylw_slt.png","../images/pnk_blu.png","../images/blu_wht.png","../images/org_blu.png"],"mutagen_generator_assignment":[1,0],"goal":3,"start":1,"action_noise":0,"location_history":"[1,5,4,0,5,4,2,1,3]","action_history":"[1,0,0,0,0,1,0,0]","mutagen_history":"[0,1,1,1,1,0,1,1]","location_rts":"[462,1964,741,3715,2868,336,1045,566]","trial_type":"fractal-mutation","trial_index":66,"time_elapsed":1332443,"internal_node_id":"0.0-5.0-12.0"},{"group":"hexagon_tri","fractal_assignment":["../images/cyn_red.png","../images/gry_blk.png","../images/ylw_slt.png","../images/pnk_blu.png","../images/blu_wht.png","../images/org_blu.png"],"mutagen_generator_assignment":[1,0],"goal":5,"start":3,"action_noise":0,"location_history":"[3,4,2,3,2,3,4,2,3,2,3,2,1,5]","action_history":"[1,1,1,0,1,1,1,1,0,1,0,0,1]","mutagen_history":"[0,0,0,1,0,0,0,0,1,0,1,1,0]","location_rts":"[7220,464,247,146,470,350,267,476,805,268,338,249,218]","trial_type":"fractal-mutation","trial_index":67,"time_elapsed":1361941,"internal_node_id":"0.0-5.0-13.0"},{"group":"hexagon_tri","fractal_assignment":["../images/cyn_red.png","../images/gry_blk.png","../images/ylw_slt.png","../images/pnk_blu.png","../images/blu_wht.png","../images/org_blu.png"],"mutagen_generator_assignment":[1,0],"goal":4,"start":5,"action_noise":0,"location_history":"[5,0,5,0,5,0,5,0,1,5,4]","action_history":"[1,0,1,0,1,0,1,1,1,0]","mutagen_history":"[0,1,0,1,0,1,0,0,0,1]","location_rts":"[306,145,4,1016,1447,66,688,507,337,983]","trial_type":"fractal-mutation","trial_index":68,"time_elapsed":1382284,"internal_node_id":"0.0-5.0-14.0"},{"group":"hexagon_tri","fractal_assignment":["../images/cyn_red.png","../images/gry_blk.png","../images/ylw_slt.png","../images/pnk_blu.png","../images/blu_wht.png","../images/org_blu.png"],"mutagen_generator_assignment":[1,0],"goal":0,"start":4,"action_noise":0,"location_history":"[4,2,1,3,4,2,1,3,4,2,3,4,0]","action_history":"[1,0,0,1,1,0,0,1,1,1,1,0]","mutagen_history":"[0,1,1,0,0,1,1,0,0,0,0,1]","location_rts":"[838,327,362,247,298,304,334,290,443,596,375,68]","trial_type":"fractal-mutation","trial_index":69,"time_elapsed":1403723,"internal_node_id":"0.0-5.0-15.0"},{"group":"hexagon_tri","fractal_assignment":["../images/cyn_red.png","../images/gry_blk.png","../images/ylw_slt.png","../images/pnk_blu.png","../images/blu_wht.png","../images/org_blu.png"],"mutagen_generator_assignment":[1,0],"goal":3,"start":0,"action_noise":0,"location_history":"[0,1,5,4,0,1,5,4,2,3]","action_history":"[1,1,0,0,1,1,0,1,1]","mutagen_history":"[0,0,1,1,0,0,1,0,0]","location_rts":"[7402,249,2111,258,475,351,384,286,318]","trial_type":"fractal-mutation","trial_index":70,"time_elapsed":1429254,"internal_node_id":"0.0-5.0-16.0"},{"group":"hexagon_tri","fractal_assignment":["../images/cyn_red.png","../images/gry_blk.png","../images/ylw_slt.png","../images/pnk_blu.png","../images/blu_wht.png","../images/org_blu.png"],"mutagen_generator_assignment":[1,0],"goal":1,"start":3,"action_noise":0,"location_history":"[3,2,3,4,0,1]","action_history":"[0,1,1,0,1]","mutagen_history":"[1,0,0,1,0]","location_rts":"[1271,114,396,512,470]","trial_type":"fractal-mutation","trial_index":71,"time_elapsed":1441440,"internal_node_id":"0.0-5.0-17.0"},{"group":"hexagon_tri","fractal_assignment":["../images/cyn_red.png","../images/gry_blk.png","../images/ylw_slt.png","../images/pnk_blu.png","../images/blu_wht.png","../images/org_blu.png"],"mutagen_generator_assignment":[1,0],"goal":5,"start":1,"action_noise":0,"location_history":"[1,3,4,2,3,4,0,1,5]","action_history":"[0,1,1,1,1,0,1,1]","mutagen_history":"[1,0,0,0,0,1,0,0]","location_rts":"[1709,1827,1086,790,499,583,500,634]","trial_type":"fractal-mutation","trial_index":72,"time_elapsed":1461663,"internal_node_id":"0.0-5.0-18.0"},{"group":"hexagon_tri","fractal_assignment":["../images/cyn_red.png","../images/gry_blk.png","../images/ylw_slt.png","../images/pnk_blu.png","../images/blu_wht.png","../images/org_blu.png"],"mutagen_generator_assignment":[1,0],"goal":2,"start":5,"action_noise":0,"location_history":"[5,4,2]","action_history":"[0,1]","mutagen_history":"[1,0]","location_rts":"[4092,216]","trial_type":"fractal-mutation","trial_index":73,"time_elapsed":1472123,"internal_node_id":"0.0-5.0-19.0"},{"group":"hexagon_tri","fractal_assignment":["../images/cyn_red.png","../images/gry_blk.png","../images/ylw_slt.png","../images/pnk_blu.png","../images/blu_wht.png","../images/org_blu.png"],"mutagen_generator_assignment":[1,0],"goal":4,"start":2,"action_noise":0,"location_history":"[2,3,2,3,4]","action_history":"[1,0,1,1]","mutagen_history":"[0,1,0,0]","location_rts":"[884,395,1382,395]","trial_type":"fractal-mutation","trial_index":74,"time_elapsed":1483504,"internal_node_id":"0.0-5.0-20.0"},{"group":"hexagon_tri","fractal_assignment":["../images/cyn_red.png","../images/gry_blk.png","../images/ylw_slt.png","../images/pnk_blu.png","../images/blu_wht.png","../images/org_blu.png"],"mutagen_generator_assignment":[1,0],"goal":1,"start":4,"action_noise":0,"location_history":"[4,0,1]","action_history":"[0,1]","mutagen_history":"[1,0]","location_rts":"[622,488]","trial_type":"fractal-mutation","trial_index":75,"time_elapsed":1490778,"internal_node_id":"0.0-5.0-21.0"},{"group":"hexagon_tri","fractal_assignment":["../images/cyn_red.png","../images/gry_blk.png","../images/ylw_slt.png","../images/pnk_blu.png","../images/blu_wht.png","../images/org_blu.png"],"mutagen_generator_assignment":[1,0],"goal":3,"start":1,"action_noise":0,"location_history":"[1,5,4,2,1,5,0,5,4,2,3]","action_history":"[1,0,1,0,1,1,0,0,1,1]","mutagen_history":"[0,1,0,1,0,0,1,1,0,0]","location_rts":"[2246,481,460,1421,391,1073,867,1514,1148,111]","trial_type":"fractal-mutation","trial_index":76,"time_elapsed":1515370,"internal_node_id":"0.0-5.0-22.0"},{"group":"hexagon_tri","fractal_assignment":["../images/cyn_red.png","../images/gry_blk.png","../images/ylw_slt.png","../images/pnk_blu.png","../images/blu_wht.png","../images/org_blu.png"],"mutagen_generator_assignment":[1,0],"goal":2,"start":3,"action_noise":0,"location_history":"[3,2]","action_history":"[0]","mutagen_history":"[1]","location_rts":"[721]","trial_type":"fractal-mutation","trial_index":77,"time_elapsed":1521219,"internal_node_id":"0.0-5.0-23.0"},{"group":"hexagon_tri","fractal_assignment":["../images/cyn_red.png","../images/gry_blk.png","../images/ylw_slt.png","../images/pnk_blu.png","../images/blu_wht.png","../images/org_blu.png"],"mutagen_generator_assignment":[1,0],"goal":0,"start":2,"action_noise":0,"location_history":"[2,3,2,3,2,3,4,0]","action_history":"[1,0,1,0,1,1,0]","mutagen_history":"[0,1,0,1,0,0,1]","location_rts":"[910,267,589,6697,947,219,233]","trial_type":"fractal-mutation","trial_index":78,"time_elapsed":1542680,"internal_node_id":"0.0-5.0-24.0"},{"group":"hexagon_tri","fractal_assignment":["../images/cyn_red.png","../images/gry_blk.png","../images/ylw_slt.png","../images/pnk_blu.png","../images/blu_wht.png","../images/org_blu.png"],"mutagen_generator_assignment":[1,0],"goal":5,"start":0,"action_noise":0,"location_history":"[0,1,3,4,2,3,2,3,4,0,5]","action_history":"[1,0,1,1,1,0,1,1,0,0]","mutagen_history":"[0,1,0,0,0,1,0,0,1,1]","location_rts":"[415,588,188,248,257,290,688,837,611,617]","trial_type":"fractal-mutation","trial_index":79,"time_elapsed":1562250,"internal_node_id":"0.0-5.0-25.0"},{"group":"hexagon_tri","fractal_assignment":["../images/cyn_red.png","../images/gry_blk.png","../images/ylw_slt.png","../images/pnk_blu.png","../images/blu_wht.png","../images/org_blu.png"],"mutagen_generator_assignment":[1,0],"goal":2,"start":5,"action_noise":0,"location_history":"[5,0,5,0,5,0,5,0,1,3,4,0,1,3,4,2]","action_history":"[1,0,1,0,1,0,1,1,0,1,0,1,0,1,1]","mutagen_history":"[0,1,0,1,0,1,0,0,1,0,1,0,1,0,0]","location_rts":"[615,395,483,306,243,349,77,540,1214,772,488,342,250,103,271]","trial_type":"fractal-mutation","trial_index":80,"time_elapsed":1588908,"internal_node_id":"0.0-5.0-26.0"},{"group":"hexagon_tri","fractal_assignment":["../images/cyn_red.png","../images/gry_blk.png","../images/ylw_slt.png","../images/pnk_blu.png","../images/blu_wht.png","../images/org_blu.png"],"mutagen_generator_assignment":[1,0],"goal":3,"start":2,"action_noise":0,"location_history":"[2,3]","action_history":"[1]","mutagen_history":"[0]","location_rts":"[445]","trial_type":"fractal-mutation","trial_index":81,"time_elapsed":1594421,"internal_node_id":"0.0-5.0-27.0"},{"group":"hexagon_tri","fractal_assignment":["../images/cyn_red.png","../images/gry_blk.png","../images/ylw_slt.png","../images/pnk_blu.png","../images/blu_wht.png","../images/org_blu.png"],"mutagen_generator_assignment":[1,0],"goal":0,"start":3,"action_noise":0,"location_history":"[3,2,3,2,3,4,0]","action_history":"[0,1,0,1,1,0]","mutagen_history":"[1,0,1,0,0,1]","location_rts":"[449,392,421,241,333,802]","trial_type":"fractal-mutation","trial_index":82,"time_elapsed":1607569,"internal_node_id":"0.0-5.0-28.0"},{"group":"hexagon_tri","fractal_assignment":["../images/cyn_red.png","../images/gry_blk.png","../images/ylw_slt.png","../images/pnk_blu.png","../images/blu_wht.png","../images/org_blu.png"],"mutagen_generator_assignment":[1,0],"goal":1,"start":0,"action_noise":0,"location_history":"[0,1]","action_history":"[1]","mutagen_history":"[0]","location_rts":"[386]","trial_type":"fractal-mutation","trial_index":83,"time_elapsed":1613028,"internal_node_id":"0.0-5.0-29.0"},{"group":"hexagon_tri","fractal_assignment":["../images/cyn_red.png","../images/gry_blk.png","../images/ylw_slt.png","../images/pnk_blu.png","../images/blu_wht.png","../images/org_blu.png"],"mutagen_generator_assignment":[1,0],"goal":4,"start":1,"action_noise":0,"location_history":"[1,3,4]","action_history":"[0,1]","mutagen_history":"[1,0]","location_rts":"[323,364]","trial_type":"fractal-mutation","trial_index":84,"time_elapsed":1619881,"internal_node_id":"0.0-5.0-30.0"},{"group":"hexagon_tri","fractal_assignment":["../images/cyn_red.png","../images/gry_blk.png","../images/ylw_slt.png","../images/pnk_blu.png","../images/blu_wht.png","../images/org_blu.png"],"mutagen_generator_assignment":[1,0],"goal":5,"start":4,"action_noise":0,"location_history":"[4,2,1,5]","action_history":"[1,0,1]","mutagen_history":"[0,1,0]","location_rts":"[468,273,292]","trial_type":"fractal-mutation","trial_index":85,"time_elapsed":1628152,"internal_node_id":"0.0-5.0-31.0"},{"group":"hexagon_tri","fractal_assignment":["../images/cyn_red.png","../images/gry_blk.png","../images/ylw_slt.png","../images/pnk_blu.png","../images/blu_wht.png","../images/org_blu.png"],"mutagen_generator_assignment":[1,0],"goal":0,"start":5,"action_noise":0,"location_history":"[5,4,2,1,5,0]","action_history":"[0,1,0,1,1]","mutagen_history":"[1,0,1,0,0]","location_rts":"[385,407,305,361,396]","trial_type":"fractal-mutation","trial_index":86,"time_elapsed":1639411,"internal_node_id":"0.0-5.0-32.0"},{"group":"hexagon_tri","fractal_assignment":["../images/cyn_red.png","../images/gry_blk.png","../images/ylw_slt.png","../images/pnk_blu.png","../images/blu_wht.png","../images/org_blu.png"],"mutagen_generator_assignment":[1,0],"goal":3,"start":0,"action_noise":0,"location_history":"[0,5,0,1,5,4,2,3]","action_history":"[0,1,1,1,0,1,1]","mutagen_history":"[1,0,0,0,1,0,0]","location_rts":"[382,689,83,58,893,426,456]","trial_type":"fractal-mutation","trial_index":87,"time_elapsed":1653968,"internal_node_id":"0.0-5.0-33.0"},{"group":"hexagon_tri","fractal_assignment":["../images/cyn_red.png","../images/gry_blk.png","../images/ylw_slt.png","../images/pnk_blu.png","../images/blu_wht.png","../images/org_blu.png"],"mutagen_generator_assignment":[1,0],"goal":1,"start":3,"action_noise":0,"location_history":"[3,2,3,4,0,1]","action_history":"[0,1,1,0,1]","mutagen_history":"[1,0,0,1,0]","location_rts":"[4120,279,2398,809,297]","trial_type":"fractal-mutation","trial_index":88,"time_elapsed":1671294,"internal_node_id":"0.0-5.0-34.0"},{"group":"hexagon_tri","fractal_assignment":["../images/cyn_red.png","../images/gry_blk.png","../images/ylw_slt.png","../images/pnk_blu.png","../images/blu_wht.png","../images/org_blu.png"],"mutagen_generator_assignment":[1,0],"goal":2,"start":1,"action_noise":0,"location_history":"[1,5,4,2]","action_history":"[1,0,1]","mutagen_history":"[0,1,0]","location_rts":"[846,862,512]","trial_type":"fractal-mutation","trial_index":89,"time_elapsed":1680769,"internal_node_id":"0.0-5.0-35.0"},{"group":"hexagon_tri","fractal_assignment":["../images/cyn_red.png","../images/gry_blk.png","../images/ylw_slt.png","../images/pnk_blu.png","../images/blu_wht.png","../images/org_blu.png"],"mutagen_generator_assignment":[1,0],"goal":4,"start":2,"action_noise":0,"location_history":"[2,3,2,3,2,3,4]","action_history":"[1,0,1,0,1,1]","mutagen_history":"[0,1,0,1,0,0]","location_rts":"[726,439,389,551,738,366]","trial_type":"fractal-mutation","trial_index":90,"time_elapsed":1694473,"internal_node_id":"0.0-5.0-36.0"},{"group":"hexagon_tri","fractal_assignment":["../images/cyn_red.png","../images/gry_blk.png","../images/ylw_slt.png","../images/pnk_blu.png","../images/blu_wht.png","../images/org_blu.png"],"mutagen_generator_assignment":[1,0],"goal":5,"start":4,"action_noise":0,"location_history":"[4,0,1,5]","action_history":"[0,1,1]","mutagen_history":"[1,0,0]","location_rts":"[722,616,436]","trial_type":"fractal-mutation","trial_index":91,"time_elapsed":1703472,"internal_node_id":"0.0-5.0-37.0"},{"group":"hexagon_tri","fractal_assignment":["../images/cyn_red.png","../images/gry_blk.png","../images/ylw_slt.png","../images/pnk_blu.png","../images/blu_wht.png","../images/org_blu.png"],"mutagen_generator_assignment":[1,0],"goal":1,"start":5,"action_noise":0,"location_history":"[5,0,5,0,1]","action_history":"[1,0,1,1]","mutagen_history":"[0,1,0,0]","location_rts":"[7072,906,2474,331]","trial_type":"fractal-mutation","trial_index":92,"time_elapsed":1722574,"internal_node_id":"0.0-5.0-38.0"},{"group":"hexagon_tri","fractal_assignment":["../images/cyn_red.png","../images/gry_blk.png","../images/ylw_slt.png","../images/pnk_blu.png","../images/blu_wht.png","../images/org_blu.png"],"mutagen_generator_assignment":[1,0],"goal":4,"start":1,"action_noise":0,"location_history":"[1,3,4]","action_history":"[0,1]","mutagen_history":"[1,0]","location_rts":"[685,178]","trial_type":"fractal-mutation","trial_index":93,"time_elapsed":1729601,"internal_node_id":"0.0-5.0-39.0"},{"group":"hexagon_tri","fractal_assignment":["../images/cyn_red.png","../images/gry_blk.png","../images/ylw_slt.png","../images/pnk_blu.png","../images/blu_wht.png","../images/org_blu.png"],"mutagen_generator_assignment":[1,0],"goal":3,"start":4,"action_noise":0,"location_history":"[4,2,1,5,0,5,0,1,3]","action_history":"[1,0,1,1,0,1,1,0]","mutagen_history":"[0,1,0,0,1,0,0,1]","location_rts":"[4652,345,1694,1267,1255,290,657,829]","trial_type":"fractal-mutation","trial_index":94,"time_elapsed":1753240,"internal_node_id":"0.0-5.0-40.0"},{"group":"hexagon_tri","fractal_assignment":["../images/cyn_red.png","../images/gry_blk.png","../images/ylw_slt.png","../images/pnk_blu.png","../images/blu_wht.png","../images/org_blu.png"],"mutagen_generator_assignment":[1,0],"goal":2,"start":3,"action_noise":0,"location_history":"[3,4,0,1,3,4,2]","action_history":"[1,0,1,0,1,1]","mutagen_history":"[0,1,0,1,0,0]","location_rts":"[5204,396,950,42,2091,0]","trial_type":"fractal-mutation","trial_index":95,"time_elapsed":1772421,"internal_node_id":"0.0-5.0-41.0"},{"group":"hexagon_tri","fractal_assignment":["../images/cyn_red.png","../images/gry_blk.png","../images/ylw_slt.png","../images/pnk_blu.png","../images/blu_wht.png","../images/org_blu.png"],"mutagen_generator_assignment":[1,0],"goal":0,"start":2,"action_noise":0,"location_history":"[2,1,5,0]","action_history":"[0,1,1]","mutagen_history":"[1,0,0]","location_rts":"[701,1508,548]","trial_type":"fractal-mutation","trial_index":96,"time_elapsed":1782423,"internal_node_id":"0.0-5.0-42.0"},{"group":"hexagon_tri","fractal_assignment":["../images/cyn_red.png","../images/gry_blk.png","../images/ylw_slt.png","../images/pnk_blu.png","../images/blu_wht.png","../images/org_blu.png"],"mutagen_generator_assignment":[1,0],"goal":5,"start":0,"action_noise":0,"location_history":"[0,5]","action_history":"[0]","mutagen_history":"[1]","location_rts":"[746]","trial_type":"fractal-mutation","trial_index":97,"time_elapsed":1788274,"internal_node_id":"0.0-5.0-43.0"},{"group":"hexagon_tri","fractal_assignment":["../images/cyn_red.png","../images/gry_blk.png","../images/ylw_slt.png","../images/pnk_blu.png","../images/blu_wht.png","../images/org_blu.png"],"mutagen_generator_assignment":[1,0],"goal":0,"start":5,"action_noise":0,"location_history":"[5,0]","action_history":"[1]","mutagen_history":"[0]","location_rts":"[188]","trial_type":"fractal-mutation","trial_index":98,"time_elapsed":1793539,"internal_node_id":"0.0-5.0-44.0"},{"group":"hexagon_tri","fractal_assignment":["../images/cyn_red.png","../images/gry_blk.png","../images/ylw_slt.png","../images/pnk_blu.png","../images/blu_wht.png","../images/org_blu.png"],"mutagen_generator_assignment":[1,0],"goal":2,"start":0,"action_noise":0,"location_history":"[0,5,0,5,0,5,0,1,5,0,1,5,0,5,0,1,3,4,0,1,3,4,2]","action_history":"[0,1,0,1,0,1,1,1,1,1,1,1,0,1,1,0,1,0,1,0,1,1]","mutagen_history":"[1,0,1,0,1,0,0,0,0,0,0,0,1,0,0,1,0,1,0,1,0,0]","location_rts":"[1038,6913,144,461,339,298,743,619,296,556,853,34,443,234,204,302,237,563,386,85,123,17]","trial_type":"fractal-mutation","trial_index":99,"time_elapsed":1836171,"internal_node_id":"0.0-5.0-45.0"},{"group":"hexagon_tri","fractal_assignment":["../images/cyn_red.png","../images/gry_blk.png","../images/ylw_slt.png","../images/pnk_blu.png","../images/blu_wht.png","../images/org_blu.png"],"mutagen_generator_assignment":[1,0],"goal":4,"start":2,"action_noise":0,"location_history":"[2,3,2,3,2,1,5,4]","action_history":"[1,0,1,0,0,1,0]","mutagen_history":"[0,1,0,1,1,0,1]","location_rts":"[30845,2058,696,36,35,388,417]","trial_type":"fractal-mutation","trial_index":100,"time_elapsed":1882267,"internal_node_id":"0.0-5.0-46.0"},{"group":"hexagon_tri","fractal_assignment":["../images/cyn_red.png","../images/gry_blk.png","../images/ylw_slt.png","../images/pnk_blu.png","../images/blu_wht.png","../images/org_blu.png"],"mutagen_generator_assignment":[1,0],"goal":1,"start":4,"action_noise":0,"location_history":"[4,2,3,2,3,2,3,2,1]","action_history":"[1,1,0,1,0,1,0,0]","mutagen_history":"[0,0,1,0,1,0,1,1]","location_rts":"[1620,499,286,425,471,258,308,348]","trial_type":"fractal-mutation","trial_index":101,"time_elapsed":1899153,"internal_node_id":"0.0-5.0-47.0"},{"group":"hexagon_tri","fractal_assignment":["../images/cyn_red.png","../images/gry_blk.png","../images/ylw_slt.png","../images/pnk_blu.png","../images/blu_wht.png","../images/org_blu.png"],"mutagen_generator_assignment":[1,0],"goal":5,"start":1,"action_noise":0,"location_history":"[1,5]","action_history":"[1]","mutagen_history":"[0]","location_rts":"[377]","trial_type":"fractal-mutation","trial_index":102,"time_elapsed":1904601,"internal_node_id":"0.0-5.0-48.0"},{"group":"hexagon_tri","fractal_assignment":["../images/cyn_red.png","../images/gry_blk.png","../images/ylw_slt.png","../images/pnk_blu.png","../images/blu_wht.png","../images/org_blu.png"],"mutagen_generator_assignment":[1,0],"goal":3,"start":5,"action_noise":0,"location_history":"[5,0,5,0,1,3]","action_history":"[1,0,1,1,0]","mutagen_history":"[0,1,0,0,1]","location_rts":"[704,367,448,435,369]","trial_type":"fractal-mutation","trial_index":103,"time_elapsed":1916336,"internal_node_id":"0.0-5.0-49.0"},{"view_history":"[{\"page_index\":0,\"viewing_time\":3354}]","rt":3354,"trial_type":"instructions","trial_index":104,"time_elapsed":1920690,"internal_node_id":"0.0-6.0"},{"rt":2421,"responses":"{\"Q0\":\"\"}","trial_type":"survey-text","trial_index":105,"time_elapsed":1924117,"internal_node_id":"0.0-7.0"}]