[{"view_history":"[{\"page_index\":0,\"viewing_time\":1329},{\"page_index\":1,\"viewing_time\":1909}]","rt":3238,"trial_type":"instructions","trial_index":0,"time_elapsed":3239,"internal_node_id":"0.0-0.0"},{"view_history":"[{\"page_index\":0,\"viewing_time\":998},{\"page_index\":1,\"viewing_time\":6676}]","rt":7675,"trial_type":"instructions","trial_index":1,"time_elapsed":11915,"internal_node_id":"0.0-1.0"},{"group":"hexagon_tri","room_assignment":["red","grey","green","yellow","purple","blue"],"door_color_assignment":["white","black"],"door_generator_assignment":[1,0],"goal":3,"start":5,"action_noise":0,"location_history":"[5,0,5,4,2,1,3]","action_history":"[1,0,0,1,0,0]","door_history":"[0,1,1,0,1,1]","location_rts":"[3754,747,883,1133,980,666]","trial_type":"two-door-navigation","trial_index":2,"time_elapsed":30120,"internal_node_id":"0.0-2.0-0.0"},{"group":"hexagon_tri","room_assignment":["red","grey","green","yellow","purple","blue"],"door_color_assignment":["white","black"],"door_generator_assignment":[1,0],"goal":1,"start":3,"action_noise":0,"location_history":"[3,4,0,5,4,2,3,4,2,1]","action_history":"[1,0,0,0,1,1,1,1,0]","door_history":"[0,1,1,1,0,0,0,0,1]","location_rts":"[3055,702,486,482,804,309,343,333,517]","trial_type":"two-door-navigation","trial_index":3,"time_elapsed":50220,"internal_node_id":"0.0-2.0-1.0"},{"group":"hexagon_tri","room_assignment":["red","grey","green","yellow","purple","blue"],"door_color_assignment":["white","black"],"door_generator_assignment":[1,0],"goal":0,"start":1,"action_noise":0,"location_history":"[1,5,0]","action_history":"[1,1]","door_history":"[0,0]","location_rts":"[1892,189]","trial_type":"two-door-navigation","trial_index":4,"time_elapsed":58312,"internal_node_id":"0.0-2.0-2.0"},{"group":"hexagon_tri","room_assignment":["red","grey","green","yellow","purple","blue"],"door_color_assignment":["white","black"],"door_generator_assignment":[1,0],"goal":3,"start":0,"action_noise":0,"location_history":"[0,5,4,0,5,0,1,3]","action_history":"[0,0,0,0,1,1,0]","door_history":"[1,1,1,1,0,0,1]","location_rts":"[1916,211,1465,487,291,330,536]","trial_type":"two-door-navigation","trial_index":5,"time_elapsed":74598,"internal_node_id":"0.0-2.0-3.0"},{"group":"hexagon_tri","room_assignment":["red","grey","green","yellow","purple","blue"],"door_color_assignment":["white","black"],"door_generator_assignment":[1,0],"goal":4,"start":3,"action_noise":0,"location_history":"[3,4]","action_history":"[1]","door_history":"[0]","location_rts":"[1317]","trial_type":"two-door-navigation","trial_index":6,"time_elapsed":80924,"internal_node_id":"0.0-2.0-4.0"},{"group":"hexagon_tri","room_assignment":["red","grey","green","yellow","purple","blue"],"door_color_assignment":["white","black"],"door_generator_assignment":[1,0],"goal":2,"start":4,"action_noise":0,"location_history":"[4,0,1,5,0,1,3,4,0,1,5,4,2]","action_history":"[0,1,1,1,1,0,1,0,1,1,0,1]","door_history":"[1,0,0,0,0,1,0,1,0,0,1,0]","location_rts":"[1250,1209,271,397,654,515,329,387,346,500,69,490]","trial_type":"two-door-navigation","trial_index":7,"time_elapsed":103429,"internal_node_id":"0.0-2.0-5.0"},{"group":"hexagon_tri","room_assignment":["red","grey","green","yellow","purple","blue"],"door_color_assignment":["white","black"],"door_generator_assignment":[1,0],"goal":1,"start":2,"action_noise":0,"location_history":"[2,1]","action_history":"[0]","door_history":"[1]","location_rts":"[2062]","trial_type":"two-door-navigation","trial_index":8,"time_elapsed":110501,"internal_node_id":"0.0-2.0-6.0"},{"group":"hexagon_tri","room_assignment":["red","grey","green","yellow","purple","blue"],"door_color_assignment":["white","black"],"door_generator_assignment":[1,0],"goal":5,"start":1,"action_noise":0,"location_history":"[1,5]","action_history":"[1]","door_history":"[0]","location_rts":"[70063]","trial_type":"two-door-navigation","trial_index":9,"time_elapsed":185572,"internal_node_id":"0.0-2.0-7.0"},{"group":"hexagon_tri","room_assignment":["red","grey","green","yellow","purple","blue"],"door_color_assignment":["white","black"],"door_generator_assignment":[1,0],"goal":4,"start":5,"action_noise":0,"location_history":"[5,4]","action_history":"[0]","door_history":"[1]","location_rts":"[4128]","trial_type":"two-door-navigation","trial_index":10,"time_elapsed":194711,"internal_node_id":"0.0-2.0-8.0"},{"group":"hexagon_tri","room_assignment":["red","grey","green","yellow","purple","blue"],"door_color_assignment":["white","black"],"door_generator_assignment":[1,0],"goal":2,"start":4,"action_noise":0,"location_history":"[4,2]","action_history":"[1]","door_history":"[0]","location_rts":"[6014]","trial_type":"two-door-navigation","trial_index":11,"time_elapsed":205735,"internal_node_id":"0.0-2.0-9.0"},{"group":"hexagon_tri","room_assignment":["red","grey","green","yellow","purple","blue"],"door_color_assignment":["white","black"],"door_generator_assignment":[1,0],"goal":0,"start":2,"action_noise":0,"location_history":"[2,3,2,1,3,4,2,1,5,0]","action_history":"[1,0,0,0,1,1,0,1,1]","door_history":"[0,1,1,1,0,0,1,0,0]","location_rts":"[7025,796,689,2254,484,308,887,357,71]","trial_type":"two-door-navigation","trial_index":12,"time_elapsed":231678,"internal_node_id":"0.0-2.0-10.0"},{"group":"hexagon_tri","room_assignment":["red","grey","green","yellow","purple","blue"],"door_color_assignment":["white","black"],"door_generator_assignment":[1,0],"goal":1,"start":0,"action_noise":0,"location_history":"[0,5,0,1]","action_history":"[0,1,1]","door_history":"[1,0,0]","location_rts":"[3832,248,91]","trial_type":"two-door-navigation","trial_index":13,"time_elapsed":242871,"internal_node_id":"0.0-2.0-11.0"},{"group":"hexagon_tri","room_assignment":["red","grey","green","yellow","purple","blue"],"door_color_assignment":["white","black"],"door_generator_assignment":[1,0],"goal":3,"start":1,"action_noise":0,"location_history":"[1,3]","action_history":"[0]","door_history":"[1]","location_rts":"[11054]","trial_type":"two-door-navigation","trial_index":14,"time_elapsed":258932,"internal_node_id":"0.0-2.0-12.0"},{"group":"hexagon_tri","room_assignment":["red","grey","green","yellow","purple","blue"],"door_color_assignment":["white","black"],"door_generator_assignment":[1,0],"goal":5,"start":3,"action_noise":0,"location_history":"[3,2,3,4,0,5]","action_history":"[0,1,1,0,0]","door_history":"[1,0,0,1,1]","location_rts":"[5341,7954,8422,4227,6682]","trial_type":"two-door-navigation","trial_index":15,"time_elapsed":300598,"internal_node_id":"0.0-2.0-13.0"},{"group":"hexagon_tri","room_assignment":["red","grey","green","yellow","purple","blue"],"door_color_assignment":["white","black"],"door_generator_assignment":[1,0],"goal":4,"start":5,"action_noise":0,"location_history":"[5,4]","action_history":"[0]","door_history":"[1]","location_rts":"[4475]","trial_type":"two-door-navigation","trial_index":16,"time_elapsed":310088,"internal_node_id":"0.0-2.0-14.0"},{"group":"hexagon_tri","room_assignment":["red","grey","green","yellow","purple","blue"],"door_color_assignment":["white","black"],"door_generator_assignment":[1,0],"goal":0,"start":4,"action_noise":0,"location_history":"[4,0]","action_history":"[0]","door_history":"[1]","location_rts":"[8387]","trial_type":"two-door-navigation","trial_index":17,"time_elapsed":323481,"internal_node_id":"0.0-2.0-15.0"},{"group":"hexagon_tri","room_assignment":["red","grey","green","yellow","purple","blue"],"door_color_assignment":["white","black"],"door_generator_assignment":[1,0],"goal":3,"start":0,"action_noise":0,"location_history":"[0,1,3]","action_history":"[1,0]","door_history":"[0,1]","location_rts":"[4387,8814]","trial_type":"two-door-navigation","trial_index":18,"time_elapsed":342697,"internal_node_id":"0.0-2.0-16.0"},{"group":"hexagon_tri","room_assignment":["red","grey","green","yellow","purple","blue"],"door_color_assignment":["white","black"],"door_generator_assignment":[1,0],"goal":1,"start":3,"action_noise":0,"location_history":"[3,2,1]","action_history":"[0,0]","door_history":"[1,1]","location_rts":"[7006,207]","trial_type":"two-door-navigation","trial_index":19,"time_elapsed":355922,"internal_node_id":"0.0-2.0-17.0"},{"group":"hexagon_tri","room_assignment":["red","grey","green","yellow","purple","blue"],"door_color_assignment":["white","black"],"door_generator_assignment":[1,0],"goal":5,"start":1,"action_noise":0,"location_history":"[1,5]","action_history":"[1]","door_history":"[0]","location_rts":"[5986]","trial_type":"two-door-navigation","trial_index":20,"time_elapsed":366917,"internal_node_id":"0.0-2.0-18.0"},{"group":"hexagon_tri","room_assignment":["red","grey","green","yellow","purple","blue"],"door_color_assignment":["white","black"],"door_generator_assignment":[1,0],"goal":2,"start":5,"action_noise":0,"location_history":"[5,4,2]","action_history":"[0,1]","door_history":"[1,0]","location_rts":"[4130,115]","trial_type":"two-door-navigation","trial_index":21,"time_elapsed":377175,"internal_node_id":"0.0-2.0-19.0"},{"group":"hexagon_tri","room_assignment":["red","grey","green","yellow","purple","blue"],"door_color_assignment":["white","black"],"door_generator_assignment":[1,0],"goal":4,"start":2,"action_noise":0,"location_history":"[2,3,4]","action_history":"[1,1]","door_history":"[0,0]","location_rts":"[10481,545]","trial_type":"two-door-navigation","trial_index":22,"time_elapsed":394223,"internal_node_id":"0.0-2.0-20.0"},{"group":"hexagon_tri","room_assignment":["red","grey","green","yellow","purple","blue"],"door_color_assignment":["white","black"],"door_generator_assignment":[1,0],"goal":1,"start":4,"action_noise":0,"location_history":"[4,2,1]","action_history":"[1,0]","door_history":"[0,1]","location_rts":"[10764,62]","trial_type":"two-door-navigation","trial_index":23,"time_elapsed":411065,"internal_node_id":"0.0-2.0-21.0"},{"group":"hexagon_tri","room_assignment":["red","grey","green","yellow","purple","blue"],"door_color_assignment":["white","black"],"door_generator_assignment":[1,0],"goal":3,"start":1,"action_noise":0,"location_history":"[1,3]","action_history":"[0]","door_history":"[1]","location_rts":"[1734]","trial_type":"two-door-navigation","trial_index":24,"time_elapsed":417810,"internal_node_id":"0.0-2.0-22.0"},{"group":"hexagon_tri","room_assignment":["red","grey","green","yellow","purple","blue"],"door_color_assignment":["white","black"],"door_generator_assignment":[1,0],"goal":2,"start":3,"action_noise":0,"location_history":"[3,2]","action_history":"[0]","door_history":"[1]","location_rts":"[4183]","trial_type":"two-door-navigation","trial_index":25,"time_elapsed":427004,"internal_node_id":"0.0-2.0-23.0"},{"group":"hexagon_tri","room_assignment":["red","grey","green","yellow","purple","blue"],"door_color_assignment":["white","black"],"door_generator_assignment":[1,0],"goal":0,"start":2,"action_noise":0,"location_history":"[2,1,5,0]","action_history":"[0,1,1]","door_history":"[1,0,0]","location_rts":"[7355,225,125]","trial_type":"two-door-navigation","trial_index":26,"time_elapsed":441742,"internal_node_id":"0.0-2.0-24.0"},{"group":"hexagon_tri","room_assignment":["red","grey","green","yellow","purple","blue"],"door_color_assignment":["white","black"],"door_generator_assignment":[1,0],"goal":5,"start":0,"action_noise":0,"location_history":"[0,5]","action_history":"[0]","door_history":"[1]","location_rts":"[5049]","trial_type":"two-door-navigation","trial_index":27,"time_elapsed":451801,"internal_node_id":"0.0-2.0-25.0"},{"group":"hexagon_tri","room_assignment":["red","grey","green","yellow","purple","blue"],"door_color_assignment":["white","black"],"door_generator_assignment":[1,0],"goal":2,"start":5,"action_noise":0,"location_history":"[5,4,2]","action_history":"[0,1]","door_history":"[1,0]","location_rts":"[5675,23]","trial_type":"two-door-navigation","trial_index":28,"time_elapsed":463512,"internal_node_id":"0.0-2.0-26.0"},{"group":"hexagon_tri","room_assignment":["red","grey","green","yellow","purple","blue"],"door_color_assignment":["white","black"],"door_generator_assignment":[1,0],"goal":3,"start":2,"action_noise":0,"location_history":"[2,3]","action_history":"[1]","door_history":"[0]","location_rts":"[4260]","trial_type":"two-door-navigation","trial_index":29,"time_elapsed":472783,"internal_node_id":"0.0-2.0-27.0"},{"group":"hexagon_tri","room_assignment":["red","grey","green","yellow","purple","blue"],"door_color_assignment":["white","black"],"door_generator_assignment":[1,0],"goal":0,"start":3,"action_noise":0,"location_history":"[3,4,0]","action_history":"[1,0]","door_history":"[0,1]","location_rts":"[3684,464]","trial_type":"two-door-navigation","trial_index":30,"time_elapsed":482950,"internal_node_id":"0.0-2.0-28.0"},{"group":"hexagon_tri","room_assignment":["red","grey","green","yellow","purple","blue"],"door_color_assignment":["white","black"],"door_generator_assignment":[1,0],"goal":1,"start":0,"action_noise":0,"location_history":"[0,5,0,1]","action_history":"[0,1,1]","door_history":"[1,0,0]","location_rts":"[3270,4661,380]","trial_type":"two-door-navigation","trial_index":31,"time_elapsed":498285,"internal_node_id":"0.0-2.0-29.0"},{"group":"hexagon_tri","room_assignment":["red","grey","green","yellow","purple","blue"],"door_color_assignment":["white","black"],"door_generator_assignment":[1,0],"goal":4,"start":1,"action_noise":0,"location_history":"[1,3,4]","action_history":"[0,1]","door_history":"[1,0]","location_rts":"[3572,652]","trial_type":"two-door-navigation","trial_index":32,"time_elapsed":509479,"internal_node_id":"0.0-2.0-30.0"},{"group":"hexagon_tri","room_assignment":["red","grey","green","yellow","purple","blue"],"door_color_assignment":["white","black"],"door_generator_assignment":[1,0],"goal":5,"start":4,"action_noise":0,"location_history":"[4,0,5]","action_history":"[0,0]","door_history":"[1,1]","location_rts":"[15943,313]","trial_type":"two-door-navigation","trial_index":33,"time_elapsed":531761,"internal_node_id":"0.0-2.0-31.0"},{"group":"hexagon_tri","room_assignment":["red","grey","green","yellow","purple","blue"],"door_color_assignment":["white","black"],"door_generator_assignment":[1,0],"goal":0,"start":5,"action_noise":0,"location_history":"[5,0]","action_history":"[1]","door_history":"[0]","location_rts":"[4064]","trial_type":"two-door-navigation","trial_index":34,"time_elapsed":540832,"internal_node_id":"0.0-2.0-32.0"},{"group":"hexagon_tri","room_assignment":["red","grey","green","yellow","purple","blue"],"door_color_assignment":["white","black"],"door_generator_assignment":[1,0],"goal":3,"start":0,"action_noise":0,"location_history":"[0,5,4,2,1,5,0,1,3]","action_history":"[0,0,1,0,1,1,1,0]","door_history":"[1,1,0,1,0,0,0,1]","location_rts":"[1919,2090,3851,609,595,394,972,600]","trial_type":"two-door-navigation","trial_index":35,"time_elapsed":563925,"internal_node_id":"0.0-2.0-33.0"},{"group":"hexagon_tri","room_assignment":["red","grey","green","yellow","purple","blue"],"door_color_assignment":["white","black"],"door_generator_assignment":[1,0],"goal":1,"start":3,"action_noise":0,"location_history":"[3,2,1]","action_history":"[0,0]","door_history":"[1,1]","location_rts":"[2071,699]","trial_type":"two-door-navigation","trial_index":36,"time_elapsed":572710,"internal_node_id":"0.0-2.0-34.0"},{"group":"hexagon_tri","room_assignment":["red","grey","green","yellow","purple","blue"],"door_color_assignment":["white","black"],"door_generator_assignment":[1,0],"goal":2,"start":1,"action_noise":0,"location_history":"[1,3,2]","action_history":"[0,0]","door_history":"[1,1]","location_rts":"[3575,403]","trial_type":"two-door-navigation","trial_index":37,"time_elapsed":582701,"internal_node_id":"0.0-2.0-35.0"},{"group":"hexagon_tri","room_assignment":["red","grey","green","yellow","purple","blue"],"door_color_assignment":["white","black"],"door_generator_assignment":[1,0],"goal":4,"start":2,"action_noise":0,"location_history":"[2,3,4]","action_history":"[1,1]","door_history":"[0,0]","location_rts":"[4076,813]","trial_type":"two-door-navigation","trial_index":38,"time_elapsed":593610,"internal_node_id":"0.0-2.0-36.0"},{"group":"hexagon_tri","room_assignment":["red","grey","green","yellow","purple","blue"],"door_color_assignment":["white","black"],"door_generator_assignment":[1,0],"goal":5,"start":4,"action_noise":0,"location_history":"[4,2,3,2,1,5]","action_history":"[1,1,0,0,1]","door_history":"[0,0,1,1,0]","location_rts":"[2501,331,817,1507,1777]","trial_type":"two-door-navigation","trial_index":39,"time_elapsed":609581,"internal_node_id":"0.0-2.0-37.0"},{"group":"hexagon_tri","room_assignment":["red","grey","green","yellow","purple","blue"],"door_color_assignment":["white","black"],"door_generator_assignment":[1,0],"goal":1,"start":5,"action_noise":0,"location_history":"[5,4,0,1]","action_history":"[0,0,1]","door_history":"[1,1,0]","location_rts":"[4110,1674,1453]","trial_type":"two-door-navigation","trial_index":40,"time_elapsed":623839,"internal_node_id":"0.0-2.0-38.0"},{"group":"hexagon_tri","room_assignment":["red","grey","green","yellow","purple","blue"],"door_color_assignment":["white","black"],"door_generator_assignment":[1,0],"goal":4,"start":1,"action_noise":0,"location_history":"[1,3,4]","action_history":"[0,1]","door_history":"[1,0]","location_rts":"[2168,519]","trial_type":"two-door-navigation","trial_index":41,"time_elapsed":632541,"internal_node_id":"0.0-2.0-39.0"},{"group":"hexagon_tri","room_assignment":["red","grey","green","yellow","purple","blue"],"door_color_assignment":["white","black"],"door_generator_assignment":[1,0],"goal":3,"start":4,"action_noise":0,"location_history":"[4,0,1,5,4,2,3]","action_history":"[0,1,1,0,1,1]","door_history":"[1,0,0,1,0,0]","location_rts":"[1958,369,384,422,1098,369]","trial_type":"two-door-navigation","trial_index":42,"time_elapsed":647198,"internal_node_id":"0.0-2.0-40.0"},{"group":"hexagon_tri","room_assignment":["red","grey","green","yellow","purple","blue"],"door_color_assignment":["white","black"],"door_generator_assignment":[1,0],"goal":2,"start":3,"action_noise":0,"location_history":"[3,2]","action_history":"[0]","door_history":"[1]","location_rts":"[1150]","trial_type":"two-door-navigation","trial_index":43,"time_elapsed":653353,"internal_node_id":"0.0-2.0-41.0"},{"group":"hexagon_tri","room_assignment":["red","grey","green","yellow","purple","blue"],"door_color_assignment":["white","black"],"door_generator_assignment":[1,0],"goal":0,"start":2,"action_noise":0,"location_history":"[2,1,5,0]","action_history":"[0,1,1]","door_history":"[1,0,0]","location_rts":"[1727,1191,15]","trial_type":"two-door-navigation","trial_index":44,"time_elapsed":663305,"internal_node_id":"0.0-2.0-42.0"},{"group":"hexagon_tri","room_assignment":["red","grey","green","yellow","purple","blue"],"door_color_assignment":["white","black"],"door_generator_assignment":[1,0],"goal":5,"start":0,"action_noise":0,"location_history":"[0,5]","action_history":"[0]","door_history":"[1]","location_rts":"[2061]","trial_type":"two-door-navigation","trial_index":45,"time_elapsed":670374,"internal_node_id":"0.0-2.0-43.0"},{"group":"hexagon_tri","room_assignment":["red","grey","green","yellow","purple","blue"],"door_color_assignment":["white","black"],"door_generator_assignment":[1,0],"goal":0,"start":5,"action_noise":0,"location_history":"[5,0]","action_history":"[1]","door_history":"[0]","location_rts":"[2359]","trial_type":"two-door-navigation","trial_index":46,"time_elapsed":677746,"internal_node_id":"0.0-2.0-44.0"},{"group":"hexagon_tri","room_assignment":["red","grey","green","yellow","purple","blue"],"door_color_assignment":["white","black"],"door_generator_assignment":[1,0],"goal":2,"start":0,"action_noise":0,"location_history":"[0,5,4,0,1,5,4,2]","action_history":"[0,0,0,1,1,0,1]","door_history":"[1,1,1,0,0,1,0]","location_rts":"[1674,1268,1165,786,370,247,270]","trial_type":"two-door-navigation","trial_index":47,"time_elapsed":694571,"internal_node_id":"0.0-2.0-45.0"},{"group":"hexagon_tri","room_assignment":["red","grey","green","yellow","purple","blue"],"door_color_assignment":["white","black"],"door_generator_assignment":[1,0],"goal":4,"start":2,"action_noise":0,"location_history":"[2,1,3,4]","action_history":"[0,0,1]","door_history":"[1,1,0]","location_rts":"[1606,1112,413]","trial_type":"two-door-navigation","trial_index":48,"time_elapsed":704731,"internal_node_id":"0.0-2.0-46.0"},{"group":"hexagon_tri","room_assignment":["red","grey","green","yellow","purple","blue"],"door_color_assignment":["white","black"],"door_generator_assignment":[1,0],"goal":1,"start":4,"action_noise":0,"location_history":"[4,2,1]","action_history":"[1,0]","door_history":"[0,1]","location_rts":"[1753,366]","trial_type":"two-door-navigation","trial_index":49,"time_elapsed":712865,"internal_node_id":"0.0-2.0-47.0"},{"group":"hexagon_tri","room_assignment":["red","grey","green","yellow","purple","blue"],"door_color_assignment":["white","black"],"door_generator_assignment":[1,0],"goal":5,"start":1,"action_noise":0,"location_history":"[1,5]","action_history":"[1]","door_history":"[0]","location_rts":"[1529]","trial_type":"two-door-navigation","trial_index":50,"time_elapsed":719402,"internal_node_id":"0.0-2.0-48.0"},{"group":"hexagon_tri","room_assignment":["red","grey","green","yellow","purple","blue"],"door_color_assignment":["white","black"],"door_generator_assignment":[1,0],"goal":3,"start":5,"action_noise":0,"location_history":"[5,4,0,1,5,4,0,1,3]","action_history":"[0,0,1,1,0,0,1,0]","door_history":"[1,1,0,0,1,1,0,1]","location_rts":"[1505,1668,699,416,225,324,388,312]","trial_type":"two-door-navigation","trial_index":51,"time_elapsed":736997,"internal_node_id":"0.0-2.0-49.0"},{"view_history":"[{\"page_index\":0,\"viewing_time\":1030}]","rt":1030,"trial_type":"instructions","trial_index":52,"time_elapsed":739029,"internal_node_id":"0.0-3.0"},{"view_history":"[{\"page_index\":0,\"viewing_time\":1389},{\"page_index\":1,\"viewing_time\":1249}]","rt":2638,"trial_type":"instructions","trial_index":53,"time_elapsed":742668,"internal_node_id":"0.0-4.0"},{"group":"hexagon_bi","fractal_assignment":["../images/blu_wht.png","../images/org_blu.png","../images/cyn_red.png","../images/gry_blk.png","../images/pnk_blu.png","../images/ylw_slt.png"],"mutagen_generator_assignment":[1,0],"goal":3,"start":5,"action_noise":0,"location_history":"[5,0,1,2,3]","action_history":"[0,1,0,1]","mutagen_history":"[1,0,1,0]","location_rts":"[1746,396,259,461]","trial_type":"fractal-mutation","trial_index":54,"time_elapsed":753600,"internal_node_id":"0.0-5.0-0.0"},{"group":"hexagon_bi","fractal_assignment":["../images/blu_wht.png","../images/org_blu.png","../images/cyn_red.png","../images/gry_blk.png","../images/pnk_blu.png","../images/ylw_slt.png"],"mutagen_generator_assignment":[1,0],"goal":1,"start":3,"action_noise":0,"location_history":"[3,4,5,0,1]","action_history":"[0,1,0,1]","mutagen_history":"[1,0,1,0]","location_rts":"[1453,721,992,495]","trial_type":"fractal-mutation","trial_index":55,"time_elapsed":765328,"internal_node_id":"0.0-5.0-1.0"},{"group":"hexagon_bi","fractal_assignment":["../images/blu_wht.png","../images/org_blu.png","../images/cyn_red.png","../images/gry_blk.png","../images/pnk_blu.png","../images/ylw_slt.png"],"mutagen_generator_assignment":[1,0],"goal":0,"start":1,"action_noise":0,"location_history":"[1,0]","action_history":"[1]","mutagen_history":"[0]","location_rts":"[1822]","trial_type":"fractal-mutation","trial_index":56,"time_elapsed":772161,"internal_node_id":"0.0-5.0-2.0"},{"group":"hexagon_bi","fractal_assignment":["../images/blu_wht.png","../images/org_blu.png","../images/cyn_red.png","../images/gry_blk.png","../images/pnk_blu.png","../images/ylw_slt.png"],"mutagen_generator_assignment":[1,0],"goal":3,"start":0,"action_noise":0,"location_history":"[0,5,4,3]","action_history":"[0,1,0]","mutagen_history":"[1,0,1]","location_rts":"[1699,283,196]","trial_type":"fractal-mutation","trial_index":57,"time_elapsed":781389,"internal_node_id":"0.0-5.0-3.0"},{"group":"hexagon_bi","fractal_assignment":["../images/blu_wht.png","../images/org_blu.png","../images/cyn_red.png","../images/gry_blk.png","../images/pnk_blu.png","../images/ylw_slt.png"],"mutagen_generator_assignment":[1,0],"goal":4,"start":3,"action_noise":0,"location_history":"[3,2,3,4]","action_history":"[1,1,0]","mutagen_history":"[0,0,1]","location_rts":"[1391,1735,266]","trial_type":"fractal-mutation","trial_index":58,"time_elapsed":791817,"internal_node_id":"0.0-5.0-4.0"},{"group":"hexagon_bi","fractal_assignment":["../images/blu_wht.png","../images/org_blu.png","../images/cyn_red.png","../images/gry_blk.png","../images/pnk_blu.png","../images/ylw_slt.png"],"mutagen_generator_assignment":[1,0],"goal":2,"start":4,"action_noise":0,"location_history":"[4,5,0,1,2]","action_history":"[1,0,1,0]","mutagen_history":"[0,1,0,1]","location_rts":"[2227,376,251,244]","trial_type":"fractal-mutation","trial_index":59,"time_elapsed":802980,"internal_node_id":"0.0-5.0-5.0"},{"group":"hexagon_bi","fractal_assignment":["../images/blu_wht.png","../images/org_blu.png","../images/cyn_red.png","../images/gry_blk.png","../images/pnk_blu.png","../images/ylw_slt.png"],"mutagen_generator_assignment":[1,0],"goal":1,"start":2,"action_noise":0,"location_history":"[2,1]","action_history":"[0]","mutagen_history":"[1]","location_rts":"[2031]","trial_type":"fractal-mutation","trial_index":60,"time_elapsed":810036,"internal_node_id":"0.0-5.0-6.0"},{"group":"hexagon_bi","fractal_assignment":["../images/blu_wht.png","../images/org_blu.png","../images/cyn_red.png","../images/gry_blk.png","../images/pnk_blu.png","../images/ylw_slt.png"],"mutagen_generator_assignment":[1,0],"goal":5,"start":1,"action_noise":0,"location_history":"[1,2,3,4,5]","action_history":"[0,1,0,1]","mutagen_history":"[1,0,1,0]","location_rts":"[2489,193,220,555]","trial_type":"fractal-mutation","trial_index":61,"time_elapsed":821557,"internal_node_id":"0.0-5.0-7.0"},{"group":"hexagon_bi","fractal_assignment":["../images/blu_wht.png","../images/org_blu.png","../images/cyn_red.png","../images/gry_blk.png","../images/pnk_blu.png","../images/ylw_slt.png"],"mutagen_generator_assignment":[1,0],"goal":4,"start":5,"action_noise":0,"location_history":"[5,4]","action_history":"[1]","mutagen_history":"[0]","location_rts":"[2225]","trial_type":"fractal-mutation","trial_index":62,"time_elapsed":828794,"internal_node_id":"0.0-5.0-8.0"},{"group":"hexagon_bi","fractal_assignment":["../images/blu_wht.png","../images/org_blu.png","../images/cyn_red.png","../images/gry_blk.png","../images/pnk_blu.png","../images/ylw_slt.png"],"mutagen_generator_assignment":[1,0],"goal":2,"start":4,"action_noise":0,"location_history":"[4,3,2]","action_history":"[0,1]","mutagen_history":"[1,0]","location_rts":"[1122,617]","trial_type":"fractal-mutation","trial_index":63,"time_elapsed":836569,"internal_node_id":"0.0-5.0-9.0"},{"group":"hexagon_bi","fractal_assignment":["../images/blu_wht.png","../images/org_blu.png","../images/cyn_red.png","../images/gry_blk.png","../images/pnk_blu.png","../images/ylw_slt.png"],"mutagen_generator_assignment":[1,0],"goal":0,"start":2,"action_noise":0,"location_history":"[2,1,0]","action_history":"[0,1]","mutagen_history":"[1,0]","location_rts":"[2524,633]","trial_type":"fractal-mutation","trial_index":64,"time_elapsed":845760,"internal_node_id":"0.0-5.0-10.0"},{"group":"hexagon_bi","fractal_assignment":["../images/blu_wht.png","../images/org_blu.png","../images/cyn_red.png","../images/gry_blk.png","../images/pnk_blu.png","../images/ylw_slt.png"],"mutagen_generator_assignment":[1,0],"goal":1,"start":0,"action_noise":0,"location_history":"[0,1]","action_history":"[1]","mutagen_history":"[0]","location_rts":"[884]","trial_type":"fractal-mutation","trial_index":65,"time_elapsed":851654,"internal_node_id":"0.0-5.0-11.0"},{"group":"hexagon_bi","fractal_assignment":["../images/blu_wht.png","../images/org_blu.png","../images/cyn_red.png","../images/gry_blk.png","../images/pnk_blu.png","../images/ylw_slt.png"],"mutagen_generator_assignment":[1,0],"goal":3,"start":1,"action_noise":0,"location_history":"[1,2,3]","action_history":"[0,1]","mutagen_history":"[1,0]","location_rts":"[1904,373]","trial_type":"fractal-mutation","trial_index":66,"time_elapsed":859959,"internal_node_id":"0.0-5.0-12.0"},{"group":"hexagon_bi","fractal_assignment":["../images/blu_wht.png","../images/org_blu.png","../images/cyn_red.png","../images/gry_blk.png","../images/pnk_blu.png","../images/ylw_slt.png"],"mutagen_generator_assignment":[1,0],"goal":5,"start":3,"action_noise":0,"location_history":"[3,2,1,0,5]","action_history":"[1,0,1,0]","mutagen_history":"[0,1,0,1]","location_rts":"[2149,517,460,302]","trial_type":"fractal-mutation","trial_index":67,"time_elapsed":871449,"internal_node_id":"0.0-5.0-13.0"},{"group":"hexagon_bi","fractal_assignment":["../images/blu_wht.png","../images/org_blu.png","../images/cyn_red.png","../images/gry_blk.png","../images/pnk_blu.png","../images/ylw_slt.png"],"mutagen_generator_assignment":[1,0],"goal":4,"start":5,"action_noise":0,"location_history":"[5,0,5,4]","action_history":"[0,0,1]","mutagen_history":"[1,1,0]","location_rts":"[828,758,289]","trial_type":"fractal-mutation","trial_index":68,"time_elapsed":880370,"internal_node_id":"0.0-5.0-14.0"},{"group":"hexagon_bi","fractal_assignment":["../images/blu_wht.png","../images/org_blu.png","../images/cyn_red.png","../images/gry_blk.png","../images/pnk_blu.png","../images/ylw_slt.png"],"mutagen_generator_assignment":[1,0],"goal":0,"start":4,"action_noise":0,"location_history":"[4,5,0]","action_history":"[1,0]","mutagen_history":"[0,1]","location_rts":"[2537,227]","trial_type":"fractal-mutation","trial_index":69,"time_elapsed":889161,"internal_node_id":"0.0-5.0-15.0"},{"group":"hexagon_bi","fractal_assignment":["../images/blu_wht.png","../images/org_blu.png","../images/cyn_red.png","../images/gry_blk.png","../images/pnk_blu.png","../images/ylw_slt.png"],"mutagen_generator_assignment":[1,0],"goal":3,"start":0,"action_noise":0,"location_history":"[0,5,4,3]","action_history":"[0,1,0]","mutagen_history":"[1,0,1]","location_rts":"[1222,378,296]","trial_type":"fractal-mutation","trial_index":70,"time_elapsed":898103,"internal_node_id":"0.0-5.0-16.0"},{"group":"hexagon_bi","fractal_assignment":["../images/blu_wht.png","../images/org_blu.png","../images/cyn_red.png","../images/gry_blk.png","../images/pnk_blu.png","../images/ylw_slt.png"],"mutagen_generator_assignment":[1,0],"goal":1,"start":3,"action_noise":0,"location_history":"[3,2,1]","action_history":"[1,0]","mutagen_history":"[0,1]","location_rts":"[2598,320]","trial_type":"fractal-mutation","trial_index":71,"time_elapsed":907046,"internal_node_id":"0.0-5.0-17.0"},{"group":"hexagon_bi","fractal_assignment":["../images/blu_wht.png","../images/org_blu.png","../images/cyn_red.png","../images/gry_blk.png","../images/pnk_blu.png","../images/ylw_slt.png"],"mutagen_generator_assignment":[1,0],"goal":5,"start":1,"action_noise":0,"location_history":"[1,0,5]","action_history":"[1,0]","mutagen_history":"[0,1]","location_rts":"[1685,230]","trial_type":"fractal-mutation","trial_index":72,"time_elapsed":914997,"internal_node_id":"0.0-5.0-18.0"},{"group":"hexagon_bi","fractal_assignment":["../images/blu_wht.png","../images/org_blu.png","../images/cyn_red.png","../images/gry_blk.png","../images/pnk_blu.png","../images/ylw_slt.png"],"mutagen_generator_assignment":[1,0],"goal":2,"start":5,"action_noise":0,"location_history":"[5,4,3,2]","action_history":"[1,0,1]","mutagen_history":"[0,1,0]","location_rts":"[1464,175,509]","trial_type":"fractal-mutation","trial_index":73,"time_elapsed":924176,"internal_node_id":"0.0-5.0-19.0"},{"group":"hexagon_bi","fractal_assignment":["../images/blu_wht.png","../images/org_blu.png","../images/cyn_red.png","../images/gry_blk.png","../images/pnk_blu.png","../images/ylw_slt.png"],"mutagen_generator_assignment":[1,0],"goal":4,"start":2,"action_noise":0,"location_history":"[2,3,4]","action_history":"[1,0]","mutagen_history":"[0,1]","location_rts":"[2348,337]","trial_type":"fractal-mutation","trial_index":74,"time_elapsed":932890,"internal_node_id":"0.0-5.0-20.0"},{"group":"hexagon_bi","fractal_assignment":["../images/blu_wht.png","../images/org_blu.png","../images/cyn_red.png","../images/gry_blk.png","../images/pnk_blu.png","../images/ylw_slt.png"],"mutagen_generator_assignment":[1,0],"goal":1,"start":4,"action_noise":0,"location_history":"[4,5,0,1]","action_history":"[1,0,1]","mutagen_history":"[0,1,0]","location_rts":"[2307,319,154]","trial_type":"fractal-mutation","trial_index":75,"time_elapsed":942703,"internal_node_id":"0.0-5.0-21.0"},{"group":"hexagon_bi","fractal_assignment":["../images/blu_wht.png","../images/org_blu.png","../images/cyn_red.png","../images/gry_blk.png","../images/pnk_blu.png","../images/ylw_slt.png"],"mutagen_generator_assignment":[1,0],"goal":3,"start":1,"action_noise":0,"location_history":"[1,2,3]","action_history":"[0,1]","mutagen_history":"[1,0]","location_rts":"[1964,239]","trial_type":"fractal-mutation","trial_index":76,"time_elapsed":950935,"internal_node_id":"0.0-5.0-22.0"},{"group":"hexagon_bi","fractal_assignment":["../images/blu_wht.png","../images/org_blu.png","../images/cyn_red.png","../images/gry_blk.png","../images/pnk_blu.png","../images/ylw_slt.png"],"mutagen_generator_assignment":[1,0],"goal":2,"start":3,"action_noise":0,"location_history":"[3,2]","action_history":"[1]","mutagen_history":"[0]","location_rts":"[2724]","trial_type":"fractal-mutation","trial_index":77,"time_elapsed":958671,"internal_node_id":"0.0-5.0-23.0"},{"group":"hexagon_bi","fractal_assignment":["../images/blu_wht.png","../images/org_blu.png","../images/cyn_red.png","../images/gry_blk.png","../images/pnk_blu.png","../images/ylw_slt.png"],"mutagen_generator_assignment":[1,0],"goal":0,"start":2,"action_noise":0,"location_history":"[2,3,4,5,0]","action_history":"[1,0,1,0]","mutagen_history":"[0,1,0,1]","location_rts":"[2565,408,305,224]","trial_type":"fractal-mutation","trial_index":78,"time_elapsed":970230,"internal_node_id":"0.0-5.0-24.0"},{"group":"hexagon_bi","fractal_assignment":["../images/blu_wht.png","../images/org_blu.png","../images/cyn_red.png","../images/gry_blk.png","../images/pnk_blu.png","../images/ylw_slt.png"],"mutagen_generator_assignment":[1,0],"goal":5,"start":0,"action_noise":0,"location_history":"[0,5]","action_history":"[0]","mutagen_history":"[1]","location_rts":"[1335]","trial_type":"fractal-mutation","trial_index":79,"time_elapsed":976584,"internal_node_id":"0.0-5.0-25.0"},{"group":"hexagon_bi","fractal_assignment":["../images/blu_wht.png","../images/org_blu.png","../images/cyn_red.png","../images/gry_blk.png","../images/pnk_blu.png","../images/ylw_slt.png"],"mutagen_generator_assignment":[1,0],"goal":2,"start":5,"action_noise":0,"location_history":"[5,4,3,2]","action_history":"[1,0,1]","mutagen_history":"[0,1,0]","location_rts":"[1333,176,611]","trial_type":"fractal-mutation","trial_index":80,"time_elapsed":985733,"internal_node_id":"0.0-5.0-26.0"},{"group":"hexagon_bi","fractal_assignment":["../images/blu_wht.png","../images/org_blu.png","../images/cyn_red.png","../images/gry_blk.png","../images/pnk_blu.png","../images/ylw_slt.png"],"mutagen_generator_assignment":[1,0],"goal":3,"start":2,"action_noise":0,"location_history":"[2,3]","action_history":"[1]","mutagen_history":"[0]","location_rts":"[2168]","trial_type":"fractal-mutation","trial_index":81,"time_elapsed":992910,"internal_node_id":"0.0-5.0-27.0"},{"group":"hexagon_bi","fractal_assignment":["../images/blu_wht.png","../images/org_blu.png","../images/cyn_red.png","../images/gry_blk.png","../images/pnk_blu.png","../images/ylw_slt.png"],"mutagen_generator_assignment":[1,0],"goal":0,"start":3,"action_noise":0,"location_history":"[3,4,5,0]","action_history":"[0,1,0]","mutagen_history":"[1,0,1]","location_rts":"[1087,212,161]","trial_type":"fractal-mutation","trial_index":82,"time_elapsed":1001425,"internal_node_id":"0.0-5.0-28.0"},{"group":"hexagon_bi","fractal_assignment":["../images/blu_wht.png","../images/org_blu.png","../images/cyn_red.png","../images/gry_blk.png","../images/pnk_blu.png","../images/ylw_slt.png"],"mutagen_generator_assignment":[1,0],"goal":1,"start":0,"action_noise":0,"location_history":"[0,1]","action_history":"[1]","mutagen_history":"[0]","location_rts":"[1242]","trial_type":"fractal-mutation","trial_index":83,"time_elapsed":1007678,"internal_node_id":"0.0-5.0-29.0"},{"group":"hexagon_bi","fractal_assignment":["../images/blu_wht.png","../images/org_blu.png","../images/cyn_red.png","../images/gry_blk.png","../images/pnk_blu.png","../images/ylw_slt.png"],"mutagen_generator_assignment":[1,0],"goal":4,"start":1,"action_noise":0,"location_history":"[1,0,5,4]","action_history":"[1,0,1]","mutagen_history":"[0,1,0]","location_rts":"[1487,263,255]","trial_type":"fractal-mutation","trial_index":84,"time_elapsed":1016719,"internal_node_id":"0.0-5.0-30.0"},{"group":"hexagon_bi","fractal_assignment":["../images/blu_wht.png","../images/org_blu.png","../images/cyn_red.png","../images/gry_blk.png","../images/pnk_blu.png","../images/ylw_slt.png"],"mutagen_generator_assignment":[1,0],"goal":5,"start":4,"action_noise":0,"location_history":"[4,5]","action_history":"[1]","mutagen_history":"[0]","location_rts":"[2520]","trial_type":"fractal-mutation","trial_index":85,"time_elapsed":1024245,"internal_node_id":"0.0-5.0-31.0"},{"group":"hexagon_bi","fractal_assignment":["../images/blu_wht.png","../images/org_blu.png","../images/cyn_red.png","../images/gry_blk.png","../images/pnk_blu.png","../images/ylw_slt.png"],"mutagen_generator_assignment":[1,0],"goal":0,"start":5,"action_noise":0,"location_history":"[5,0]","action_history":"[0]","mutagen_history":"[1]","location_rts":"[1815]","trial_type":"fractal-mutation","trial_index":86,"time_elapsed":1031084,"internal_node_id":"0.0-5.0-32.0"},{"group":"hexagon_bi","fractal_assignment":["../images/blu_wht.png","../images/org_blu.png","../images/cyn_red.png","../images/gry_blk.png","../images/pnk_blu.png","../images/ylw_slt.png"],"mutagen_generator_assignment":[1,0],"goal":3,"start":0,"action_noise":0,"location_history":"[0,5,4,3]","action_history":"[0,1,0]","mutagen_history":"[1,0,1]","location_rts":"[2081,207,155]","trial_type":"fractal-mutation","trial_index":87,"time_elapsed":1040565,"internal_node_id":"0.0-5.0-33.0"},{"group":"hexagon_bi","fractal_assignment":["../images/blu_wht.png","../images/org_blu.png","../images/cyn_red.png","../images/gry_blk.png","../images/pnk_blu.png","../images/ylw_slt.png"],"mutagen_generator_assignment":[1,0],"goal":1,"start":3,"action_noise":0,"location_history":"[3,2,1]","action_history":"[1,0]","mutagen_history":"[0,1]","location_rts":"[3225,420]","trial_type":"fractal-mutation","trial_index":88,"time_elapsed":1050253,"internal_node_id":"0.0-5.0-34.0"},{"group":"hexagon_bi","fractal_assignment":["../images/blu_wht.png","../images/org_blu.png","../images/cyn_red.png","../images/gry_blk.png","../images/pnk_blu.png","../images/ylw_slt.png"],"mutagen_generator_assignment":[1,0],"goal":2,"start":1,"action_noise":0,"location_history":"[1,2]","action_history":"[0]","mutagen_history":"[1]","location_rts":"[1766]","trial_type":"fractal-mutation","trial_index":89,"time_elapsed":1057040,"internal_node_id":"0.0-5.0-35.0"},{"group":"hexagon_bi","fractal_assignment":["../images/blu_wht.png","../images/org_blu.png","../images/cyn_red.png","../images/gry_blk.png","../images/pnk_blu.png","../images/ylw_slt.png"],"mutagen_generator_assignment":[1,0],"goal":4,"start":2,"action_noise":0,"location_history":"[2,1,0,5,4]","action_history":"[0,1,0,1]","mutagen_history":"[1,0,1,0]","location_rts":"[2220,347,296,262]","trial_type":"fractal-mutation","trial_index":90,"time_elapsed":1068224,"internal_node_id":"0.0-5.0-36.0"},{"group":"hexagon_bi","fractal_assignment":["../images/blu_wht.png","../images/org_blu.png","../images/cyn_red.png","../images/gry_blk.png","../images/pnk_blu.png","../images/ylw_slt.png"],"mutagen_generator_assignment":[1,0],"goal":5,"start":4,"action_noise":0,"location_history":"[4,3,4,5]","action_history":"[0,0,1]","mutagen_history":"[1,1,0]","location_rts":"[1820,1491,430]","trial_type":"fractal-mutation","trial_index":91,"time_elapsed":1079014,"internal_node_id":"0.0-5.0-37.0"},{"group":"hexagon_bi","fractal_assignment":["../images/blu_wht.png","../images/org_blu.png","../images/cyn_red.png","../images/gry_blk.png","../images/pnk_blu.png","../images/ylw_slt.png"],"mutagen_generator_assignment":[1,0],"goal":1,"start":5,"action_noise":0,"location_history":"[5,0,1]","action_history":"[0,1]","mutagen_history":"[1,0]","location_rts":"[4334,296]","trial_type":"fractal-mutation","trial_index":92,"time_elapsed":1089679,"internal_node_id":"0.0-5.0-38.0"},{"group":"hexagon_bi","fractal_assignment":["../images/blu_wht.png","../images/org_blu.png","../images/cyn_red.png","../images/gry_blk.png","../images/pnk_blu.png","../images/ylw_slt.png"],"mutagen_generator_assignment":[1,0],"goal":4,"start":1,"action_noise":0,"location_history":"[1,0,5,4]","action_history":"[1,0,1]","mutagen_history":"[0,1,0]","location_rts":"[1629,367,219]","trial_type":"fractal-mutation","trial_index":93,"time_elapsed":1098930,"internal_node_id":"0.0-5.0-39.0"},{"group":"hexagon_bi","fractal_assignment":["../images/blu_wht.png","../images/org_blu.png","../images/cyn_red.png","../images/gry_blk.png","../images/pnk_blu.png","../images/ylw_slt.png"],"mutagen_generator_assignment":[1,0],"goal":3,"start":4,"action_noise":0,"location_history":"[4,5,4,3]","action_history":"[1,1,0]","mutagen_history":"[0,0,1]","location_rts":"[2610,1487,308]","trial_type":"fractal-mutation","trial_index":94,"time_elapsed":1110380,"internal_node_id":"0.0-5.0-40.0"},{"group":"hexagon_bi","fractal_assignment":["../images/blu_wht.png","../images/org_blu.png","../images/cyn_red.png","../images/gry_blk.png","../images/pnk_blu.png","../images/ylw_slt.png"],"mutagen_generator_assignment":[1,0],"goal":2,"start":3,"action_noise":0,"location_history":"[3,4,3,2]","action_history":"[0,0,1]","mutagen_history":"[1,1,0]","location_rts":"[2025,1024,259]","trial_type":"fractal-mutation","trial_index":95,"time_elapsed":1120731,"internal_node_id":"0.0-5.0-41.0"},{"group":"hexagon_bi","fractal_assignment":["../images/blu_wht.png","../images/org_blu.png","../images/cyn_red.png","../images/gry_blk.png","../images/pnk_blu.png","../images/ylw_slt.png"],"mutagen_generator_assignment":[1,0],"goal":0,"start":2,"action_noise":0,"location_history":"[2,3,4,5,0]","action_history":"[1,0,1,0]","mutagen_history":"[0,1,0,1]","location_rts":"[1985,285,181,191]","trial_type":"fractal-mutation","trial_index":96,"time_elapsed":1131427,"internal_node_id":"0.0-5.0-42.0"},{"group":"hexagon_bi","fractal_assignment":["../images/blu_wht.png","../images/org_blu.png","../images/cyn_red.png","../images/gry_blk.png","../images/pnk_blu.png","../images/ylw_slt.png"],"mutagen_generator_assignment":[1,0],"goal":5,"start":0,"action_noise":0,"location_history":"[0,5]","action_history":"[0]","mutagen_history":"[1]","location_rts":"[896]","trial_type":"fractal-mutation","trial_index":97,"time_elapsed":1137347,"internal_node_id":"0.0-5.0-43.0"},{"group":"hexagon_bi","fractal_assignment":["../images/blu_wht.png","../images/org_blu.png","../images/cyn_red.png","../images/gry_blk.png","../images/pnk_blu.png","../images/ylw_slt.png"],"mutagen_generator_assignment":[1,0],"goal":0,"start":5,"action_noise":0,"location_history":"[5,0]","action_history":"[0]","mutagen_history":"[1]","location_rts":"[1001]","trial_type":"fractal-mutation","trial_index":98,"time_elapsed":1143369,"internal_node_id":"0.0-5.0-44.0"},{"group":"hexagon_bi","fractal_assignment":["../images/blu_wht.png","../images/org_blu.png","../images/cyn_red.png","../images/gry_blk.png","../images/pnk_blu.png","../images/ylw_slt.png"],"mutagen_generator_assignment":[1,0],"goal":2,"start":0,"action_noise":0,"location_history":"[0,1,2]","action_history":"[1,0]","mutagen_history":"[0,1]","location_rts":"[4467,89]","trial_type":"fractal-mutation","trial_index":99,"time_elapsed":1153955,"internal_node_id":"0.0-5.0-45.0"},{"group":"hexagon_bi","fractal_assignment":["../images/blu_wht.png","../images/org_blu.png","../images/cyn_red.png","../images/gry_blk.png","../images/pnk_blu.png","../images/ylw_slt.png"],"mutagen_generator_assignment":[1,0],"goal":4,"start":2,"action_noise":0,"location_history":"[2,1,0,5,4]","action_history":"[0,1,0,1]","mutagen_history":"[1,0,1,0]","location_rts":"[1737,216,273,187]","trial_type":"fractal-mutation","trial_index":100,"time_elapsed":1164427,"internal_node_id":"0.0-5.0-46.0"},{"group":"hexagon_bi","fractal_assignment":["../images/blu_wht.png","../images/org_blu.png","../images/cyn_red.png","../images/gry_blk.png","../images/pnk_blu.png","../images/ylw_slt.png"],"mutagen_generator_assignment":[1,0],"goal":1,"start":4,"action_noise":0,"location_history":"[4,3,2,1]","action_history":"[0,1,0]","mutagen_history":"[1,0,1]","location_rts":"[2218,516,111]","trial_type":"fractal-mutation","trial_index":101,"time_elapsed":1174320,"internal_node_id":"0.0-5.0-47.0"},{"group":"hexagon_bi","fractal_assignment":["../images/blu_wht.png","../images/org_blu.png","../images/cyn_red.png","../images/gry_blk.png","../images/pnk_blu.png","../images/ylw_slt.png"],"mutagen_generator_assignment":[1,0],"goal":5,"start":1,"action_noise":0,"location_history":"[1,0,5]","action_history":"[1,0]","mutagen_history":"[0,1]","location_rts":"[1309,135]","trial_type":"fractal-mutation","trial_index":102,"time_elapsed":1181795,"internal_node_id":"0.0-5.0-48.0"},{"group":"hexagon_bi","fractal_assignment":["../images/blu_wht.png","../images/org_blu.png","../images/cyn_red.png","../images/gry_blk.png","../images/pnk_blu.png","../images/ylw_slt.png"],"mutagen_generator_assignment":[1,0],"goal":3,"start":5,"action_noise":0,"location_history":"[5,4,3]","action_history":"[1,0]","mutagen_history":"[0,1]","location_rts":"[2378,156]","trial_type":"fractal-mutation","trial_index":103,"time_elapsed":1190356,"internal_node_id":"0.0-5.0-49.0"},{"view_history":"[{\"page_index\":0,\"viewing_time\":2596}]","rt":2596,"trial_type":"instructions","trial_index":104,"time_elapsed":1193952,"internal_node_id":"0.0-6.0"},{"rt":1413,"responses":"{\"Q0\":\"\"}","trial_type":"survey-text","trial_index":105,"time_elapsed":1196369,"internal_node_id":"0.0-7.0"}]