[{"view_history":"[{\"page_index\":0,\"viewing_time\":4078},{\"page_index\":1,\"viewing_time\":10940}]","rt":15020,"trial_type":"instructions","trial_index":0,"time_elapsed":15020,"internal_node_id":"0.0-0.0"},{"view_history":"[{\"page_index\":0,\"viewing_time\":5630},{\"page_index\":1,\"viewing_time\":20246}]","rt":25876,"trial_type":"instructions","trial_index":1,"time_elapsed":41906,"internal_node_id":"0.0-1.0"},{"group":"hexagon_tri","room_assignment":["yellow","green","blue","grey","red","purple"],"door_color_assignment":["white","black"],"door_generator_assignment":[1,0],"goal":3,"start":5,"action_noise":0,"location_history":"[5,4,2,3]","action_history":"[0,1,1]","door_history":"[1,0,0]","location_rts":"[3250,924,744]","trial_type":"two-door-navigation","trial_index":2,"time_elapsed":54256,"internal_node_id":"0.0-2.0-0.0"},{"group":"hexagon_tri","room_assignment":["yellow","green","blue","grey","red","purple"],"door_color_assignment":["white","black"],"door_generator_assignment":[1,0],"goal":1,"start":3,"action_noise":0,"location_history":"[3,2,1]","action_history":"[0,0]","door_history":"[1,1]","location_rts":"[2992,2248]","trial_type":"two-door-navigation","trial_index":3,"time_elapsed":65750,"internal_node_id":"0.0-2.0-1.0"},{"group":"hexagon_tri","room_assignment":["yellow","green","blue","grey","red","purple"],"door_color_assignment":["white","black"],"door_generator_assignment":[1,0],"goal":0,"start":1,"action_noise":0,"location_history":"[1,5,0]","action_history":"[1,1]","door_history":"[0,0]","location_rts":"[2550,620]","trial_type":"two-door-navigation","trial_index":4,"time_elapsed":75174,"internal_node_id":"0.0-2.0-2.0"},{"group":"hexagon_tri","room_assignment":["yellow","green","blue","grey","red","purple"],"door_color_assignment":["white","black"],"door_generator_assignment":[1,0],"goal":3,"start":0,"action_noise":0,"location_history":"[0,1,5,4,2,3]","action_history":"[1,1,0,1,1]","door_history":"[0,0,1,0,0]","location_rts":"[5748,3596,660,1410,592]","trial_type":"two-door-navigation","trial_index":5,"time_elapsed":96676,"internal_node_id":"0.0-2.0-3.0"},{"group":"hexagon_tri","room_assignment":["yellow","green","blue","grey","red","purple"],"door_color_assignment":["white","black"],"door_generator_assignment":[1,0],"goal":4,"start":3,"action_noise":0,"location_history":"[3,4]","action_history":"[1]","door_history":"[0]","location_rts":"[5760]","trial_type":"two-door-navigation","trial_index":6,"time_elapsed":107528,"internal_node_id":"0.0-2.0-4.0"},{"group":"hexagon_tri","room_assignment":["yellow","green","blue","grey","red","purple"],"door_color_assignment":["white","black"],"door_generator_assignment":[1,0],"goal":2,"start":4,"action_noise":0,"location_history":"[4,0,1,5,0,5,4,2]","action_history":"[0,1,1,1,0,0,1]","door_history":"[1,0,0,0,1,1,0]","location_rts":"[4834,1406,448,1624,530,962,712]","trial_type":"two-door-navigation","trial_index":7,"time_elapsed":129736,"internal_node_id":"0.0-2.0-5.0"},{"group":"hexagon_tri","room_assignment":["yellow","green","blue","grey","red","purple"],"door_color_assignment":["white","black"],"door_generator_assignment":[1,0],"goal":1,"start":2,"action_noise":0,"location_history":"[2,3,2,3,4,0,1]","action_history":"[1,0,1,1,0,1]","door_history":"[0,1,0,0,1,0]","location_rts":"[21610,2182,1604,538,970,1790]","trial_type":"two-door-navigation","trial_index":8,"time_elapsed":169142,"internal_node_id":"0.0-2.0-6.0"},{"group":"hexagon_tri","room_assignment":["yellow","green","blue","grey","red","purple"],"door_color_assignment":["white","black"],"door_generator_assignment":[1,0],"goal":5,"start":1,"action_noise":0,"location_history":"[1,5]","action_history":"[1]","door_history":"[0]","location_rts":"[8442]","trial_type":"two-door-navigation","trial_index":9,"time_elapsed":182668,"internal_node_id":"0.0-2.0-7.0"},{"group":"hexagon_tri","room_assignment":["yellow","green","blue","grey","red","purple"],"door_color_assignment":["white","black"],"door_generator_assignment":[1,0],"goal":4,"start":5,"action_noise":0,"location_history":"[5,4]","action_history":"[0]","door_history":"[1]","location_rts":"[2850]","trial_type":"two-door-navigation","trial_index":10,"time_elapsed":190652,"internal_node_id":"0.0-2.0-8.0"},{"group":"hexagon_tri","room_assignment":["yellow","green","blue","grey","red","purple"],"door_color_assignment":["white","black"],"door_generator_assignment":[1,0],"goal":2,"start":4,"action_noise":0,"location_history":"[4,0,1,5,4,2]","action_history":"[0,1,1,0,1]","door_history":"[1,0,0,1,0]","location_rts":"[4282,918,460,1028,2218]","trial_type":"two-door-navigation","trial_index":11,"time_elapsed":209148,"internal_node_id":"0.0-2.0-9.0"},{"group":"hexagon_tri","room_assignment":["yellow","green","blue","grey","red","purple"],"door_color_assignment":["white","black"],"door_generator_assignment":[1,0],"goal":0,"start":2,"action_noise":0,"location_history":"[2,3,4,0]","action_history":"[1,1,0]","door_history":"[0,0,1]","location_rts":"[3172,538,1034]","trial_type":"two-door-navigation","trial_index":12,"time_elapsed":221278,"internal_node_id":"0.0-2.0-10.0"},{"group":"hexagon_tri","room_assignment":["yellow","green","blue","grey","red","purple"],"door_color_assignment":["white","black"],"door_generator_assignment":[1,0],"goal":1,"start":0,"action_noise":0,"location_history":"[0,5,0,1]","action_history":"[0,1,1]","door_history":"[1,0,0]","location_rts":"[2560,780,418]","trial_type":"two-door-navigation","trial_index":13,"time_elapsed":232328,"internal_node_id":"0.0-2.0-11.0"},{"group":"hexagon_tri","room_assignment":["yellow","green","blue","grey","red","purple"],"door_color_assignment":["white","black"],"door_generator_assignment":[1,0],"goal":3,"start":1,"action_noise":0,"location_history":"[1,5,0,5,4,2,3]","action_history":"[1,1,0,0,1,1]","door_history":"[0,0,1,1,0,0]","location_rts":"[2614,454,862,1318,694,406]","trial_type":"two-door-navigation","trial_index":14,"time_elapsed":249284,"internal_node_id":"0.0-2.0-12.0"},{"group":"hexagon_tri","room_assignment":["yellow","green","blue","grey","red","purple"],"door_color_assignment":["white","black"],"door_generator_assignment":[1,0],"goal":5,"start":3,"action_noise":0,"location_history":"[3,2,3,4,0,1,5]","action_history":"[0,1,1,0,1,1]","door_history":"[1,0,0,1,0,0]","location_rts":"[2390,560,440,1330,516,470]","trial_type":"two-door-navigation","trial_index":15,"time_elapsed":265680,"internal_node_id":"0.0-2.0-13.0"},{"group":"hexagon_tri","room_assignment":["yellow","green","blue","grey","red","purple"],"door_color_assignment":["white","black"],"door_generator_assignment":[1,0],"goal":4,"start":5,"action_noise":0,"location_history":"[5,4]","action_history":"[0]","door_history":"[1]","location_rts":"[4388]","trial_type":"two-door-navigation","trial_index":16,"time_elapsed":275232,"internal_node_id":"0.0-2.0-14.0"},{"group":"hexagon_tri","room_assignment":["yellow","green","blue","grey","red","purple"],"door_color_assignment":["white","black"],"door_generator_assignment":[1,0],"goal":0,"start":4,"action_noise":0,"location_history":"[4,0]","action_history":"[0]","door_history":"[1]","location_rts":"[2048]","trial_type":"two-door-navigation","trial_index":17,"time_elapsed":282450,"internal_node_id":"0.0-2.0-15.0"},{"group":"hexagon_tri","room_assignment":["yellow","green","blue","grey","red","purple"],"door_color_assignment":["white","black"],"door_generator_assignment":[1,0],"goal":3,"start":0,"action_noise":0,"location_history":"[0,1,5,4,2,3]","action_history":"[1,1,0,1,1]","door_history":"[0,0,1,0,0]","location_rts":"[4310,454,774,468,414]","trial_type":"two-door-navigation","trial_index":18,"time_elapsed":298442,"internal_node_id":"0.0-2.0-16.0"},{"group":"hexagon_tri","room_assignment":["yellow","green","blue","grey","red","purple"],"door_color_assignment":["white","black"],"door_generator_assignment":[1,0],"goal":1,"start":3,"action_noise":0,"location_history":"[3,2,3,4,0,1]","action_history":"[0,1,1,0,1]","door_history":"[1,0,0,1,0]","location_rts":"[3402,822,600,674,594]","trial_type":"two-door-navigation","trial_index":19,"time_elapsed":314054,"internal_node_id":"0.0-2.0-17.0"},{"group":"hexagon_tri","room_assignment":["yellow","green","blue","grey","red","purple"],"door_color_assignment":["white","black"],"door_generator_assignment":[1,0],"goal":5,"start":1,"action_noise":0,"location_history":"[1,5]","action_history":"[1]","door_history":"[0]","location_rts":"[3120]","trial_type":"two-door-navigation","trial_index":20,"time_elapsed":322298,"internal_node_id":"0.0-2.0-18.0"},{"group":"hexagon_tri","room_assignment":["yellow","green","blue","grey","red","purple"],"door_color_assignment":["white","black"],"door_generator_assignment":[1,0],"goal":2,"start":5,"action_noise":0,"location_history":"[5,4,0,1,5,0,5,4,2]","action_history":"[0,0,1,1,1,0,0,1]","door_history":"[1,1,0,0,0,1,1,0]","location_rts":"[3204,1286,2026,458,458,440,772,1932]","trial_type":"two-door-navigation","trial_index":21,"time_elapsed":345670,"internal_node_id":"0.0-2.0-19.0"},{"group":"hexagon_tri","room_assignment":["yellow","green","blue","grey","red","purple"],"door_color_assignment":["white","black"],"door_generator_assignment":[1,0],"goal":4,"start":2,"action_noise":0,"location_history":"[2,1,3,2,1,5,0,5,4]","action_history":"[0,0,0,0,1,1,0,0]","door_history":"[1,1,1,1,0,0,1,1]","location_rts":"[2990,2648,1012,832,474,476,420,1118]","trial_type":"two-door-navigation","trial_index":22,"time_elapsed":368542,"internal_node_id":"0.0-2.0-20.0"},{"group":"hexagon_tri","room_assignment":["yellow","green","blue","grey","red","purple"],"door_color_assignment":["white","black"],"door_generator_assignment":[1,0],"goal":1,"start":4,"action_noise":0,"location_history":"[4,2,3,2,1]","action_history":"[1,1,0,0]","door_history":"[0,0,1,1]","location_rts":"[4546,606,840,904]","trial_type":"two-door-navigation","trial_index":23,"time_elapsed":383826,"internal_node_id":"0.0-2.0-21.0"},{"group":"hexagon_tri","room_assignment":["yellow","green","blue","grey","red","purple"],"door_color_assignment":["white","black"],"door_generator_assignment":[1,0],"goal":3,"start":1,"action_noise":0,"location_history":"[1,5,4,2,3]","action_history":"[1,0,1,1]","door_history":"[0,1,0,0]","location_rts":"[2372,1814,742,544]","trial_type":"two-door-navigation","trial_index":24,"time_elapsed":397748,"internal_node_id":"0.0-2.0-22.0"},{"group":"hexagon_tri","room_assignment":["yellow","green","blue","grey","red","purple"],"door_color_assignment":["white","black"],"door_generator_assignment":[1,0],"goal":2,"start":3,"action_noise":0,"location_history":"[3,4,2]","action_history":"[1,1]","door_history":"[0,0]","location_rts":"[6566,524]","trial_type":"two-door-navigation","trial_index":25,"time_elapsed":411068,"internal_node_id":"0.0-2.0-23.0"},{"group":"hexagon_tri","room_assignment":["yellow","green","blue","grey","red","purple"],"door_color_assignment":["white","black"],"door_generator_assignment":[1,0],"goal":0,"start":2,"action_noise":0,"location_history":"[2,3,2,1,5,0]","action_history":"[1,0,0,1,1]","door_history":"[0,1,1,0,0]","location_rts":"[1368,3130,994,1104,430]","trial_type":"two-door-navigation","trial_index":26,"time_elapsed":427662,"internal_node_id":"0.0-2.0-24.0"},{"group":"hexagon_tri","room_assignment":["yellow","green","blue","grey","red","purple"],"door_color_assignment":["white","black"],"door_generator_assignment":[1,0],"goal":5,"start":0,"action_noise":0,"location_history":"[0,5]","action_history":"[0]","door_history":"[1]","location_rts":"[5186]","trial_type":"two-door-navigation","trial_index":27,"time_elapsed":437940,"internal_node_id":"0.0-2.0-25.0"},{"group":"hexagon_tri","room_assignment":["yellow","green","blue","grey","red","purple"],"door_color_assignment":["white","black"],"door_generator_assignment":[1,0],"goal":2,"start":5,"action_noise":0,"location_history":"[5,4,2]","action_history":"[0,1]","door_history":"[1,0]","location_rts":"[2706,1326]","trial_type":"two-door-navigation","trial_index":28,"time_elapsed":448232,"internal_node_id":"0.0-2.0-26.0"},{"group":"hexagon_tri","room_assignment":["yellow","green","blue","grey","red","purple"],"door_color_assignment":["white","black"],"door_generator_assignment":[1,0],"goal":3,"start":2,"action_noise":0,"location_history":"[2,3]","action_history":"[1]","door_history":"[0]","location_rts":"[4886]","trial_type":"two-door-navigation","trial_index":29,"time_elapsed":458208,"internal_node_id":"0.0-2.0-27.0"},{"group":"hexagon_tri","room_assignment":["yellow","green","blue","grey","red","purple"],"door_color_assignment":["white","black"],"door_generator_assignment":[1,0],"goal":0,"start":3,"action_noise":0,"location_history":"[3,2,1,5,0]","action_history":"[0,0,1,1]","door_history":"[1,1,0,0]","location_rts":"[2620,868,808,420]","trial_type":"two-door-navigation","trial_index":30,"time_elapsed":471364,"internal_node_id":"0.0-2.0-28.0"},{"group":"hexagon_tri","room_assignment":["yellow","green","blue","grey","red","purple"],"door_color_assignment":["white","black"],"door_generator_assignment":[1,0],"goal":1,"start":0,"action_noise":0,"location_history":"[0,5,0,1]","action_history":"[0,1,1]","door_history":"[1,0,0]","location_rts":"[3936,924,404]","trial_type":"two-door-navigation","trial_index":31,"time_elapsed":483988,"internal_node_id":"0.0-2.0-29.0"},{"group":"hexagon_tri","room_assignment":["yellow","green","blue","grey","red","purple"],"door_color_assignment":["white","black"],"door_generator_assignment":[1,0],"goal":4,"start":1,"action_noise":0,"location_history":"[1,3,4]","action_history":"[0,1]","door_history":"[1,0]","location_rts":"[2114,1038]","trial_type":"two-door-navigation","trial_index":32,"time_elapsed":493356,"internal_node_id":"0.0-2.0-30.0"},{"group":"hexagon_tri","room_assignment":["yellow","green","blue","grey","red","purple"],"door_color_assignment":["white","black"],"door_generator_assignment":[1,0],"goal":5,"start":4,"action_noise":0,"location_history":"[4,0,1,5]","action_history":"[0,1,1]","door_history":"[1,0,0]","location_rts":"[3262,644,490]","trial_type":"two-door-navigation","trial_index":33,"time_elapsed":505124,"internal_node_id":"0.0-2.0-31.0"},{"group":"hexagon_tri","room_assignment":["yellow","green","blue","grey","red","purple"],"door_color_assignment":["white","black"],"door_generator_assignment":[1,0],"goal":0,"start":5,"action_noise":0,"location_history":"[5,0]","action_history":"[1]","door_history":"[0]","location_rts":"[1968]","trial_type":"two-door-navigation","trial_index":34,"time_elapsed":512218,"internal_node_id":"0.0-2.0-32.0"},{"group":"hexagon_tri","room_assignment":["yellow","green","blue","grey","red","purple"],"door_color_assignment":["white","black"],"door_generator_assignment":[1,0],"goal":3,"start":0,"action_noise":0,"location_history":"[0,5,4,2,3]","action_history":"[0,0,1,1]","door_history":"[1,1,0,0]","location_rts":"[2090,1358,576,462]","trial_type":"two-door-navigation","trial_index":35,"time_elapsed":525146,"internal_node_id":"0.0-2.0-33.0"},{"group":"hexagon_tri","room_assignment":["yellow","green","blue","grey","red","purple"],"door_color_assignment":["white","black"],"door_generator_assignment":[1,0],"goal":1,"start":3,"action_noise":0,"location_history":"[3,2,1]","action_history":"[0,0]","door_history":"[1,1]","location_rts":"[2676,1534]","trial_type":"two-door-navigation","trial_index":36,"time_elapsed":535506,"internal_node_id":"0.0-2.0-34.0"},{"group":"hexagon_tri","room_assignment":["yellow","green","blue","grey","red","purple"],"door_color_assignment":["white","black"],"door_generator_assignment":[1,0],"goal":2,"start":1,"action_noise":0,"location_history":"[1,3,4,2]","action_history":"[0,1,1]","door_history":"[1,0,0]","location_rts":"[4444,478,448]","trial_type":"two-door-navigation","trial_index":37,"time_elapsed":548214,"internal_node_id":"0.0-2.0-35.0"},{"group":"hexagon_tri","room_assignment":["yellow","green","blue","grey","red","purple"],"door_color_assignment":["white","black"],"door_generator_assignment":[1,0],"goal":4,"start":2,"action_noise":0,"location_history":"[2,3,4]","action_history":"[1,1]","door_history":"[0,0]","location_rts":"[4762,476]","trial_type":"two-door-navigation","trial_index":38,"time_elapsed":559644,"internal_node_id":"0.0-2.0-36.0"},{"group":"hexagon_tri","room_assignment":["yellow","green","blue","grey","red","purple"],"door_color_assignment":["white","black"],"door_generator_assignment":[1,0],"goal":5,"start":4,"action_noise":0,"location_history":"[4,0,1,5]","action_history":"[0,1,1]","door_history":"[1,0,0]","location_rts":"[3644,622,368]","trial_type":"two-door-navigation","trial_index":39,"time_elapsed":571620,"internal_node_id":"0.0-2.0-37.0"},{"group":"hexagon_tri","room_assignment":["yellow","green","blue","grey","red","purple"],"door_color_assignment":["white","black"],"door_generator_assignment":[1,0],"goal":1,"start":5,"action_noise":0,"location_history":"[5,0,1]","action_history":"[1,1]","door_history":"[0,0]","location_rts":"[2184,452]","trial_type":"two-door-navigation","trial_index":40,"time_elapsed":580500,"internal_node_id":"0.0-2.0-38.0"},{"group":"hexagon_tri","room_assignment":["yellow","green","blue","grey","red","purple"],"door_color_assignment":["white","black"],"door_generator_assignment":[1,0],"goal":4,"start":1,"action_noise":0,"location_history":"[1,3,4]","action_history":"[0,1]","door_history":"[1,0]","location_rts":"[21290,686]","trial_type":"two-door-navigation","trial_index":41,"time_elapsed":608772,"internal_node_id":"0.0-2.0-39.0"},{"group":"hexagon_tri","room_assignment":["yellow","green","blue","grey","red","purple"],"door_color_assignment":["white","black"],"door_generator_assignment":[1,0],"goal":3,"start":4,"action_noise":0,"location_history":"[4,2,3]","action_history":"[1,1]","door_history":"[0,0]","location_rts":"[2650,408]","trial_type":"two-door-navigation","trial_index":42,"time_elapsed":618108,"internal_node_id":"0.0-2.0-40.0"},{"group":"hexagon_tri","room_assignment":["yellow","green","blue","grey","red","purple"],"door_color_assignment":["white","black"],"door_generator_assignment":[1,0],"goal":2,"start":3,"action_noise":0,"location_history":"[3,2]","action_history":"[0]","door_history":"[1]","location_rts":"[2188]","trial_type":"two-door-navigation","trial_index":43,"time_elapsed":625442,"internal_node_id":"0.0-2.0-41.0"},{"group":"hexagon_tri","room_assignment":["yellow","green","blue","grey","red","purple"],"door_color_assignment":["white","black"],"door_generator_assignment":[1,0],"goal":0,"start":2,"action_noise":0,"location_history":"[2,1,5,0]","action_history":"[0,1,1]","door_history":"[1,0,0]","location_rts":"[2584,1138,432]","trial_type":"two-door-navigation","trial_index":44,"time_elapsed":636898,"internal_node_id":"0.0-2.0-42.0"},{"group":"hexagon_tri","room_assignment":["yellow","green","blue","grey","red","purple"],"door_color_assignment":["white","black"],"door_generator_assignment":[1,0],"goal":5,"start":0,"action_noise":0,"location_history":"[0,1,5]","action_history":"[1,1]","door_history":"[0,0]","location_rts":"[3354,474]","trial_type":"two-door-navigation","trial_index":45,"time_elapsed":646992,"internal_node_id":"0.0-2.0-43.0"},{"group":"hexagon_tri","room_assignment":["yellow","green","blue","grey","red","purple"],"door_color_assignment":["white","black"],"door_generator_assignment":[1,0],"goal":0,"start":5,"action_noise":0,"location_history":"[5,0]","action_history":"[1]","door_history":"[0]","location_rts":"[2002]","trial_type":"two-door-navigation","trial_index":46,"time_elapsed":654136,"internal_node_id":"0.0-2.0-44.0"},{"group":"hexagon_tri","room_assignment":["yellow","green","blue","grey","red","purple"],"door_color_assignment":["white","black"],"door_generator_assignment":[1,0],"goal":2,"start":0,"action_noise":0,"location_history":"[0,5,4,2]","action_history":"[0,0,1]","door_history":"[1,1,0]","location_rts":"[2196,1508,688]","trial_type":"two-door-navigation","trial_index":47,"time_elapsed":665864,"internal_node_id":"0.0-2.0-45.0"},{"group":"hexagon_tri","room_assignment":["yellow","green","blue","grey","red","purple"],"door_color_assignment":["white","black"],"door_generator_assignment":[1,0],"goal":4,"start":2,"action_noise":0,"location_history":"[2,3,4]","action_history":"[1,1]","door_history":"[0,0]","location_rts":"[2264,734]","trial_type":"two-door-navigation","trial_index":48,"time_elapsed":675060,"internal_node_id":"0.0-2.0-46.0"},{"group":"hexagon_tri","room_assignment":["yellow","green","blue","grey","red","purple"],"door_color_assignment":["white","black"],"door_generator_assignment":[1,0],"goal":1,"start":4,"action_noise":0,"location_history":"[4,0,1]","action_history":"[0,1]","door_history":"[1,0]","location_rts":"[3010,724]","trial_type":"two-door-navigation","trial_index":49,"time_elapsed":684988,"internal_node_id":"0.0-2.0-47.0"},{"group":"hexagon_tri","room_assignment":["yellow","green","blue","grey","red","purple"],"door_color_assignment":["white","black"],"door_generator_assignment":[1,0],"goal":5,"start":1,"action_noise":0,"location_history":"[1,5]","action_history":"[1]","door_history":"[0]","location_rts":"[1314]","trial_type":"two-door-navigation","trial_index":50,"time_elapsed":691444,"internal_node_id":"0.0-2.0-48.0"},{"group":"hexagon_tri","room_assignment":["yellow","green","blue","grey","red","purple"],"door_color_assignment":["white","black"],"door_generator_assignment":[1,0],"goal":3,"start":5,"action_noise":0,"location_history":"[5,4,2,3]","action_history":"[0,1,1]","door_history":"[1,0,0]","location_rts":"[1854,558,522]","trial_type":"two-door-navigation","trial_index":51,"time_elapsed":701688,"internal_node_id":"0.0-2.0-49.0"},{"view_history":"[{\"page_index\":0,\"viewing_time\":1320}]","rt":1322,"trial_type":"instructions","trial_index":52,"time_elapsed":704012,"internal_node_id":"0.0-3.0"},{"view_history":"[{\"page_index\":0,\"viewing_time\":1208},{\"page_index\":1,\"viewing_time\":3486}]","rt":4694,"trial_type":"instructions","trial_index":53,"time_elapsed":709712,"internal_node_id":"0.0-4.0"},{"group":"hexagon_bi","fractal_assignment":["../images/gry_blk.png","../images/cyn_red.png","../images/pnk_blu.png","../images/blu_wht.png","../images/org_blu.png","../images/ylw_slt.png"],"mutagen_generator_assignment":[0,1],"goal":3,"start":5,"action_noise":0,"location_history":"[5,4,5,0,1,0,1,2,3]","action_history":"[1,1,0,1,1,1,0,1]","mutagen_history":"[1,1,0,1,1,1,0,1]","location_rts":"[11114,1216,528,1106,1122,1384,398,334]","trial_type":"fractal-mutation","trial_index":54,"time_elapsed":739848,"internal_node_id":"0.0-5.0-0.0"},{"group":"hexagon_bi","fractal_assignment":["../images/gry_blk.png","../images/cyn_red.png","../images/pnk_blu.png","../images/blu_wht.png","../images/org_blu.png","../images/ylw_slt.png"],"mutagen_generator_assignment":[0,1],"goal":1,"start":3,"action_noise":0,"location_history":"[3,4,5,4,3,4,5,4,3,4,3,4,5,4,5,0,5,4,3,4,5,4,5,0,5,0,1]","action_history":"[0,1,1,0,0,1,1,0,0,0,0,1,1,1,0,0,1,0,0,1,1,1,0,0,0,1]","mutagen_history":"[0,1,1,0,0,1,1,0,0,0,0,1,1,1,0,0,1,0,0,1,1,1,0,0,0,1]","location_rts":"[3528,832,2446,782,536,400,1070,722,888,664,948,380,778,1108,490,2002,790,1658,1316,488,1188,1052,374,2096,898,1562]","trial_type":"fractal-mutation","trial_index":55,"time_elapsed":801744,"internal_node_id":"0.0-5.0-1.0"},{"group":"hexagon_bi","fractal_assignment":["../images/gry_blk.png","../images/cyn_red.png","../images/pnk_blu.png","../images/blu_wht.png","../images/org_blu.png","../images/ylw_slt.png"],"mutagen_generator_assignment":[0,1],"goal":0,"start":1,"action_noise":0,"location_history":"[1,0]","action_history":"[1]","mutagen_history":"[1]","location_rts":"[2702]","trial_type":"fractal-mutation","trial_index":56,"time_elapsed":809588,"internal_node_id":"0.0-5.0-2.0"},{"group":"hexagon_bi","fractal_assignment":["../images/gry_blk.png","../images/cyn_red.png","../images/pnk_blu.png","../images/blu_wht.png","../images/org_blu.png","../images/ylw_slt.png"],"mutagen_generator_assignment":[0,1],"goal":3,"start":0,"action_noise":0,"location_history":"[0,5,4,5,0,1,0,5,4,3]","action_history":"[0,1,1,0,1,1,0,1,0]","mutagen_history":"[0,1,1,0,1,1,0,1,0]","location_rts":"[3774,578,1112,360,390,1502,536,394,1200]","trial_type":"fractal-mutation","trial_index":57,"time_elapsed":833412,"internal_node_id":"0.0-5.0-3.0"},{"group":"hexagon_bi","fractal_assignment":["../images/gry_blk.png","../images/cyn_red.png","../images/pnk_blu.png","../images/blu_wht.png","../images/org_blu.png","../images/ylw_slt.png"],"mutagen_generator_assignment":[0,1],"goal":4,"start":3,"action_noise":0,"location_history":"[3,4]","action_history":"[0]","mutagen_history":"[0]","location_rts":"[5146]","trial_type":"fractal-mutation","trial_index":58,"time_elapsed":843676,"internal_node_id":"0.0-5.0-4.0"},{"group":"hexagon_bi","fractal_assignment":["../images/gry_blk.png","../images/cyn_red.png","../images/pnk_blu.png","../images/blu_wht.png","../images/org_blu.png","../images/ylw_slt.png"],"mutagen_generator_assignment":[0,1],"goal":2,"start":4,"action_noise":0,"location_history":"[4,5,0,5,4,5,0,1,2]","action_history":"[1,0,0,1,1,0,1,0]","mutagen_history":"[1,0,0,1,1,0,1,0]","location_rts":"[4680,2134,1554,1212,1040,556,2896,540]","trial_type":"fractal-mutation","trial_index":59,"time_elapsed":871222,"internal_node_id":"0.0-5.0-5.0"},{"group":"hexagon_bi","fractal_assignment":["../images/gry_blk.png","../images/cyn_red.png","../images/pnk_blu.png","../images/blu_wht.png","../images/org_blu.png","../images/ylw_slt.png"],"mutagen_generator_assignment":[0,1],"goal":1,"start":2,"action_noise":0,"location_history":"[2,1]","action_history":"[0]","mutagen_history":"[0]","location_rts":"[1654]","trial_type":"fractal-mutation","trial_index":60,"time_elapsed":878016,"internal_node_id":"0.0-5.0-6.0"},{"group":"hexagon_bi","fractal_assignment":["../images/gry_blk.png","../images/cyn_red.png","../images/pnk_blu.png","../images/blu_wht.png","../images/org_blu.png","../images/ylw_slt.png"],"mutagen_generator_assignment":[0,1],"goal":5,"start":1,"action_noise":0,"location_history":"[1,0,5]","action_history":"[1,0]","mutagen_history":"[1,0]","location_rts":"[4968,938]","trial_type":"fractal-mutation","trial_index":61,"time_elapsed":890154,"internal_node_id":"0.0-5.0-7.0"},{"group":"hexagon_bi","fractal_assignment":["../images/gry_blk.png","../images/cyn_red.png","../images/pnk_blu.png","../images/blu_wht.png","../images/org_blu.png","../images/ylw_slt.png"],"mutagen_generator_assignment":[0,1],"goal":4,"start":5,"action_noise":0,"location_history":"[5,4]","action_history":"[1]","mutagen_history":"[1]","location_rts":"[8502]","trial_type":"fractal-mutation","trial_index":62,"time_elapsed":903790,"internal_node_id":"0.0-5.0-8.0"},{"group":"hexagon_bi","fractal_assignment":["../images/gry_blk.png","../images/cyn_red.png","../images/pnk_blu.png","../images/blu_wht.png","../images/org_blu.png","../images/ylw_slt.png"],"mutagen_generator_assignment":[0,1],"goal":2,"start":4,"action_noise":0,"location_history":"[4,3,4,5,4,5,0,5,0,1,2]","action_history":"[0,0,1,1,1,0,0,0,1,0]","mutagen_history":"[0,0,1,1,1,0,0,0,1,0]","location_rts":"[1902,982,388,2088,434,478,1384,522,326,320]","trial_type":"fractal-mutation","trial_index":63,"time_elapsed":927766,"internal_node_id":"0.0-5.0-9.0"},{"group":"hexagon_bi","fractal_assignment":["../images/gry_blk.png","../images/cyn_red.png","../images/pnk_blu.png","../images/blu_wht.png","../images/org_blu.png","../images/ylw_slt.png"],"mutagen_generator_assignment":[0,1],"goal":0,"start":2,"action_noise":0,"location_history":"[2,3,2,1,0]","action_history":"[1,1,0,1]","mutagen_history":"[1,1,0,1]","location_rts":"[3184,970,396,298]","trial_type":"fractal-mutation","trial_index":64,"time_elapsed":941100,"internal_node_id":"0.0-5.0-10.0"},{"group":"hexagon_bi","fractal_assignment":["../images/gry_blk.png","../images/cyn_red.png","../images/pnk_blu.png","../images/blu_wht.png","../images/org_blu.png","../images/ylw_slt.png"],"mutagen_generator_assignment":[0,1],"goal":1,"start":0,"action_noise":0,"location_history":"[0,1]","action_history":"[1]","mutagen_history":"[1]","location_rts":"[3898]","trial_type":"fractal-mutation","trial_index":65,"time_elapsed":950136,"internal_node_id":"0.0-5.0-11.0"},{"group":"hexagon_bi","fractal_assignment":["../images/gry_blk.png","../images/cyn_red.png","../images/pnk_blu.png","../images/blu_wht.png","../images/org_blu.png","../images/ylw_slt.png"],"mutagen_generator_assignment":[0,1],"goal":3,"start":1,"action_noise":0,"location_history":"[1,2,3]","action_history":"[0,1]","mutagen_history":"[0,1]","location_rts":"[1980,4058]","trial_type":"fractal-mutation","trial_index":66,"time_elapsed":962440,"internal_node_id":"0.0-5.0-12.0"},{"group":"hexagon_bi","fractal_assignment":["../images/gry_blk.png","../images/cyn_red.png","../images/pnk_blu.png","../images/blu_wht.png","../images/org_blu.png","../images/ylw_slt.png"],"mutagen_generator_assignment":[0,1],"goal":5,"start":3,"action_noise":0,"location_history":"[3,4,5]","action_history":"[0,1]","mutagen_history":"[0,1]","location_rts":"[3978,1918]","trial_type":"fractal-mutation","trial_index":67,"time_elapsed":974594,"internal_node_id":"0.0-5.0-13.0"},{"group":"hexagon_bi","fractal_assignment":["../images/gry_blk.png","../images/cyn_red.png","../images/pnk_blu.png","../images/blu_wht.png","../images/org_blu.png","../images/ylw_slt.png"],"mutagen_generator_assignment":[0,1],"goal":4,"start":5,"action_noise":0,"location_history":"[5,4]","action_history":"[1]","mutagen_history":"[1]","location_rts":"[2740]","trial_type":"fractal-mutation","trial_index":68,"time_elapsed":982470,"internal_node_id":"0.0-5.0-14.0"},{"group":"hexagon_bi","fractal_assignment":["../images/gry_blk.png","../images/cyn_red.png","../images/pnk_blu.png","../images/blu_wht.png","../images/org_blu.png","../images/ylw_slt.png"],"mutagen_generator_assignment":[0,1],"goal":0,"start":4,"action_noise":0,"location_history":"[4,5,4,3,2,3,2,1,0]","action_history":"[1,1,0,1,1,1,0,1]","mutagen_history":"[1,1,0,1,1,1,0,1]","location_rts":"[2770,1532,444,1392,1662,664,358,350]","trial_type":"fractal-mutation","trial_index":69,"time_elapsed":1004570,"internal_node_id":"0.0-5.0-15.0"},{"group":"hexagon_bi","fractal_assignment":["../images/gry_blk.png","../images/cyn_red.png","../images/pnk_blu.png","../images/blu_wht.png","../images/org_blu.png","../images/ylw_slt.png"],"mutagen_generator_assignment":[0,1],"goal":3,"start":0,"action_noise":0,"location_history":"[0,5,4,5,0,1,0,5,4,5,0,5,4,5,0,1,0,5,4,3]","action_history":"[0,1,1,0,1,1,0,1,1,0,0,1,1,0,1,1,0,1,0]","mutagen_history":"[0,1,1,0,1,1,0,1,1,0,0,1,1,0,1,1,0,1,0]","location_rts":"[2386,400,1074,516,630,1554,388,1746,874,1988,1714,1372,738,504,498,1012,394,1110,1430]","trial_type":"fractal-mutation","trial_index":70,"time_elapsed":1050096,"internal_node_id":"0.0-5.0-16.0"},{"group":"hexagon_bi","fractal_assignment":["../images/gry_blk.png","../images/cyn_red.png","../images/pnk_blu.png","../images/blu_wht.png","../images/org_blu.png","../images/ylw_slt.png"],"mutagen_generator_assignment":[0,1],"goal":1,"start":3,"action_noise":0,"location_history":"[3,4,5,4,3,4,3,2,1]","action_history":"[0,1,1,0,0,0,1,0]","mutagen_history":"[0,1,1,0,0,0,1,0]","location_rts":"[3572,2214,1344,472,1240,836,324,960]","trial_type":"fractal-mutation","trial_index":71,"time_elapsed":1073954,"internal_node_id":"0.0-5.0-17.0"},{"group":"hexagon_bi","fractal_assignment":["../images/gry_blk.png","../images/cyn_red.png","../images/pnk_blu.png","../images/blu_wht.png","../images/org_blu.png","../images/ylw_slt.png"],"mutagen_generator_assignment":[0,1],"goal":5,"start":1,"action_noise":0,"location_history":"[1,0,5]","action_history":"[1,0]","mutagen_history":"[1,0]","location_rts":"[3016,330]","trial_type":"fractal-mutation","trial_index":72,"time_elapsed":1083528,"internal_node_id":"0.0-5.0-18.0"},{"group":"hexagon_bi","fractal_assignment":["../images/gry_blk.png","../images/cyn_red.png","../images/pnk_blu.png","../images/blu_wht.png","../images/org_blu.png","../images/ylw_slt.png"],"mutagen_generator_assignment":[0,1],"goal":2,"start":5,"action_noise":0,"location_history":"[5,0,1,2]","action_history":"[0,1,0]","mutagen_history":"[0,1,0]","location_rts":"[9480,480,386]","trial_type":"fractal-mutation","trial_index":73,"time_elapsed":1101296,"internal_node_id":"0.0-5.0-19.0"},{"group":"hexagon_bi","fractal_assignment":["../images/gry_blk.png","../images/cyn_red.png","../images/pnk_blu.png","../images/blu_wht.png","../images/org_blu.png","../images/ylw_slt.png"],"mutagen_generator_assignment":[0,1],"goal":4,"start":2,"action_noise":0,"location_history":"[2,1,0,5,4]","action_history":"[0,1,0,1]","mutagen_history":"[0,1,0,1]","location_rts":"[5372,378,404,304]","trial_type":"fractal-mutation","trial_index":74,"time_elapsed":1116240,"internal_node_id":"0.0-5.0-20.0"},{"group":"hexagon_bi","fractal_assignment":["../images/gry_blk.png","../images/cyn_red.png","../images/pnk_blu.png","../images/blu_wht.png","../images/org_blu.png","../images/ylw_slt.png"],"mutagen_generator_assignment":[0,1],"goal":1,"start":4,"action_noise":0,"location_history":"[4,5,4,3,4,5,0,1]","action_history":"[1,1,0,0,1,0,1]","mutagen_history":"[1,1,0,0,1,0,1]","location_rts":"[4018,912,402,1072,302,1020,1724]","trial_type":"fractal-mutation","trial_index":75,"time_elapsed":1137508,"internal_node_id":"0.0-5.0-21.0"},{"group":"hexagon_bi","fractal_assignment":["../images/gry_blk.png","../images/cyn_red.png","../images/pnk_blu.png","../images/blu_wht.png","../images/org_blu.png","../images/ylw_slt.png"],"mutagen_generator_assignment":[0,1],"goal":3,"start":1,"action_noise":0,"location_history":"[1,0,1,0,5,4,3]","action_history":"[1,1,1,0,1,0]","mutagen_history":"[1,1,1,0,1,0]","location_rts":"[9830,1788,1270,362,824,1212]","trial_type":"fractal-mutation","trial_index":76,"time_elapsed":1163468,"internal_node_id":"0.0-5.0-22.0"},{"group":"hexagon_bi","fractal_assignment":["../images/gry_blk.png","../images/cyn_red.png","../images/pnk_blu.png","../images/blu_wht.png","../images/org_blu.png","../images/ylw_slt.png"],"mutagen_generator_assignment":[0,1],"goal":2,"start":3,"action_noise":0,"location_history":"[3,2]","action_history":"[1]","mutagen_history":"[1]","location_rts":"[42982]","trial_type":"fractal-mutation","trial_index":77,"time_elapsed":1211600,"internal_node_id":"0.0-5.0-23.0"},{"group":"hexagon_bi","fractal_assignment":["../images/gry_blk.png","../images/cyn_red.png","../images/pnk_blu.png","../images/blu_wht.png","../images/org_blu.png","../images/ylw_slt.png"],"mutagen_generator_assignment":[0,1],"goal":0,"start":2,"action_noise":0,"location_history":"[2,1,0]","action_history":"[0,1]","mutagen_history":"[0,1]","location_rts":"[3686,326]","trial_type":"fractal-mutation","trial_index":78,"time_elapsed":1221900,"internal_node_id":"0.0-5.0-24.0"},{"group":"hexagon_bi","fractal_assignment":["../images/gry_blk.png","../images/cyn_red.png","../images/pnk_blu.png","../images/blu_wht.png","../images/org_blu.png","../images/ylw_slt.png"],"mutagen_generator_assignment":[0,1],"goal":5,"start":0,"action_noise":0,"location_history":"[0,5]","action_history":"[0]","mutagen_history":"[0]","location_rts":"[2840]","trial_type":"fractal-mutation","trial_index":79,"time_elapsed":1229868,"internal_node_id":"0.0-5.0-25.0"},{"group":"hexagon_bi","fractal_assignment":["../images/gry_blk.png","../images/cyn_red.png","../images/pnk_blu.png","../images/blu_wht.png","../images/org_blu.png","../images/ylw_slt.png"],"mutagen_generator_assignment":[0,1],"goal":2,"start":5,"action_noise":0,"location_history":"[5,0,1,2]","action_history":"[0,1,0]","mutagen_history":"[0,1,0]","location_rts":"[2910,352,372]","trial_type":"fractal-mutation","trial_index":80,"time_elapsed":1240874,"internal_node_id":"0.0-5.0-26.0"},{"group":"hexagon_bi","fractal_assignment":["../images/gry_blk.png","../images/cyn_red.png","../images/pnk_blu.png","../images/blu_wht.png","../images/org_blu.png","../images/ylw_slt.png"],"mutagen_generator_assignment":[0,1],"goal":3,"start":2,"action_noise":0,"location_history":"[2,3]","action_history":"[1]","mutagen_history":"[1]","location_rts":"[2866]","trial_type":"fractal-mutation","trial_index":81,"time_elapsed":1248858,"internal_node_id":"0.0-5.0-27.0"},{"group":"hexagon_bi","fractal_assignment":["../images/gry_blk.png","../images/cyn_red.png","../images/pnk_blu.png","../images/blu_wht.png","../images/org_blu.png","../images/ylw_slt.png"],"mutagen_generator_assignment":[0,1],"goal":0,"start":3,"action_noise":0,"location_history":"[3,2,1,0]","action_history":"[1,0,1]","mutagen_history":"[1,0,1]","location_rts":"[4188,3964,294]","trial_type":"fractal-mutation","trial_index":82,"time_elapsed":1264664,"internal_node_id":"0.0-5.0-28.0"},{"group":"hexagon_bi","fractal_assignment":["../images/gry_blk.png","../images/cyn_red.png","../images/pnk_blu.png","../images/blu_wht.png","../images/org_blu.png","../images/ylw_slt.png"],"mutagen_generator_assignment":[0,1],"goal":1,"start":0,"action_noise":0,"location_history":"[0,1]","action_history":"[1]","mutagen_history":"[1]","location_rts":"[2146]","trial_type":"fractal-mutation","trial_index":83,"time_elapsed":1271948,"internal_node_id":"0.0-5.0-29.0"},{"group":"hexagon_bi","fractal_assignment":["../images/gry_blk.png","../images/cyn_red.png","../images/pnk_blu.png","../images/blu_wht.png","../images/org_blu.png","../images/ylw_slt.png"],"mutagen_generator_assignment":[0,1],"goal":4,"start":1,"action_noise":0,"location_history":"[1,2,3,2,1,0,1,0,5,4]","action_history":"[0,1,1,0,1,1,1,0,1]","mutagen_history":"[0,1,1,0,1,1,1,0,1]","location_rts":"[3420,670,1178,354,358,1910,596,536,774]","trial_type":"fractal-mutation","trial_index":84,"time_elapsed":1295820,"internal_node_id":"0.0-5.0-30.0"},{"group":"hexagon_bi","fractal_assignment":["../images/gry_blk.png","../images/cyn_red.png","../images/pnk_blu.png","../images/blu_wht.png","../images/org_blu.png","../images/ylw_slt.png"],"mutagen_generator_assignment":[0,1],"goal":5,"start":4,"action_noise":0,"location_history":"[4,5]","action_history":"[1]","mutagen_history":"[1]","location_rts":"[3848]","trial_type":"fractal-mutation","trial_index":85,"time_elapsed":1304838,"internal_node_id":"0.0-5.0-31.0"},{"group":"hexagon_bi","fractal_assignment":["../images/gry_blk.png","../images/cyn_red.png","../images/pnk_blu.png","../images/blu_wht.png","../images/org_blu.png","../images/ylw_slt.png"],"mutagen_generator_assignment":[0,1],"goal":0,"start":5,"action_noise":0,"location_history":"[5,0]","action_history":"[0]","mutagen_history":"[0]","location_rts":"[3118]","trial_type":"fractal-mutation","trial_index":86,"time_elapsed":1313094,"internal_node_id":"0.0-5.0-32.0"},{"group":"hexagon_bi","fractal_assignment":["../images/gry_blk.png","../images/cyn_red.png","../images/pnk_blu.png","../images/blu_wht.png","../images/org_blu.png","../images/ylw_slt.png"],"mutagen_generator_assignment":[0,1],"goal":3,"start":0,"action_noise":0,"location_history":"[0,5,4,5,0,5,4,5,4,5,0,5,0,1,2,3]","action_history":"[0,1,1,0,0,1,1,1,1,0,0,0,1,0,1]","mutagen_history":"[0,1,1,0,0,1,1,1,1,0,0,0,1,0,1]","location_rts":"[5120,326,1182,1240,3152,438,2424,1078,324,338,2418,4244,326,2644,372]","trial_type":"fractal-mutation","trial_index":87,"time_elapsed":1359648,"internal_node_id":"0.0-5.0-33.0"},{"group":"hexagon_bi","fractal_assignment":["../images/gry_blk.png","../images/cyn_red.png","../images/pnk_blu.png","../images/blu_wht.png","../images/org_blu.png","../images/ylw_slt.png"],"mutagen_generator_assignment":[0,1],"goal":1,"start":3,"action_noise":0,"location_history":"[3,2,1]","action_history":"[1,0]","mutagen_history":"[1,0]","location_rts":"[3902,652]","trial_type":"fractal-mutation","trial_index":88,"time_elapsed":1370464,"internal_node_id":"0.0-5.0-34.0"},{"group":"hexagon_bi","fractal_assignment":["../images/gry_blk.png","../images/cyn_red.png","../images/pnk_blu.png","../images/blu_wht.png","../images/org_blu.png","../images/ylw_slt.png"],"mutagen_generator_assignment":[0,1],"goal":2,"start":1,"action_noise":0,"location_history":"[1,2]","action_history":"[0]","mutagen_history":"[0]","location_rts":"[1556]","trial_type":"fractal-mutation","trial_index":89,"time_elapsed":1377194,"internal_node_id":"0.0-5.0-35.0"},{"group":"hexagon_bi","fractal_assignment":["../images/gry_blk.png","../images/cyn_red.png","../images/pnk_blu.png","../images/blu_wht.png","../images/org_blu.png","../images/ylw_slt.png"],"mutagen_generator_assignment":[0,1],"goal":4,"start":2,"action_noise":0,"location_history":"[2,1,0,5,4]","action_history":"[0,1,0,1]","mutagen_history":"[0,1,0,1]","location_rts":"[5822,380,2944,504]","trial_type":"fractal-mutation","trial_index":90,"time_elapsed":1395296,"internal_node_id":"0.0-5.0-36.0"},{"group":"hexagon_bi","fractal_assignment":["../images/gry_blk.png","../images/cyn_red.png","../images/pnk_blu.png","../images/blu_wht.png","../images/org_blu.png","../images/ylw_slt.png"],"mutagen_generator_assignment":[0,1],"goal":5,"start":4,"action_noise":0,"location_history":"[4,3,2,1,0,5]","action_history":"[0,1,0,1,0]","mutagen_history":"[0,1,0,1,0]","location_rts":"[4910,2254,1650,678,958]","trial_type":"fractal-mutation","trial_index":91,"time_elapsed":1415302,"internal_node_id":"0.0-5.0-37.0"},{"group":"hexagon_bi","fractal_assignment":["../images/gry_blk.png","../images/cyn_red.png","../images/pnk_blu.png","../images/blu_wht.png","../images/org_blu.png","../images/ylw_slt.png"],"mutagen_generator_assignment":[0,1],"goal":1,"start":5,"action_noise":0,"location_history":"[5,0,1]","action_history":"[0,1]","mutagen_history":"[0,1]","location_rts":"[2462,324]","trial_type":"fractal-mutation","trial_index":92,"time_elapsed":1424338,"internal_node_id":"0.0-5.0-38.0"},{"group":"hexagon_bi","fractal_assignment":["../images/gry_blk.png","../images/cyn_red.png","../images/pnk_blu.png","../images/blu_wht.png","../images/org_blu.png","../images/ylw_slt.png"],"mutagen_generator_assignment":[0,1],"goal":4,"start":1,"action_noise":0,"location_history":"[1,2,3,2,1,0,1,0,5,4]","action_history":"[0,1,1,0,1,1,1,0,1]","mutagen_history":"[0,1,1,0,1,1,1,0,1]","location_rts":"[4504,370,1218,472,310,1640,546,502,306]","trial_type":"fractal-mutation","trial_index":93,"time_elapsed":1448304,"internal_node_id":"0.0-5.0-39.0"},{"group":"hexagon_bi","fractal_assignment":["../images/gry_blk.png","../images/cyn_red.png","../images/pnk_blu.png","../images/blu_wht.png","../images/org_blu.png","../images/ylw_slt.png"],"mutagen_generator_assignment":[0,1],"goal":3,"start":4,"action_noise":0,"location_history":"[4,5,0,1,2,3]","action_history":"[1,0,1,0,1]","mutagen_history":"[1,0,1,0,1]","location_rts":"[6464,3536,922,716,338]","trial_type":"fractal-mutation","trial_index":94,"time_elapsed":1469872,"internal_node_id":"0.0-5.0-40.0"},{"group":"hexagon_bi","fractal_assignment":["../images/gry_blk.png","../images/cyn_red.png","../images/pnk_blu.png","../images/blu_wht.png","../images/org_blu.png","../images/ylw_slt.png"],"mutagen_generator_assignment":[0,1],"goal":2,"start":3,"action_noise":0,"location_history":"[3,2]","action_history":"[1]","mutagen_history":"[1]","location_rts":"[3918]","trial_type":"fractal-mutation","trial_index":95,"time_elapsed":1478910,"internal_node_id":"0.0-5.0-41.0"},{"group":"hexagon_bi","fractal_assignment":["../images/gry_blk.png","../images/cyn_red.png","../images/pnk_blu.png","../images/blu_wht.png","../images/org_blu.png","../images/ylw_slt.png"],"mutagen_generator_assignment":[0,1],"goal":0,"start":2,"action_noise":0,"location_history":"[2,1,0]","action_history":"[0,1]","mutagen_history":"[0,1]","location_rts":"[3474,392]","trial_type":"fractal-mutation","trial_index":96,"time_elapsed":1489016,"internal_node_id":"0.0-5.0-42.0"},{"group":"hexagon_bi","fractal_assignment":["../images/gry_blk.png","../images/cyn_red.png","../images/pnk_blu.png","../images/blu_wht.png","../images/org_blu.png","../images/ylw_slt.png"],"mutagen_generator_assignment":[0,1],"goal":5,"start":0,"action_noise":0,"location_history":"[0,5]","action_history":"[0]","mutagen_history":"[0]","location_rts":"[1958]","trial_type":"fractal-mutation","trial_index":97,"time_elapsed":1496110,"internal_node_id":"0.0-5.0-43.0"},{"group":"hexagon_bi","fractal_assignment":["../images/gry_blk.png","../images/cyn_red.png","../images/pnk_blu.png","../images/blu_wht.png","../images/org_blu.png","../images/ylw_slt.png"],"mutagen_generator_assignment":[0,1],"goal":0,"start":5,"action_noise":0,"location_history":"[5,0]","action_history":"[0]","mutagen_history":"[0]","location_rts":"[1824]","trial_type":"fractal-mutation","trial_index":98,"time_elapsed":1503072,"internal_node_id":"0.0-5.0-44.0"},{"group":"hexagon_bi","fractal_assignment":["../images/gry_blk.png","../images/cyn_red.png","../images/pnk_blu.png","../images/blu_wht.png","../images/org_blu.png","../images/ylw_slt.png"],"mutagen_generator_assignment":[0,1],"goal":2,"start":0,"action_noise":0,"location_history":"[0,1,2]","action_history":"[1,0]","mutagen_history":"[1,0]","location_rts":"[2096,394]","trial_type":"fractal-mutation","trial_index":99,"time_elapsed":1511846,"internal_node_id":"0.0-5.0-45.0"},{"group":"hexagon_bi","fractal_assignment":["../images/gry_blk.png","../images/cyn_red.png","../images/pnk_blu.png","../images/blu_wht.png","../images/org_blu.png","../images/ylw_slt.png"],"mutagen_generator_assignment":[0,1],"goal":4,"start":2,"action_noise":0,"location_history":"[2,3,2,1,0,5,4]","action_history":"[1,1,0,1,0,1]","mutagen_history":"[1,1,0,1,0,1]","location_rts":"[5288,1026,330,310,1360,382]","trial_type":"fractal-mutation","trial_index":100,"time_elapsed":1531280,"internal_node_id":"0.0-5.0-46.0"},{"group":"hexagon_bi","fractal_assignment":["../images/gry_blk.png","../images/cyn_red.png","../images/pnk_blu.png","../images/blu_wht.png","../images/org_blu.png","../images/ylw_slt.png"],"mutagen_generator_assignment":[0,1],"goal":1,"start":4,"action_noise":0,"location_history":"[4,5,0,1]","action_history":"[1,0,1]","mutagen_history":"[1,0,1]","location_rts":"[3598,352,1042]","trial_type":"fractal-mutation","trial_index":101,"time_elapsed":1543664,"internal_node_id":"0.0-5.0-47.0"},{"group":"hexagon_bi","fractal_assignment":["../images/gry_blk.png","../images/cyn_red.png","../images/pnk_blu.png","../images/blu_wht.png","../images/org_blu.png","../images/ylw_slt.png"],"mutagen_generator_assignment":[0,1],"goal":5,"start":1,"action_noise":0,"location_history":"[1,0,5]","action_history":"[1,0]","mutagen_history":"[1,0]","location_rts":"[3468,346]","trial_type":"fractal-mutation","trial_index":102,"time_elapsed":1553752,"internal_node_id":"0.0-5.0-48.0"},{"group":"hexagon_bi","fractal_assignment":["../images/gry_blk.png","../images/cyn_red.png","../images/pnk_blu.png","../images/blu_wht.png","../images/org_blu.png","../images/ylw_slt.png"],"mutagen_generator_assignment":[0,1],"goal":3,"start":5,"action_noise":0,"location_history":"[5,4,5,0,1,2,3]","action_history":"[1,1,0,1,0,1]","mutagen_history":"[1,1,0,1,0,1]","location_rts":"[3046,2082,556,328,802,304]","trial_type":"fractal-mutation","trial_index":103,"time_elapsed":1571522,"internal_node_id":"0.0-5.0-49.0"},{"view_history":"[{\"page_index\":0,\"viewing_time\":8006}]","rt":8006,"trial_type":"instructions","trial_index":104,"time_elapsed":1580544,"internal_node_id":"0.0-6.0"},{"rt":11196,"responses":"{\"Q0\":\"Awesome HIT! Thank you!\"}","trial_type":"survey-text","trial_index":105,"time_elapsed":1592762,"internal_node_id":"0.0-7.0"}]