[{"view_history":"[{\"page_index\":0,\"viewing_time\":11660},{\"page_index\":1,\"viewing_time\":444216}]","rt":455878,"trial_type":"instructions","trial_index":0,"time_elapsed":455880,"internal_node_id":"0.0-0.0"},{"view_history":"[{\"page_index\":0,\"viewing_time\":2360},{\"page_index\":1,\"viewing_time\":14744}]","rt":17106,"trial_type":"instructions","trial_index":1,"time_elapsed":473994,"internal_node_id":"0.0-1.0"},{"group":"hexagon_bi","room_assignment":["green","grey","purple","blue","yellow","red"],"door_color_assignment":["white","black"],"door_generator_assignment":[1,0],"goal":3,"start":5,"action_noise":0,"location_history":"[5,4,5,4,3]","action_history":"[1,1,1,0]","door_history":"[0,0,0,1]","location_rts":"[21826,1562,698,494]","trial_type":"two-door-navigation","trial_index":2,"time_elapsed":506804,"internal_node_id":"0.0-2.0-0.0"},{"group":"hexagon_bi","room_assignment":["green","grey","purple","blue","yellow","red"],"door_color_assignment":["white","black"],"door_generator_assignment":[1,0],"goal":1,"start":3,"action_noise":0,"location_history":"[3,2,1]","action_history":"[1,0]","door_history":"[0,1]","location_rts":"[536,596]","trial_type":"two-door-navigation","trial_index":3,"time_elapsed":514002,"internal_node_id":"0.0-2.0-1.0"},{"group":"hexagon_bi","room_assignment":["green","grey","purple","blue","yellow","red"],"door_color_assignment":["white","black"],"door_generator_assignment":[1,0],"goal":0,"start":1,"action_noise":0,"location_history":"[1,2,3,4,5,0]","action_history":"[0,1,0,1,0]","door_history":"[1,0,1,0,1]","location_rts":"[382,412,424,316,774]","trial_type":"two-door-navigation","trial_index":4,"time_elapsed":525618,"internal_node_id":"0.0-2.0-2.0"},{"group":"hexagon_bi","room_assignment":["green","grey","purple","blue","yellow","red"],"door_color_assignment":["white","black"],"door_generator_assignment":[1,0],"goal":3,"start":0,"action_noise":0,"location_history":"[0,1,2,3]","action_history":"[1,0,1]","door_history":"[0,1,0]","location_rts":"[380,464,448]","trial_type":"two-door-navigation","trial_index":5,"time_elapsed":534056,"internal_node_id":"0.0-2.0-3.0"},{"group":"hexagon_bi","room_assignment":["green","grey","purple","blue","yellow","red"],"door_color_assignment":["white","black"],"door_generator_assignment":[1,0],"goal":4,"start":3,"action_noise":0,"location_history":"[3,4]","action_history":"[0]","door_history":"[1]","location_rts":"[1036]","trial_type":"two-door-navigation","trial_index":6,"time_elapsed":540136,"internal_node_id":"0.0-2.0-4.0"},{"group":"hexagon_bi","room_assignment":["green","grey","purple","blue","yellow","red"],"door_color_assignment":["white","black"],"door_generator_assignment":[1,0],"goal":2,"start":4,"action_noise":0,"location_history":"[4,5,0,1,2]","action_history":"[1,0,1,0]","door_history":"[0,1,0,1]","location_rts":"[530,546,444,426]","trial_type":"two-door-navigation","trial_index":7,"time_elapsed":550200,"internal_node_id":"0.0-2.0-5.0"},{"group":"hexagon_bi","room_assignment":["green","grey","purple","blue","yellow","red"],"door_color_assignment":["white","black"],"door_generator_assignment":[1,0],"goal":1,"start":2,"action_noise":0,"location_history":"[2,1]","action_history":"[0]","door_history":"[1]","location_rts":"[388]","trial_type":"two-door-navigation","trial_index":8,"time_elapsed":555622,"internal_node_id":"0.0-2.0-6.0"},{"group":"hexagon_bi","room_assignment":["green","grey","purple","blue","yellow","red"],"door_color_assignment":["white","black"],"door_generator_assignment":[1,0],"goal":5,"start":1,"action_noise":0,"location_history":"[1,2,3,4,5]","action_history":"[0,1,0,1]","door_history":"[1,0,1,0]","location_rts":"[840,504,352,378]","trial_type":"two-door-navigation","trial_index":9,"time_elapsed":565806,"internal_node_id":"0.0-2.0-7.0"},{"group":"hexagon_bi","room_assignment":["green","grey","purple","blue","yellow","red"],"door_color_assignment":["white","black"],"door_generator_assignment":[1,0],"goal":4,"start":5,"action_noise":0,"location_history":"[5,0,1,2,3,4]","action_history":"[0,1,0,1,0]","door_history":"[1,0,1,0,1]","location_rts":"[440,426,386,326,442]","trial_type":"two-door-navigation","trial_index":10,"time_elapsed":577008,"internal_node_id":"0.0-2.0-8.0"},{"group":"hexagon_bi","room_assignment":["green","grey","purple","blue","yellow","red"],"door_color_assignment":["white","black"],"door_generator_assignment":[1,0],"goal":2,"start":4,"action_noise":0,"location_history":"[4,3,2]","action_history":"[0,1]","door_history":"[1,0]","location_rts":"[414,370]","trial_type":"two-door-navigation","trial_index":11,"time_elapsed":583878,"internal_node_id":"0.0-2.0-9.0"},{"group":"hexagon_bi","room_assignment":["green","grey","purple","blue","yellow","red"],"door_color_assignment":["white","black"],"door_generator_assignment":[1,0],"goal":0,"start":2,"action_noise":0,"location_history":"[2,1,0]","action_history":"[0,1]","door_history":"[1,0]","location_rts":"[426,436]","trial_type":"two-door-navigation","trial_index":12,"time_elapsed":590812,"internal_node_id":"0.0-2.0-10.0"},{"group":"hexagon_bi","room_assignment":["green","grey","purple","blue","yellow","red"],"door_color_assignment":["white","black"],"door_generator_assignment":[1,0],"goal":1,"start":0,"action_noise":0,"location_history":"[0,5,4,3,2,1]","action_history":"[0,1,0,1,0]","door_history":"[1,0,1,0,1]","location_rts":"[424,432,432,598,504]","trial_type":"two-door-navigation","trial_index":13,"time_elapsed":602524,"internal_node_id":"0.0-2.0-11.0"},{"group":"hexagon_bi","room_assignment":["green","grey","purple","blue","yellow","red"],"door_color_assignment":["white","black"],"door_generator_assignment":[1,0],"goal":3,"start":1,"action_noise":0,"location_history":"[1,0,5,4,3]","action_history":"[1,0,1,0]","door_history":"[0,1,0,1]","location_rts":"[340,382,330,324]","trial_type":"two-door-navigation","trial_index":14,"time_elapsed":612814,"internal_node_id":"0.0-2.0-12.0"},{"group":"hexagon_bi","room_assignment":["green","grey","purple","blue","yellow","red"],"door_color_assignment":["white","black"],"door_generator_assignment":[1,0],"goal":5,"start":3,"action_noise":0,"location_history":"[3,2,1,0,5]","action_history":"[1,0,1,0]","door_history":"[0,1,0,1]","location_rts":"[460,426,510,378]","trial_type":"two-door-navigation","trial_index":15,"time_elapsed":622720,"internal_node_id":"0.0-2.0-13.0"},{"group":"hexagon_bi","room_assignment":["green","grey","purple","blue","yellow","red"],"door_color_assignment":["white","black"],"door_generator_assignment":[1,0],"goal":4,"start":5,"action_noise":0,"location_history":"[5,0,1,2,3,4]","action_history":"[0,1,0,1,0]","door_history":"[1,0,1,0,1]","location_rts":"[502,386,390,392,390]","trial_type":"two-door-navigation","trial_index":16,"time_elapsed":633928,"internal_node_id":"0.0-2.0-14.0"},{"group":"hexagon_bi","room_assignment":["green","grey","purple","blue","yellow","red"],"door_color_assignment":["white","black"],"door_generator_assignment":[1,0],"goal":0,"start":4,"action_noise":0,"location_history":"[4,5,0]","action_history":"[1,0]","door_history":"[0,1]","location_rts":"[288,398]","trial_type":"two-door-navigation","trial_index":17,"time_elapsed":640674,"internal_node_id":"0.0-2.0-15.0"},{"group":"hexagon_bi","room_assignment":["green","grey","purple","blue","yellow","red"],"door_color_assignment":["white","black"],"door_generator_assignment":[1,0],"goal":3,"start":0,"action_noise":0,"location_history":"[0,5,4,3]","action_history":"[0,1,0]","door_history":"[1,0,1]","location_rts":"[4124,324,376]","trial_type":"two-door-navigation","trial_index":18,"time_elapsed":652576,"internal_node_id":"0.0-2.0-16.0"},{"group":"hexagon_bi","room_assignment":["green","grey","purple","blue","yellow","red"],"door_color_assignment":["white","black"],"door_generator_assignment":[1,0],"goal":1,"start":3,"action_noise":0,"location_history":"[3,2,1]","action_history":"[1,0]","door_history":"[0,1]","location_rts":"[640,392]","trial_type":"two-door-navigation","trial_index":19,"time_elapsed":659666,"internal_node_id":"0.0-2.0-17.0"},{"group":"hexagon_bi","room_assignment":["green","grey","purple","blue","yellow","red"],"door_color_assignment":["white","black"],"door_generator_assignment":[1,0],"goal":5,"start":1,"action_noise":0,"location_history":"[1,0,5]","action_history":"[1,0]","door_history":"[0,1]","location_rts":"[544,448]","trial_type":"two-door-navigation","trial_index":20,"time_elapsed":666730,"internal_node_id":"0.0-2.0-18.0"},{"group":"hexagon_bi","room_assignment":["green","grey","purple","blue","yellow","red"],"door_color_assignment":["white","black"],"door_generator_assignment":[1,0],"goal":2,"start":5,"action_noise":0,"location_history":"[5,4,3,2]","action_history":"[1,0,1]","door_history":"[0,1,0]","location_rts":"[458,456,440]","trial_type":"two-door-navigation","trial_index":21,"time_elapsed":675440,"internal_node_id":"0.0-2.0-19.0"},{"group":"hexagon_bi","room_assignment":["green","grey","purple","blue","yellow","red"],"door_color_assignment":["white","black"],"door_generator_assignment":[1,0],"goal":4,"start":2,"action_noise":0,"location_history":"[2,1,0,5,4]","action_history":"[0,1,0,1]","door_history":"[1,0,1,0]","location_rts":"[394,362,410,356]","trial_type":"two-door-navigation","trial_index":22,"time_elapsed":685098,"internal_node_id":"0.0-2.0-20.0"},{"group":"hexagon_bi","room_assignment":["green","grey","purple","blue","yellow","red"],"door_color_assignment":["white","black"],"door_generator_assignment":[1,0],"goal":1,"start":4,"action_noise":0,"location_history":"[4,3,2,1]","action_history":"[0,1,0]","door_history":"[1,0,1]","location_rts":"[384,380,400]","trial_type":"two-door-navigation","trial_index":23,"time_elapsed":693340,"internal_node_id":"0.0-2.0-21.0"},{"group":"hexagon_bi","room_assignment":["green","grey","purple","blue","yellow","red"],"door_color_assignment":["white","black"],"door_generator_assignment":[1,0],"goal":3,"start":1,"action_noise":0,"location_history":"[1,0,5,4,3]","action_history":"[1,0,1,0]","door_history":"[0,1,0,1]","location_rts":"[710,436,506,592]","trial_type":"two-door-navigation","trial_index":24,"time_elapsed":703712,"internal_node_id":"0.0-2.0-22.0"},{"group":"hexagon_bi","room_assignment":["green","grey","purple","blue","yellow","red"],"door_color_assignment":["white","black"],"door_generator_assignment":[1,0],"goal":2,"start":3,"action_noise":0,"location_history":"[3,2]","action_history":"[1]","door_history":"[0]","location_rts":"[1002]","trial_type":"two-door-navigation","trial_index":25,"time_elapsed":709740,"internal_node_id":"0.0-2.0-23.0"},{"group":"hexagon_bi","room_assignment":["green","grey","purple","blue","yellow","red"],"door_color_assignment":["white","black"],"door_generator_assignment":[1,0],"goal":0,"start":2,"action_noise":0,"location_history":"[2,1,0]","action_history":"[0,1]","door_history":"[1,0]","location_rts":"[336,402]","trial_type":"two-door-navigation","trial_index":26,"time_elapsed":716538,"internal_node_id":"0.0-2.0-24.0"},{"group":"hexagon_bi","room_assignment":["green","grey","purple","blue","yellow","red"],"door_color_assignment":["white","black"],"door_generator_assignment":[1,0],"goal":5,"start":0,"action_noise":0,"location_history":"[0,1,2,3,4,5]","action_history":"[1,0,1,0,1]","door_history":"[0,1,0,1,0]","location_rts":"[372,398,378,438,418]","trial_type":"two-door-navigation","trial_index":27,"time_elapsed":727736,"internal_node_id":"0.0-2.0-25.0"},{"group":"hexagon_bi","room_assignment":["green","grey","purple","blue","yellow","red"],"door_color_assignment":["white","black"],"door_generator_assignment":[1,0],"goal":2,"start":5,"action_noise":0,"location_history":"[5,0,1,2]","action_history":"[0,1,0]","door_history":"[1,0,1]","location_rts":"[478,376,340]","trial_type":"two-door-navigation","trial_index":28,"time_elapsed":736002,"internal_node_id":"0.0-2.0-26.0"},{"group":"hexagon_bi","room_assignment":["green","grey","purple","blue","yellow","red"],"door_color_assignment":["white","black"],"door_generator_assignment":[1,0],"goal":3,"start":2,"action_noise":0,"location_history":"[2,3]","action_history":"[1]","door_history":"[0]","location_rts":"[386]","trial_type":"two-door-navigation","trial_index":29,"time_elapsed":741438,"internal_node_id":"0.0-2.0-27.0"},{"group":"hexagon_bi","room_assignment":["green","grey","purple","blue","yellow","red"],"door_color_assignment":["white","black"],"door_generator_assignment":[1,0],"goal":0,"start":3,"action_noise":0,"location_history":"[3,4,5,0]","action_history":"[0,1,0]","door_history":"[1,0,1]","location_rts":"[412,346,378]","trial_type":"two-door-navigation","trial_index":30,"time_elapsed":749686,"internal_node_id":"0.0-2.0-28.0"},{"group":"hexagon_bi","room_assignment":["green","grey","purple","blue","yellow","red"],"door_color_assignment":["white","black"],"door_generator_assignment":[1,0],"goal":1,"start":0,"action_noise":0,"location_history":"[0,1]","action_history":"[1]","door_history":"[0]","location_rts":"[426]","trial_type":"two-door-navigation","trial_index":31,"time_elapsed":755138,"internal_node_id":"0.0-2.0-29.0"},{"group":"hexagon_bi","room_assignment":["green","grey","purple","blue","yellow","red"],"door_color_assignment":["white","black"],"door_generator_assignment":[1,0],"goal":4,"start":1,"action_noise":0,"location_history":"[1,2,3,4]","action_history":"[0,1,0]","door_history":"[1,0,1]","location_rts":"[448,626,380]","trial_type":"two-door-navigation","trial_index":32,"time_elapsed":763672,"internal_node_id":"0.0-2.0-30.0"},{"group":"hexagon_bi","room_assignment":["green","grey","purple","blue","yellow","red"],"door_color_assignment":["white","black"],"door_generator_assignment":[1,0],"goal":5,"start":4,"action_noise":0,"location_history":"[4,5]","action_history":"[1]","door_history":"[0]","location_rts":"[462]","trial_type":"two-door-navigation","trial_index":33,"time_elapsed":769164,"internal_node_id":"0.0-2.0-31.0"},{"group":"hexagon_bi","room_assignment":["green","grey","purple","blue","yellow","red"],"door_color_assignment":["white","black"],"door_generator_assignment":[1,0],"goal":0,"start":5,"action_noise":0,"location_history":"[5,0]","action_history":"[0]","door_history":"[1]","location_rts":"[372]","trial_type":"two-door-navigation","trial_index":34,"time_elapsed":774582,"internal_node_id":"0.0-2.0-32.0"},{"group":"hexagon_bi","room_assignment":["green","grey","purple","blue","yellow","red"],"door_color_assignment":["white","black"],"door_generator_assignment":[1,0],"goal":3,"start":0,"action_noise":0,"location_history":"[0,5,4,3]","action_history":"[0,1,0]","door_history":"[1,0,1]","location_rts":"[546,520,490]","trial_type":"two-door-navigation","trial_index":35,"time_elapsed":783222,"internal_node_id":"0.0-2.0-33.0"},{"group":"hexagon_bi","room_assignment":["green","grey","purple","blue","yellow","red"],"door_color_assignment":["white","black"],"door_generator_assignment":[1,0],"goal":1,"start":3,"action_noise":0,"location_history":"[3,2,1]","action_history":"[1,0]","door_history":"[0,1]","location_rts":"[376,320]","trial_type":"two-door-navigation","trial_index":36,"time_elapsed":789980,"internal_node_id":"0.0-2.0-34.0"},{"group":"hexagon_bi","room_assignment":["green","grey","purple","blue","yellow","red"],"door_color_assignment":["white","black"],"door_generator_assignment":[1,0],"goal":2,"start":1,"action_noise":0,"location_history":"[1,0,5,4,3,2]","action_history":"[1,0,1,0,1]","door_history":"[0,1,0,1,0]","location_rts":"[394,420,452,398,426]","trial_type":"two-door-navigation","trial_index":37,"time_elapsed":801230,"internal_node_id":"0.0-2.0-35.0"},{"group":"hexagon_bi","room_assignment":["green","grey","purple","blue","yellow","red"],"door_color_assignment":["white","black"],"door_generator_assignment":[1,0],"goal":4,"start":2,"action_noise":0,"location_history":"[2,3,4]","action_history":"[1,0]","door_history":"[0,1]","location_rts":"[412,394]","trial_type":"two-door-navigation","trial_index":38,"time_elapsed":808108,"internal_node_id":"0.0-2.0-36.0"},{"group":"hexagon_bi","room_assignment":["green","grey","purple","blue","yellow","red"],"door_color_assignment":["white","black"],"door_generator_assignment":[1,0],"goal":5,"start":4,"action_noise":0,"location_history":"[4,5]","action_history":"[1]","door_history":"[0]","location_rts":"[400]","trial_type":"two-door-navigation","trial_index":39,"time_elapsed":813592,"internal_node_id":"0.0-2.0-37.0"},{"group":"hexagon_bi","room_assignment":["green","grey","purple","blue","yellow","red"],"door_color_assignment":["white","black"],"door_generator_assignment":[1,0],"goal":1,"start":5,"action_noise":0,"location_history":"[5,0,1]","action_history":"[0,1]","door_history":"[1,0]","location_rts":"[724,402]","trial_type":"two-door-navigation","trial_index":40,"time_elapsed":820818,"internal_node_id":"0.0-2.0-38.0"},{"group":"hexagon_bi","room_assignment":["green","grey","purple","blue","yellow","red"],"door_color_assignment":["white","black"],"door_generator_assignment":[1,0],"goal":4,"start":1,"action_noise":0,"location_history":"[1,2,3,4]","action_history":"[0,1,0]","door_history":"[1,0,1]","location_rts":"[380,362,350]","trial_type":"two-door-navigation","trial_index":41,"time_elapsed":828994,"internal_node_id":"0.0-2.0-39.0"},{"group":"hexagon_bi","room_assignment":["green","grey","purple","blue","yellow","red"],"door_color_assignment":["white","black"],"door_generator_assignment":[1,0],"goal":3,"start":4,"action_noise":0,"location_history":"[4,5,0,1,2,3]","action_history":"[1,0,1,0,1]","door_history":"[0,1,0,1,0]","location_rts":"[422,328,396,368,410]","trial_type":"two-door-navigation","trial_index":42,"time_elapsed":840060,"internal_node_id":"0.0-2.0-40.0"},{"group":"hexagon_bi","room_assignment":["green","grey","purple","blue","yellow","red"],"door_color_assignment":["white","black"],"door_generator_assignment":[1,0],"goal":2,"start":3,"action_noise":0,"location_history":"[3,4,5,0,1,2]","action_history":"[0,1,0,1,0]","door_history":"[1,0,1,0,1]","location_rts":"[464,416,458,548,436]","trial_type":"two-door-navigation","trial_index":43,"time_elapsed":851550,"internal_node_id":"0.0-2.0-41.0"},{"group":"hexagon_bi","room_assignment":["green","grey","purple","blue","yellow","red"],"door_color_assignment":["white","black"],"door_generator_assignment":[1,0],"goal":0,"start":2,"action_noise":0,"location_history":"[2,1,0]","action_history":"[0,1]","door_history":"[1,0]","location_rts":"[434,396]","trial_type":"two-door-navigation","trial_index":44,"time_elapsed":858446,"internal_node_id":"0.0-2.0-42.0"},{"group":"hexagon_bi","room_assignment":["green","grey","purple","blue","yellow","red"],"door_color_assignment":["white","black"],"door_generator_assignment":[1,0],"goal":5,"start":0,"action_noise":0,"location_history":"[0,5]","action_history":"[0]","door_history":"[1]","location_rts":"[416]","trial_type":"two-door-navigation","trial_index":45,"time_elapsed":863904,"internal_node_id":"0.0-2.0-43.0"},{"group":"hexagon_bi","room_assignment":["green","grey","purple","blue","yellow","red"],"door_color_assignment":["white","black"],"door_generator_assignment":[1,0],"goal":0,"start":5,"action_noise":0,"location_history":"[5,4,3,2,1,0]","action_history":"[1,0,1,0,1]","door_history":"[0,1,0,1,0]","location_rts":"[414,424,358,472,792]","trial_type":"two-door-navigation","trial_index":46,"time_elapsed":875476,"internal_node_id":"0.0-2.0-44.0"},{"group":"hexagon_bi","room_assignment":["green","grey","purple","blue","yellow","red"],"door_color_assignment":["white","black"],"door_generator_assignment":[1,0],"goal":2,"start":0,"action_noise":0,"location_history":"[0,1,2]","action_history":"[1,0]","door_history":"[0,1]","location_rts":"[468,468]","trial_type":"two-door-navigation","trial_index":47,"time_elapsed":882504,"internal_node_id":"0.0-2.0-45.0"},{"group":"hexagon_bi","room_assignment":["green","grey","purple","blue","yellow","red"],"door_color_assignment":["white","black"],"door_generator_assignment":[1,0],"goal":4,"start":2,"action_noise":0,"location_history":"[2,3,4]","action_history":"[1,0]","door_history":"[0,1]","location_rts":"[550,360]","trial_type":"two-door-navigation","trial_index":48,"time_elapsed":889498,"internal_node_id":"0.0-2.0-46.0"},{"group":"hexagon_bi","room_assignment":["green","grey","purple","blue","yellow","red"],"door_color_assignment":["white","black"],"door_generator_assignment":[1,0],"goal":1,"start":4,"action_noise":0,"location_history":"[4,3,2,1]","action_history":"[0,1,0]","door_history":"[1,0,1]","location_rts":"[346,332,614]","trial_type":"two-door-navigation","trial_index":49,"time_elapsed":897870,"internal_node_id":"0.0-2.0-47.0"},{"group":"hexagon_bi","room_assignment":["green","grey","purple","blue","yellow","red"],"door_color_assignment":["white","black"],"door_generator_assignment":[1,0],"goal":5,"start":1,"action_noise":0,"location_history":"[1,0,5]","action_history":"[1,0]","door_history":"[0,1]","location_rts":"[480,384]","trial_type":"two-door-navigation","trial_index":50,"time_elapsed":904806,"internal_node_id":"0.0-2.0-48.0"},{"group":"hexagon_bi","room_assignment":["green","grey","purple","blue","yellow","red"],"door_color_assignment":["white","black"],"door_generator_assignment":[1,0],"goal":3,"start":5,"action_noise":0,"location_history":"[5,4,3]","action_history":"[1,0]","door_history":"[0,1]","location_rts":"[1260,386]","trial_type":"two-door-navigation","trial_index":51,"time_elapsed":912508,"internal_node_id":"0.0-2.0-49.0"},{"view_history":"[{\"page_index\":0,\"viewing_time\":5100}]","rt":5100,"trial_type":"instructions","trial_index":52,"time_elapsed":918610,"internal_node_id":"0.0-3.0"},{"view_history":"[{\"page_index\":0,\"viewing_time\":1290},{\"page_index\":1,\"viewing_time\":21186}]","rt":22476,"trial_type":"instructions","trial_index":53,"time_elapsed":942090,"internal_node_id":"0.0-4.0"},{"group":"hexagon_bi","fractal_assignment":["../images/ylw_slt.png","../images/blu_wht.png","../images/org_blu.png","../images/gry_blk.png","../images/pnk_blu.png","../images/cyn_red.png"],"mutagen_generator_assignment":[0,1],"goal":3,"start":5,"action_noise":0,"location_history":"[5,0,1,2,3]","action_history":"[0,1,0,1]","mutagen_history":"[0,1,0,1]","location_rts":"[4852,574,384,386]","trial_type":"fractal-mutation","trial_index":54,"time_elapsed":956984,"internal_node_id":"0.0-5.0-0.0"},{"group":"hexagon_bi","fractal_assignment":["../images/ylw_slt.png","../images/blu_wht.png","../images/org_blu.png","../images/gry_blk.png","../images/pnk_blu.png","../images/cyn_red.png"],"mutagen_generator_assignment":[0,1],"goal":1,"start":3,"action_noise":0,"location_history":"[3,4,5,0,1]","action_history":"[0,1,0,1]","mutagen_history":"[0,1,0,1]","location_rts":"[366,302,428,404]","trial_type":"fractal-mutation","trial_index":55,"time_elapsed":967070,"internal_node_id":"0.0-5.0-1.0"},{"group":"hexagon_bi","fractal_assignment":["../images/ylw_slt.png","../images/blu_wht.png","../images/org_blu.png","../images/gry_blk.png","../images/pnk_blu.png","../images/cyn_red.png"],"mutagen_generator_assignment":[0,1],"goal":0,"start":1,"action_noise":0,"location_history":"[1,0]","action_history":"[1]","mutagen_history":"[1]","location_rts":"[296]","trial_type":"fractal-mutation","trial_index":56,"time_elapsed":972558,"internal_node_id":"0.0-5.0-2.0"},{"group":"hexagon_bi","fractal_assignment":["../images/ylw_slt.png","../images/blu_wht.png","../images/org_blu.png","../images/gry_blk.png","../images/pnk_blu.png","../images/cyn_red.png"],"mutagen_generator_assignment":[0,1],"goal":3,"start":0,"action_noise":0,"location_history":"[0,5,4,3]","action_history":"[0,1,0]","mutagen_history":"[0,1,0]","location_rts":"[1104,340,390]","trial_type":"fractal-mutation","trial_index":57,"time_elapsed":981810,"internal_node_id":"0.0-5.0-3.0"},{"group":"hexagon_bi","fractal_assignment":["../images/ylw_slt.png","../images/blu_wht.png","../images/org_blu.png","../images/gry_blk.png","../images/pnk_blu.png","../images/cyn_red.png"],"mutagen_generator_assignment":[0,1],"goal":4,"start":3,"action_noise":0,"location_history":"[3,4]","action_history":"[0]","mutagen_history":"[0]","location_rts":"[510]","trial_type":"fractal-mutation","trial_index":58,"time_elapsed":987442,"internal_node_id":"0.0-5.0-4.0"},{"group":"hexagon_bi","fractal_assignment":["../images/ylw_slt.png","../images/blu_wht.png","../images/org_blu.png","../images/gry_blk.png","../images/pnk_blu.png","../images/cyn_red.png"],"mutagen_generator_assignment":[0,1],"goal":2,"start":4,"action_noise":0,"location_history":"[4,3,2]","action_history":"[0,1]","mutagen_history":"[0,1]","location_rts":"[536,452]","trial_type":"fractal-mutation","trial_index":59,"time_elapsed":994742,"internal_node_id":"0.0-5.0-5.0"},{"group":"hexagon_bi","fractal_assignment":["../images/ylw_slt.png","../images/blu_wht.png","../images/org_blu.png","../images/gry_blk.png","../images/pnk_blu.png","../images/cyn_red.png"],"mutagen_generator_assignment":[0,1],"goal":1,"start":2,"action_noise":0,"location_history":"[2,3,4,5,0,1]","action_history":"[1,0,1,0,1]","mutagen_history":"[1,0,1,0,1]","location_rts":"[424,344,424,340,378]","trial_type":"fractal-mutation","trial_index":60,"time_elapsed":1006460,"internal_node_id":"0.0-5.0-6.0"},{"group":"hexagon_bi","fractal_assignment":["../images/ylw_slt.png","../images/blu_wht.png","../images/org_blu.png","../images/gry_blk.png","../images/pnk_blu.png","../images/cyn_red.png"],"mutagen_generator_assignment":[0,1],"goal":5,"start":1,"action_noise":0,"location_history":"[1,2,3,4,5]","action_history":"[0,1,0,1]","mutagen_history":"[0,1,0,1]","location_rts":"[324,276,340,506]","trial_type":"fractal-mutation","trial_index":61,"time_elapsed":1016492,"internal_node_id":"0.0-5.0-7.0"},{"group":"hexagon_bi","fractal_assignment":["../images/ylw_slt.png","../images/blu_wht.png","../images/org_blu.png","../images/gry_blk.png","../images/pnk_blu.png","../images/cyn_red.png"],"mutagen_generator_assignment":[0,1],"goal":4,"start":5,"action_noise":0,"location_history":"[5,4]","action_history":"[1]","mutagen_history":"[1]","location_rts":"[394]","trial_type":"fractal-mutation","trial_index":62,"time_elapsed":1022068,"internal_node_id":"0.0-5.0-8.0"},{"group":"hexagon_bi","fractal_assignment":["../images/ylw_slt.png","../images/blu_wht.png","../images/org_blu.png","../images/gry_blk.png","../images/pnk_blu.png","../images/cyn_red.png"],"mutagen_generator_assignment":[0,1],"goal":2,"start":4,"action_noise":0,"location_history":"[4,3,2]","action_history":"[0,1]","mutagen_history":"[0,1]","location_rts":"[324,334]","trial_type":"fractal-mutation","trial_index":63,"time_elapsed":1029022,"internal_node_id":"0.0-5.0-9.0"},{"group":"hexagon_bi","fractal_assignment":["../images/ylw_slt.png","../images/blu_wht.png","../images/org_blu.png","../images/gry_blk.png","../images/pnk_blu.png","../images/cyn_red.png"],"mutagen_generator_assignment":[0,1],"goal":0,"start":2,"action_noise":0,"location_history":"[2,3,4,5,0]","action_history":"[1,0,1,0]","mutagen_history":"[1,0,1,0]","location_rts":"[320,252,304,348]","trial_type":"fractal-mutation","trial_index":64,"time_elapsed":1038880,"internal_node_id":"0.0-5.0-10.0"},{"group":"hexagon_bi","fractal_assignment":["../images/ylw_slt.png","../images/blu_wht.png","../images/org_blu.png","../images/gry_blk.png","../images/pnk_blu.png","../images/cyn_red.png"],"mutagen_generator_assignment":[0,1],"goal":1,"start":0,"action_noise":0,"location_history":"[0,1]","action_history":"[1]","mutagen_history":"[1]","location_rts":"[308]","trial_type":"fractal-mutation","trial_index":65,"time_elapsed":1044394,"internal_node_id":"0.0-5.0-11.0"},{"group":"hexagon_bi","fractal_assignment":["../images/ylw_slt.png","../images/blu_wht.png","../images/org_blu.png","../images/gry_blk.png","../images/pnk_blu.png","../images/cyn_red.png"],"mutagen_generator_assignment":[0,1],"goal":3,"start":1,"action_noise":0,"location_history":"[1,2,3]","action_history":"[0,1]","mutagen_history":"[0,1]","location_rts":"[444,436]","trial_type":"fractal-mutation","trial_index":66,"time_elapsed":1051568,"internal_node_id":"0.0-5.0-12.0"},{"group":"hexagon_bi","fractal_assignment":["../images/ylw_slt.png","../images/blu_wht.png","../images/org_blu.png","../images/gry_blk.png","../images/pnk_blu.png","../images/cyn_red.png"],"mutagen_generator_assignment":[0,1],"goal":5,"start":3,"action_noise":0,"location_history":"[3,4,5]","action_history":"[0,1]","mutagen_history":"[0,1]","location_rts":"[424,256]","trial_type":"fractal-mutation","trial_index":67,"time_elapsed":1058534,"internal_node_id":"0.0-5.0-13.0"},{"group":"hexagon_bi","fractal_assignment":["../images/ylw_slt.png","../images/blu_wht.png","../images/org_blu.png","../images/gry_blk.png","../images/pnk_blu.png","../images/cyn_red.png"],"mutagen_generator_assignment":[0,1],"goal":4,"start":5,"action_noise":0,"location_history":"[5,0,1,2,3,4]","action_history":"[0,1,0,1,0]","mutagen_history":"[0,1,0,1,0]","location_rts":"[424,378,400,370,394]","trial_type":"fractal-mutation","trial_index":68,"time_elapsed":1070166,"internal_node_id":"0.0-5.0-14.0"},{"group":"hexagon_bi","fractal_assignment":["../images/ylw_slt.png","../images/blu_wht.png","../images/org_blu.png","../images/gry_blk.png","../images/pnk_blu.png","../images/cyn_red.png"],"mutagen_generator_assignment":[0,1],"goal":0,"start":4,"action_noise":0,"location_history":"[4,3,2,1,0]","action_history":"[0,1,0,1]","mutagen_history":"[0,1,0,1]","location_rts":"[308,302,288,502]","trial_type":"fractal-mutation","trial_index":69,"time_elapsed":1080142,"internal_node_id":"0.0-5.0-15.0"},{"group":"hexagon_bi","fractal_assignment":["../images/ylw_slt.png","../images/blu_wht.png","../images/org_blu.png","../images/gry_blk.png","../images/pnk_blu.png","../images/cyn_red.png"],"mutagen_generator_assignment":[0,1],"goal":3,"start":0,"action_noise":0,"location_history":"[0,5,4,3]","action_history":"[0,1,0]","mutagen_history":"[0,1,0]","location_rts":"[332,300,480]","trial_type":"fractal-mutation","trial_index":70,"time_elapsed":1088660,"internal_node_id":"0.0-5.0-16.0"},{"group":"hexagon_bi","fractal_assignment":["../images/ylw_slt.png","../images/blu_wht.png","../images/org_blu.png","../images/gry_blk.png","../images/pnk_blu.png","../images/cyn_red.png"],"mutagen_generator_assignment":[0,1],"goal":1,"start":3,"action_noise":0,"location_history":"[3,4,5,0,1]","action_history":"[0,1,0,1]","mutagen_history":"[0,1,0,1]","location_rts":"[370,310,318,336]","trial_type":"fractal-mutation","trial_index":71,"time_elapsed":1098644,"internal_node_id":"0.0-5.0-17.0"},{"group":"hexagon_bi","fractal_assignment":["../images/ylw_slt.png","../images/blu_wht.png","../images/org_blu.png","../images/gry_blk.png","../images/pnk_blu.png","../images/cyn_red.png"],"mutagen_generator_assignment":[0,1],"goal":5,"start":1,"action_noise":0,"location_history":"[1,2,3,4,5]","action_history":"[0,1,0,1]","mutagen_history":"[0,1,0,1]","location_rts":"[366,346,330,370]","trial_type":"fractal-mutation","trial_index":72,"time_elapsed":1108620,"internal_node_id":"0.0-5.0-18.0"},{"group":"hexagon_bi","fractal_assignment":["../images/ylw_slt.png","../images/blu_wht.png","../images/org_blu.png","../images/gry_blk.png","../images/pnk_blu.png","../images/cyn_red.png"],"mutagen_generator_assignment":[0,1],"goal":2,"start":5,"action_noise":0,"location_history":"[5,0,1,2]","action_history":"[0,1,0]","mutagen_history":"[0,1,0]","location_rts":"[354,288,308]","trial_type":"fractal-mutation","trial_index":73,"time_elapsed":1116962,"internal_node_id":"0.0-5.0-19.0"},{"group":"hexagon_bi","fractal_assignment":["../images/ylw_slt.png","../images/blu_wht.png","../images/org_blu.png","../images/gry_blk.png","../images/pnk_blu.png","../images/cyn_red.png"],"mutagen_generator_assignment":[0,1],"goal":4,"start":2,"action_noise":0,"location_history":"[2,1,0,5,4]","action_history":"[0,1,0,1]","mutagen_history":"[0,1,0,1]","location_rts":"[376,270,336,284]","trial_type":"fractal-mutation","trial_index":74,"time_elapsed":1126786,"internal_node_id":"0.0-5.0-20.0"},{"group":"hexagon_bi","fractal_assignment":["../images/ylw_slt.png","../images/blu_wht.png","../images/org_blu.png","../images/gry_blk.png","../images/pnk_blu.png","../images/cyn_red.png"],"mutagen_generator_assignment":[0,1],"goal":1,"start":4,"action_noise":0,"location_history":"[4,5,0,1]","action_history":"[1,0,1]","mutagen_history":"[1,0,1]","location_rts":"[302,274,322]","trial_type":"fractal-mutation","trial_index":75,"time_elapsed":1135092,"internal_node_id":"0.0-5.0-21.0"},{"group":"hexagon_bi","fractal_assignment":["../images/ylw_slt.png","../images/blu_wht.png","../images/org_blu.png","../images/gry_blk.png","../images/pnk_blu.png","../images/cyn_red.png"],"mutagen_generator_assignment":[0,1],"goal":3,"start":1,"action_noise":0,"location_history":"[1,2,3]","action_history":"[0,1]","mutagen_history":"[0,1]","location_rts":"[440,280]","trial_type":"fractal-mutation","trial_index":76,"time_elapsed":1142094,"internal_node_id":"0.0-5.0-22.0"},{"group":"hexagon_bi","fractal_assignment":["../images/ylw_slt.png","../images/blu_wht.png","../images/org_blu.png","../images/gry_blk.png","../images/pnk_blu.png","../images/cyn_red.png"],"mutagen_generator_assignment":[0,1],"goal":2,"start":3,"action_noise":0,"location_history":"[3,2]","action_history":"[1]","mutagen_history":"[1]","location_rts":"[382]","trial_type":"fractal-mutation","trial_index":77,"time_elapsed":1147620,"internal_node_id":"0.0-5.0-23.0"},{"group":"hexagon_bi","fractal_assignment":["../images/ylw_slt.png","../images/blu_wht.png","../images/org_blu.png","../images/gry_blk.png","../images/pnk_blu.png","../images/cyn_red.png"],"mutagen_generator_assignment":[0,1],"goal":0,"start":2,"action_noise":0,"location_history":"[2,3,4,5,0]","action_history":"[1,0,1,0]","mutagen_history":"[1,0,1,0]","location_rts":"[454,298,348,374]","trial_type":"fractal-mutation","trial_index":78,"time_elapsed":1157650,"internal_node_id":"0.0-5.0-24.0"},{"group":"hexagon_bi","fractal_assignment":["../images/ylw_slt.png","../images/blu_wht.png","../images/org_blu.png","../images/gry_blk.png","../images/pnk_blu.png","../images/cyn_red.png"],"mutagen_generator_assignment":[0,1],"goal":5,"start":0,"action_noise":0,"location_history":"[0,5]","action_history":"[0]","mutagen_history":"[0]","location_rts":"[370]","trial_type":"fractal-mutation","trial_index":79,"time_elapsed":1163246,"internal_node_id":"0.0-5.0-25.0"},{"group":"hexagon_bi","fractal_assignment":["../images/ylw_slt.png","../images/blu_wht.png","../images/org_blu.png","../images/gry_blk.png","../images/pnk_blu.png","../images/cyn_red.png"],"mutagen_generator_assignment":[0,1],"goal":2,"start":5,"action_noise":0,"location_history":"[5,0,1,2]","action_history":"[0,1,0]","mutagen_history":"[0,1,0]","location_rts":"[388,342,402]","trial_type":"fractal-mutation","trial_index":80,"time_elapsed":1171776,"internal_node_id":"0.0-5.0-26.0"},{"group":"hexagon_bi","fractal_assignment":["../images/ylw_slt.png","../images/blu_wht.png","../images/org_blu.png","../images/gry_blk.png","../images/pnk_blu.png","../images/cyn_red.png"],"mutagen_generator_assignment":[0,1],"goal":3,"start":2,"action_noise":0,"location_history":"[2,3]","action_history":"[1]","mutagen_history":"[1]","location_rts":"[466]","trial_type":"fractal-mutation","trial_index":81,"time_elapsed":1177422,"internal_node_id":"0.0-5.0-27.0"},{"group":"hexagon_bi","fractal_assignment":["../images/ylw_slt.png","../images/blu_wht.png","../images/org_blu.png","../images/gry_blk.png","../images/pnk_blu.png","../images/cyn_red.png"],"mutagen_generator_assignment":[0,1],"goal":0,"start":3,"action_noise":0,"location_history":"[3,2,1,0]","action_history":"[1,0,1]","mutagen_history":"[1,0,1]","location_rts":"[610,326,354]","trial_type":"fractal-mutation","trial_index":82,"time_elapsed":1186196,"internal_node_id":"0.0-5.0-28.0"},{"group":"hexagon_bi","fractal_assignment":["../images/ylw_slt.png","../images/blu_wht.png","../images/org_blu.png","../images/gry_blk.png","../images/pnk_blu.png","../images/cyn_red.png"],"mutagen_generator_assignment":[0,1],"goal":1,"start":0,"action_noise":0,"location_history":"[0,1]","action_history":"[1]","mutagen_history":"[1]","location_rts":"[682]","trial_type":"fractal-mutation","trial_index":83,"time_elapsed":1192076,"internal_node_id":"0.0-5.0-29.0"},{"group":"hexagon_bi","fractal_assignment":["../images/ylw_slt.png","../images/blu_wht.png","../images/org_blu.png","../images/gry_blk.png","../images/pnk_blu.png","../images/cyn_red.png"],"mutagen_generator_assignment":[0,1],"goal":4,"start":1,"action_noise":0,"location_history":"[1,2,3,4]","action_history":"[0,1,0]","mutagen_history":"[0,1,0]","location_rts":"[372,334,452]","trial_type":"fractal-mutation","trial_index":84,"time_elapsed":1200636,"internal_node_id":"0.0-5.0-30.0"},{"group":"hexagon_bi","fractal_assignment":["../images/ylw_slt.png","../images/blu_wht.png","../images/org_blu.png","../images/gry_blk.png","../images/pnk_blu.png","../images/cyn_red.png"],"mutagen_generator_assignment":[0,1],"goal":5,"start":4,"action_noise":0,"location_history":"[4,3,2,1,0,5]","action_history":"[0,1,0,1,0]","mutagen_history":"[0,1,0,1,0]","location_rts":"[406,372,400,480,600]","trial_type":"fractal-mutation","trial_index":85,"time_elapsed":1212550,"internal_node_id":"0.0-5.0-31.0"},{"group":"hexagon_bi","fractal_assignment":["../images/ylw_slt.png","../images/blu_wht.png","../images/org_blu.png","../images/gry_blk.png","../images/pnk_blu.png","../images/cyn_red.png"],"mutagen_generator_assignment":[0,1],"goal":0,"start":5,"action_noise":0,"location_history":"[5,0]","action_history":"[0]","mutagen_history":"[0]","location_rts":"[670]","trial_type":"fractal-mutation","trial_index":86,"time_elapsed":1218322,"internal_node_id":"0.0-5.0-32.0"},{"group":"hexagon_bi","fractal_assignment":["../images/ylw_slt.png","../images/blu_wht.png","../images/org_blu.png","../images/gry_blk.png","../images/pnk_blu.png","../images/cyn_red.png"],"mutagen_generator_assignment":[0,1],"goal":3,"start":0,"action_noise":0,"location_history":"[0,5,4,3]","action_history":"[0,1,0]","mutagen_history":"[0,1,0]","location_rts":"[600,448,416]","trial_type":"fractal-mutation","trial_index":87,"time_elapsed":1227172,"internal_node_id":"0.0-5.0-33.0"},{"group":"hexagon_bi","fractal_assignment":["../images/ylw_slt.png","../images/blu_wht.png","../images/org_blu.png","../images/gry_blk.png","../images/pnk_blu.png","../images/cyn_red.png"],"mutagen_generator_assignment":[0,1],"goal":1,"start":3,"action_noise":0,"location_history":"[3,4,5,0,1]","action_history":"[0,1,0,1]","mutagen_history":"[0,1,0,1]","location_rts":"[336,486,358,516]","trial_type":"fractal-mutation","trial_index":88,"time_elapsed":1237450,"internal_node_id":"0.0-5.0-34.0"},{"group":"hexagon_bi","fractal_assignment":["../images/ylw_slt.png","../images/blu_wht.png","../images/org_blu.png","../images/gry_blk.png","../images/pnk_blu.png","../images/cyn_red.png"],"mutagen_generator_assignment":[0,1],"goal":2,"start":1,"action_noise":0,"location_history":"[1,0,5,4,3,2]","action_history":"[1,0,1,0,1]","mutagen_history":"[1,0,1,0,1]","location_rts":"[474,316,524,450,458]","trial_type":"fractal-mutation","trial_index":89,"time_elapsed":1249372,"internal_node_id":"0.0-5.0-35.0"},{"group":"hexagon_bi","fractal_assignment":["../images/ylw_slt.png","../images/blu_wht.png","../images/org_blu.png","../images/gry_blk.png","../images/pnk_blu.png","../images/cyn_red.png"],"mutagen_generator_assignment":[0,1],"goal":4,"start":2,"action_noise":0,"location_history":"[2,3,4]","action_history":"[1,0]","mutagen_history":"[1,0]","location_rts":"[358,496]","trial_type":"fractal-mutation","trial_index":90,"time_elapsed":1256544,"internal_node_id":"0.0-5.0-36.0"},{"group":"hexagon_bi","fractal_assignment":["../images/ylw_slt.png","../images/blu_wht.png","../images/org_blu.png","../images/gry_blk.png","../images/pnk_blu.png","../images/cyn_red.png"],"mutagen_generator_assignment":[0,1],"goal":5,"start":4,"action_noise":0,"location_history":"[4,5]","action_history":"[1]","mutagen_history":"[1]","location_rts":"[358]","trial_type":"fractal-mutation","trial_index":91,"time_elapsed":1262060,"internal_node_id":"0.0-5.0-37.0"},{"group":"hexagon_bi","fractal_assignment":["../images/ylw_slt.png","../images/blu_wht.png","../images/org_blu.png","../images/gry_blk.png","../images/pnk_blu.png","../images/cyn_red.png"],"mutagen_generator_assignment":[0,1],"goal":1,"start":5,"action_noise":0,"location_history":"[5,4,3,2,1]","action_history":"[1,0,1,0]","mutagen_history":"[1,0,1,0]","location_rts":"[492,372,508,392]","trial_type":"fractal-mutation","trial_index":92,"time_elapsed":1272398,"internal_node_id":"0.0-5.0-38.0"},{"group":"hexagon_bi","fractal_assignment":["../images/ylw_slt.png","../images/blu_wht.png","../images/org_blu.png","../images/gry_blk.png","../images/pnk_blu.png","../images/cyn_red.png"],"mutagen_generator_assignment":[0,1],"goal":4,"start":1,"action_noise":0,"location_history":"[1,2,3,4]","action_history":"[0,1,0]","mutagen_history":"[0,1,0]","location_rts":"[316,344,378]","trial_type":"fractal-mutation","trial_index":93,"time_elapsed":1280838,"internal_node_id":"0.0-5.0-39.0"},{"group":"hexagon_bi","fractal_assignment":["../images/ylw_slt.png","../images/blu_wht.png","../images/org_blu.png","../images/gry_blk.png","../images/pnk_blu.png","../images/cyn_red.png"],"mutagen_generator_assignment":[0,1],"goal":3,"start":4,"action_noise":0,"location_history":"[4,3]","action_history":"[0]","mutagen_history":"[0]","location_rts":"[356]","trial_type":"fractal-mutation","trial_index":94,"time_elapsed":1286306,"internal_node_id":"0.0-5.0-40.0"},{"group":"hexagon_bi","fractal_assignment":["../images/ylw_slt.png","../images/blu_wht.png","../images/org_blu.png","../images/gry_blk.png","../images/pnk_blu.png","../images/cyn_red.png"],"mutagen_generator_assignment":[0,1],"goal":2,"start":3,"action_noise":0,"location_history":"[3,2]","action_history":"[1]","mutagen_history":"[1]","location_rts":"[376]","trial_type":"fractal-mutation","trial_index":95,"time_elapsed":1291850,"internal_node_id":"0.0-5.0-41.0"},{"group":"hexagon_bi","fractal_assignment":["../images/ylw_slt.png","../images/blu_wht.png","../images/org_blu.png","../images/gry_blk.png","../images/pnk_blu.png","../images/cyn_red.png"],"mutagen_generator_assignment":[0,1],"goal":0,"start":2,"action_noise":0,"location_history":"[2,1,0]","action_history":"[0,1]","mutagen_history":"[0,1]","location_rts":"[346,372]","trial_type":"fractal-mutation","trial_index":96,"time_elapsed":1298830,"internal_node_id":"0.0-5.0-42.0"},{"group":"hexagon_bi","fractal_assignment":["../images/ylw_slt.png","../images/blu_wht.png","../images/org_blu.png","../images/gry_blk.png","../images/pnk_blu.png","../images/cyn_red.png"],"mutagen_generator_assignment":[0,1],"goal":5,"start":0,"action_noise":0,"location_history":"[0,5]","action_history":"[0]","mutagen_history":"[0]","location_rts":"[314]","trial_type":"fractal-mutation","trial_index":97,"time_elapsed":1304282,"internal_node_id":"0.0-5.0-43.0"},{"group":"hexagon_bi","fractal_assignment":["../images/ylw_slt.png","../images/blu_wht.png","../images/org_blu.png","../images/gry_blk.png","../images/pnk_blu.png","../images/cyn_red.png"],"mutagen_generator_assignment":[0,1],"goal":0,"start":5,"action_noise":0,"location_history":"[5,4,3,2,1,0]","action_history":"[1,0,1,0,1]","mutagen_history":"[1,0,1,0,1]","location_rts":"[392,282,422,380,546]","trial_type":"fractal-mutation","trial_index":98,"time_elapsed":1316212,"internal_node_id":"0.0-5.0-44.0"},{"group":"hexagon_bi","fractal_assignment":["../images/ylw_slt.png","../images/blu_wht.png","../images/org_blu.png","../images/gry_blk.png","../images/pnk_blu.png","../images/cyn_red.png"],"mutagen_generator_assignment":[0,1],"goal":2,"start":0,"action_noise":0,"location_history":"[0,5,4,3,2]","action_history":"[0,1,0,1]","mutagen_history":"[0,1,0,1]","location_rts":"[384,396,382,454]","trial_type":"fractal-mutation","trial_index":99,"time_elapsed":1326460,"internal_node_id":"0.0-5.0-45.0"},{"group":"hexagon_bi","fractal_assignment":["../images/ylw_slt.png","../images/blu_wht.png","../images/org_blu.png","../images/gry_blk.png","../images/pnk_blu.png","../images/cyn_red.png"],"mutagen_generator_assignment":[0,1],"goal":4,"start":2,"action_noise":0,"location_history":"[2,3,4]","action_history":"[1,0]","mutagen_history":"[1,0]","location_rts":"[620,380]","trial_type":"fractal-mutation","trial_index":100,"time_elapsed":1333776,"internal_node_id":"0.0-5.0-46.0"},{"group":"hexagon_bi","fractal_assignment":["../images/ylw_slt.png","../images/blu_wht.png","../images/org_blu.png","../images/gry_blk.png","../images/pnk_blu.png","../images/cyn_red.png"],"mutagen_generator_assignment":[0,1],"goal":1,"start":4,"action_noise":0,"location_history":"[4,3,2,1]","action_history":"[0,1,0]","mutagen_history":"[0,1,0]","location_rts":"[386,406,400]","trial_type":"fractal-mutation","trial_index":101,"time_elapsed":1342382,"internal_node_id":"0.0-5.0-47.0"},{"group":"hexagon_bi","fractal_assignment":["../images/ylw_slt.png","../images/blu_wht.png","../images/org_blu.png","../images/gry_blk.png","../images/pnk_blu.png","../images/cyn_red.png"],"mutagen_generator_assignment":[0,1],"goal":5,"start":1,"action_noise":0,"location_history":"[1,2,3,4,5]","action_history":"[0,1,0,1]","mutagen_history":"[0,1,0,1]","location_rts":"[332,446,424,754]","trial_type":"fractal-mutation","trial_index":102,"time_elapsed":1352898,"internal_node_id":"0.0-5.0-48.0"},{"group":"hexagon_bi","fractal_assignment":["../images/ylw_slt.png","../images/blu_wht.png","../images/org_blu.png","../images/gry_blk.png","../images/pnk_blu.png","../images/cyn_red.png"],"mutagen_generator_assignment":[0,1],"goal":3,"start":5,"action_noise":0,"location_history":"[5,4,3]","action_history":"[1,0]","mutagen_history":"[1,0]","location_rts":"[348,366]","trial_type":"fractal-mutation","trial_index":103,"time_elapsed":1359854,"internal_node_id":"0.0-5.0-49.0"},{"view_history":"[{\"page_index\":0,\"viewing_time\":3276}]","rt":3276,"trial_type":"instructions","trial_index":104,"time_elapsed":1364132,"internal_node_id":"0.0-6.0"},{"rt":3168,"responses":"{\"Q0\":\"no\"}","trial_type":"survey-text","trial_index":105,"time_elapsed":1368314,"internal_node_id":"0.0-7.0"}]