[{"view_history":"[{\"page_index\":0,\"viewing_time\":3654},{\"page_index\":1,\"viewing_time\":220678}]","rt":224333,"trial_type":"instructions","trial_index":0,"time_elapsed":224334,"internal_node_id":"0.0-0.0"},{"view_history":"[{\"page_index\":0,\"viewing_time\":1405},{\"page_index\":1,\"viewing_time\":5047}]","rt":6452,"trial_type":"instructions","trial_index":1,"time_elapsed":231788,"internal_node_id":"0.0-1.0"},{"group":"hexagon_bi","room_assignment":["blue","green","grey","red","yellow","purple"],"door_color_assignment":["black","white"],"door_generator_assignment":[0,1],"goal":3,"start":5,"action_noise":0,"location_history":"[5,4,3]","action_history":"[1,0]","door_history":"[1,0]","location_rts":"[19145,2823]","trial_type":"two-door-navigation","trial_index":2,"time_elapsed":259807,"internal_node_id":"0.0-2.0-0.0"},{"group":"hexagon_bi","room_assignment":["blue","green","grey","red","yellow","purple"],"door_color_assignment":["black","white"],"door_generator_assignment":[0,1],"goal":1,"start":3,"action_noise":0,"location_history":"[3,2,1]","action_history":"[1,0]","door_history":"[1,0]","location_rts":"[111843,421]","trial_type":"two-door-navigation","trial_index":3,"time_elapsed":378130,"internal_node_id":"0.0-2.0-1.0"},{"group":"hexagon_bi","room_assignment":["blue","green","grey","red","yellow","purple"],"door_color_assignment":["black","white"],"door_generator_assignment":[0,1],"goal":0,"start":1,"action_noise":0,"location_history":"[1,0]","action_history":"[1]","door_history":"[1]","location_rts":"[2907]","trial_type":"two-door-navigation","trial_index":4,"time_elapsed":386073,"internal_node_id":"0.0-2.0-2.0"},{"group":"hexagon_bi","room_assignment":["blue","green","grey","red","yellow","purple"],"door_color_assignment":["black","white"],"door_generator_assignment":[0,1],"goal":3,"start":0,"action_noise":0,"location_history":"[0,1,2,3]","action_history":"[1,0,1]","door_history":"[1,0,1]","location_rts":"[9556,528,4782]","trial_type":"two-door-navigation","trial_index":5,"time_elapsed":408011,"internal_node_id":"0.0-2.0-3.0"},{"group":"hexagon_bi","room_assignment":["blue","green","grey","red","yellow","purple"],"door_color_assignment":["black","white"],"door_generator_assignment":[0,1],"goal":4,"start":3,"action_noise":0,"location_history":"[3,4]","action_history":"[0]","door_history":"[0]","location_rts":"[6134]","trial_type":"two-door-navigation","trial_index":6,"time_elapsed":419171,"internal_node_id":"0.0-2.0-4.0"},{"group":"hexagon_bi","room_assignment":["blue","green","grey","red","yellow","purple"],"door_color_assignment":["black","white"],"door_generator_assignment":[0,1],"goal":2,"start":4,"action_noise":0,"location_history":"[4,3,2]","action_history":"[0,1]","door_history":"[0,1]","location_rts":"[4333,283]","trial_type":"two-door-navigation","trial_index":7,"time_elapsed":429837,"internal_node_id":"0.0-2.0-5.0"},{"group":"hexagon_bi","room_assignment":["blue","green","grey","red","yellow","purple"],"door_color_assignment":["black","white"],"door_generator_assignment":[0,1],"goal":1,"start":2,"action_noise":0,"location_history":"[2,1]","action_history":"[0]","door_history":"[0]","location_rts":"[2230]","trial_type":"two-door-navigation","trial_index":8,"time_elapsed":437089,"internal_node_id":"0.0-2.0-6.0"},{"group":"hexagon_bi","room_assignment":["blue","green","grey","red","yellow","purple"],"door_color_assignment":["black","white"],"door_generator_assignment":[0,1],"goal":5,"start":1,"action_noise":0,"location_history":"[1,0,5]","action_history":"[1,0]","door_history":"[1,0]","location_rts":"[8376,54]","trial_type":"two-door-navigation","trial_index":9,"time_elapsed":451562,"internal_node_id":"0.0-2.0-7.0"},{"group":"hexagon_bi","room_assignment":["blue","green","grey","red","yellow","purple"],"door_color_assignment":["black","white"],"door_generator_assignment":[0,1],"goal":4,"start":5,"action_noise":0,"location_history":"[5,4]","action_history":"[1]","door_history":"[1]","location_rts":"[5543]","trial_type":"two-door-navigation","trial_index":10,"time_elapsed":462131,"internal_node_id":"0.0-2.0-8.0"},{"group":"hexagon_bi","room_assignment":["blue","green","grey","red","yellow","purple"],"door_color_assignment":["black","white"],"door_generator_assignment":[0,1],"goal":2,"start":4,"action_noise":0,"location_history":"[4,3,2]","action_history":"[0,1]","door_history":"[0,1]","location_rts":"[5343,148]","trial_type":"two-door-navigation","trial_index":11,"time_elapsed":474799,"internal_node_id":"0.0-2.0-9.0"},{"group":"hexagon_bi","room_assignment":["blue","green","grey","red","yellow","purple"],"door_color_assignment":["black","white"],"door_generator_assignment":[0,1],"goal":0,"start":2,"action_noise":0,"location_history":"[2,1,0]","action_history":"[0,1]","door_history":"[0,1]","location_rts":"[5061,263]","trial_type":"two-door-navigation","trial_index":12,"time_elapsed":486190,"internal_node_id":"0.0-2.0-10.0"},{"group":"hexagon_bi","room_assignment":["blue","green","grey","red","yellow","purple"],"door_color_assignment":["black","white"],"door_generator_assignment":[0,1],"goal":1,"start":0,"action_noise":0,"location_history":"[0,1]","action_history":"[1]","door_history":"[1]","location_rts":"[2172]","trial_type":"two-door-navigation","trial_index":13,"time_elapsed":493389,"internal_node_id":"0.0-2.0-11.0"},{"group":"hexagon_bi","room_assignment":["blue","green","grey","red","yellow","purple"],"door_color_assignment":["black","white"],"door_generator_assignment":[0,1],"goal":3,"start":1,"action_noise":0,"location_history":"[1,2,3]","action_history":"[0,1]","door_history":"[0,1]","location_rts":"[4070,660]","trial_type":"two-door-navigation","trial_index":14,"time_elapsed":504169,"internal_node_id":"0.0-2.0-12.0"},{"group":"hexagon_bi","room_assignment":["blue","green","grey","red","yellow","purple"],"door_color_assignment":["black","white"],"door_generator_assignment":[0,1],"goal":5,"start":3,"action_noise":0,"location_history":"[3,4,5]","action_history":"[0,1]","door_history":"[0,1]","location_rts":"[9214,60]","trial_type":"two-door-navigation","trial_index":15,"time_elapsed":519490,"internal_node_id":"0.0-2.0-13.0"},{"group":"hexagon_bi","room_assignment":["blue","green","grey","red","yellow","purple"],"door_color_assignment":["black","white"],"door_generator_assignment":[0,1],"goal":4,"start":5,"action_noise":0,"location_history":"[5,4]","action_history":"[1]","door_history":"[1]","location_rts":"[5103]","trial_type":"two-door-navigation","trial_index":16,"time_elapsed":529620,"internal_node_id":"0.0-2.0-14.0"},{"group":"hexagon_bi","room_assignment":["blue","green","grey","red","yellow","purple"],"door_color_assignment":["black","white"],"door_generator_assignment":[0,1],"goal":0,"start":4,"action_noise":0,"location_history":"[4,5,0]","action_history":"[1,0]","door_history":"[1,0]","location_rts":"[15559,494]","trial_type":"two-door-navigation","trial_index":17,"time_elapsed":551712,"internal_node_id":"0.0-2.0-15.0"},{"group":"hexagon_bi","room_assignment":["blue","green","grey","red","yellow","purple"],"door_color_assignment":["black","white"],"door_generator_assignment":[0,1],"goal":3,"start":0,"action_noise":0,"location_history":"[0,1,2,3]","action_history":"[1,0,1]","door_history":"[1,0,1]","location_rts":"[6628,250,21]","trial_type":"two-door-navigation","trial_index":18,"time_elapsed":565699,"internal_node_id":"0.0-2.0-16.0"},{"group":"hexagon_bi","room_assignment":["blue","green","grey","red","yellow","purple"],"door_color_assignment":["black","white"],"door_generator_assignment":[0,1],"goal":1,"start":3,"action_noise":0,"location_history":"[3,2,1]","action_history":"[1,0]","door_history":"[1,0]","location_rts":"[9877,591]","trial_type":"two-door-navigation","trial_index":19,"time_elapsed":587894,"internal_node_id":"0.0-2.0-17.0"},{"group":"hexagon_bi","room_assignment":["blue","green","grey","red","yellow","purple"],"door_color_assignment":["black","white"],"door_generator_assignment":[0,1],"goal":5,"start":1,"action_noise":0,"location_history":"[1,0,5]","action_history":"[1,0]","door_history":"[1,0]","location_rts":"[154705,178]","trial_type":"two-door-navigation","trial_index":20,"time_elapsed":748820,"internal_node_id":"0.0-2.0-18.0"},{"group":"hexagon_bi","room_assignment":["blue","green","grey","red","yellow","purple"],"door_color_assignment":["black","white"],"door_generator_assignment":[0,1],"goal":2,"start":5,"action_noise":0,"location_history":"[5,0,1,2]","action_history":"[0,1,0]","door_history":"[0,1,0]","location_rts":"[4438,326,1441]","trial_type":"two-door-navigation","trial_index":21,"time_elapsed":762082,"internal_node_id":"0.0-2.0-19.0"},{"group":"hexagon_bi","room_assignment":["blue","green","grey","red","yellow","purple"],"door_color_assignment":["black","white"],"door_generator_assignment":[0,1],"goal":4,"start":2,"action_noise":0,"location_history":"[2,3,4]","action_history":"[1,0]","door_history":"[1,0]","location_rts":"[5616,235]","trial_type":"two-door-navigation","trial_index":22,"time_elapsed":773978,"internal_node_id":"0.0-2.0-20.0"},{"group":"hexagon_bi","room_assignment":["blue","green","grey","red","yellow","purple"],"door_color_assignment":["black","white"],"door_generator_assignment":[0,1],"goal":1,"start":4,"action_noise":0,"location_history":"[4,3,2,1]","action_history":"[0,1,0]","door_history":"[0,1,0]","location_rts":"[12753,731,668]","trial_type":"two-door-navigation","trial_index":23,"time_elapsed":795195,"internal_node_id":"0.0-2.0-21.0"},{"group":"hexagon_bi","room_assignment":["blue","green","grey","red","yellow","purple"],"door_color_assignment":["black","white"],"door_generator_assignment":[0,1],"goal":3,"start":1,"action_noise":0,"location_history":"[1,2,3]","action_history":"[0,1]","door_history":"[0,1]","location_rts":"[9367,110]","trial_type":"two-door-navigation","trial_index":24,"time_elapsed":810713,"internal_node_id":"0.0-2.0-22.0"},{"group":"hexagon_bi","room_assignment":["blue","green","grey","red","yellow","purple"],"door_color_assignment":["black","white"],"door_generator_assignment":[0,1],"goal":2,"start":3,"action_noise":0,"location_history":"[3,2]","action_history":"[1]","door_history":"[1]","location_rts":"[3484]","trial_type":"two-door-navigation","trial_index":25,"time_elapsed":820554,"internal_node_id":"0.0-2.0-23.0"},{"group":"hexagon_bi","room_assignment":["blue","green","grey","red","yellow","purple"],"door_color_assignment":["black","white"],"door_generator_assignment":[0,1],"goal":0,"start":2,"action_noise":0,"location_history":"[2,1,0]","action_history":"[0,1]","door_history":"[0,1]","location_rts":"[4048,174]","trial_type":"two-door-navigation","trial_index":26,"time_elapsed":830831,"internal_node_id":"0.0-2.0-24.0"},{"group":"hexagon_bi","room_assignment":["blue","green","grey","red","yellow","purple"],"door_color_assignment":["black","white"],"door_generator_assignment":[0,1],"goal":5,"start":0,"action_noise":0,"location_history":"[0,5]","action_history":"[0]","door_history":"[0]","location_rts":"[11573]","trial_type":"two-door-navigation","trial_index":27,"time_elapsed":847427,"internal_node_id":"0.0-2.0-25.0"},{"group":"hexagon_bi","room_assignment":["blue","green","grey","red","yellow","purple"],"door_color_assignment":["black","white"],"door_generator_assignment":[0,1],"goal":2,"start":5,"action_noise":0,"location_history":"[5,0,1,2]","action_history":"[0,1,0]","door_history":"[0,1,0]","location_rts":"[6824,287,1799]","trial_type":"two-door-navigation","trial_index":28,"time_elapsed":863416,"internal_node_id":"0.0-2.0-26.0"},{"group":"hexagon_bi","room_assignment":["blue","green","grey","red","yellow","purple"],"door_color_assignment":["black","white"],"door_generator_assignment":[0,1],"goal":3,"start":2,"action_noise":0,"location_history":"[2,3]","action_history":"[1]","door_history":"[1]","location_rts":"[3305]","trial_type":"two-door-navigation","trial_index":29,"time_elapsed":871755,"internal_node_id":"0.0-2.0-27.0"},{"group":"hexagon_bi","room_assignment":["blue","green","grey","red","yellow","purple"],"door_color_assignment":["black","white"],"door_generator_assignment":[0,1],"goal":0,"start":3,"action_noise":0,"location_history":"[3,4,5,0]","action_history":"[0,1,0]","door_history":"[0,1,0]","location_rts":"[10903,235,1669]","trial_type":"two-door-navigation","trial_index":30,"time_elapsed":891630,"internal_node_id":"0.0-2.0-28.0"},{"group":"hexagon_bi","room_assignment":["blue","green","grey","red","yellow","purple"],"door_color_assignment":["black","white"],"door_generator_assignment":[0,1],"goal":1,"start":0,"action_noise":0,"location_history":"[0,1]","action_history":"[1]","door_history":"[1]","location_rts":"[3023]","trial_type":"two-door-navigation","trial_index":31,"time_elapsed":899677,"internal_node_id":"0.0-2.0-29.0"},{"group":"hexagon_bi","room_assignment":["blue","green","grey","red","yellow","purple"],"door_color_assignment":["black","white"],"door_generator_assignment":[0,1],"goal":4,"start":1,"action_noise":0,"location_history":"[1,0,5,4]","action_history":"[1,0,1]","door_history":"[1,0,1]","location_rts":"[17741,880,377]","trial_type":"two-door-navigation","trial_index":32,"time_elapsed":925742,"internal_node_id":"0.0-2.0-30.0"},{"group":"hexagon_bi","room_assignment":["blue","green","grey","red","yellow","purple"],"door_color_assignment":["black","white"],"door_generator_assignment":[0,1],"goal":5,"start":4,"action_noise":0,"location_history":"[4,5]","action_history":"[1]","door_history":"[1]","location_rts":"[2005]","trial_type":"two-door-navigation","trial_index":33,"time_elapsed":932775,"internal_node_id":"0.0-2.0-31.0"},{"group":"hexagon_bi","room_assignment":["blue","green","grey","red","yellow","purple"],"door_color_assignment":["black","white"],"door_generator_assignment":[0,1],"goal":0,"start":5,"action_noise":0,"location_history":"[5,0]","action_history":"[0]","door_history":"[0]","location_rts":"[29515]","trial_type":"two-door-navigation","trial_index":34,"time_elapsed":967313,"internal_node_id":"0.0-2.0-32.0"},{"group":"hexagon_bi","room_assignment":["blue","green","grey","red","yellow","purple"],"door_color_assignment":["black","white"],"door_generator_assignment":[0,1],"goal":3,"start":0,"action_noise":0,"location_history":"[0,1,2,1,2,3]","action_history":"[1,0,0,0,1]","door_history":"[1,0,0,0,1]","location_rts":"[22697,269,1199,2173,2535]","trial_type":"two-door-navigation","trial_index":35,"time_elapsed":1005283,"internal_node_id":"0.0-2.0-33.0"},{"group":"hexagon_bi","room_assignment":["blue","green","grey","red","yellow","purple"],"door_color_assignment":["black","white"],"door_generator_assignment":[0,1],"goal":1,"start":3,"action_noise":0,"location_history":"[3,2,1]","action_history":"[1,0]","door_history":"[1,0]","location_rts":"[5271,60]","trial_type":"two-door-navigation","trial_index":36,"time_elapsed":1017613,"internal_node_id":"0.0-2.0-34.0"},{"group":"hexagon_bi","room_assignment":["blue","green","grey","red","yellow","purple"],"door_color_assignment":["black","white"],"door_generator_assignment":[0,1],"goal":2,"start":1,"action_noise":0,"location_history":"[1,2]","action_history":"[0]","door_history":"[0]","location_rts":"[1957]","trial_type":"two-door-navigation","trial_index":37,"time_elapsed":1024598,"internal_node_id":"0.0-2.0-35.0"},{"group":"hexagon_bi","room_assignment":["blue","green","grey","red","yellow","purple"],"door_color_assignment":["black","white"],"door_generator_assignment":[0,1],"goal":4,"start":2,"action_noise":0,"location_history":"[2,3,4]","action_history":"[1,0]","door_history":"[1,0]","location_rts":"[7413,89]","trial_type":"two-door-navigation","trial_index":38,"time_elapsed":1038170,"internal_node_id":"0.0-2.0-36.0"},{"group":"hexagon_bi","room_assignment":["blue","green","grey","red","yellow","purple"],"door_color_assignment":["black","white"],"door_generator_assignment":[0,1],"goal":5,"start":4,"action_noise":0,"location_history":"[4,5]","action_history":"[1]","door_history":"[1]","location_rts":"[2223]","trial_type":"two-door-navigation","trial_index":39,"time_elapsed":1045423,"internal_node_id":"0.0-2.0-37.0"},{"group":"hexagon_bi","room_assignment":["blue","green","grey","red","yellow","purple"],"door_color_assignment":["black","white"],"door_generator_assignment":[0,1],"goal":1,"start":5,"action_noise":0,"location_history":"[5,0,1]","action_history":"[0,1]","door_history":"[0,1]","location_rts":"[5425,287]","trial_type":"two-door-navigation","trial_index":40,"time_elapsed":1057182,"internal_node_id":"0.0-2.0-38.0"},{"group":"hexagon_bi","room_assignment":["blue","green","grey","red","yellow","purple"],"door_color_assignment":["black","white"],"door_generator_assignment":[0,1],"goal":4,"start":1,"action_noise":0,"location_history":"[1,0,5,4]","action_history":"[1,0,1]","door_history":"[1,0,1]","location_rts":"[9245,222,317]","trial_type":"two-door-navigation","trial_index":41,"time_elapsed":1074031,"internal_node_id":"0.0-2.0-39.0"},{"group":"hexagon_bi","room_assignment":["blue","green","grey","red","yellow","purple"],"door_color_assignment":["black","white"],"door_generator_assignment":[0,1],"goal":3,"start":4,"action_noise":0,"location_history":"[4,3]","action_history":"[0]","door_history":"[0]","location_rts":"[5204]","trial_type":"two-door-navigation","trial_index":42,"time_elapsed":1084305,"internal_node_id":"0.0-2.0-40.0"},{"group":"hexagon_bi","room_assignment":["blue","green","grey","red","yellow","purple"],"door_color_assignment":["black","white"],"door_generator_assignment":[0,1],"goal":2,"start":3,"action_noise":0,"location_history":"[3,2]","action_history":"[1]","door_history":"[1]","location_rts":"[1857]","trial_type":"two-door-navigation","trial_index":43,"time_elapsed":1091179,"internal_node_id":"0.0-2.0-41.0"},{"group":"hexagon_bi","room_assignment":["blue","green","grey","red","yellow","purple"],"door_color_assignment":["black","white"],"door_generator_assignment":[0,1],"goal":0,"start":2,"action_noise":0,"location_history":"[2,1,0]","action_history":"[0,1]","door_history":"[0,1]","location_rts":"[16024,594]","trial_type":"two-door-navigation","trial_index":44,"time_elapsed":1113841,"internal_node_id":"0.0-2.0-42.0"},{"group":"hexagon_bi","room_assignment":["blue","green","grey","red","yellow","purple"],"door_color_assignment":["black","white"],"door_generator_assignment":[0,1],"goal":5,"start":0,"action_noise":0,"location_history":"[0,5]","action_history":"[0]","door_history":"[0]","location_rts":"[2195]","trial_type":"two-door-navigation","trial_index":45,"time_elapsed":1121057,"internal_node_id":"0.0-2.0-43.0"},{"group":"hexagon_bi","room_assignment":["blue","green","grey","red","yellow","purple"],"door_color_assignment":["black","white"],"door_generator_assignment":[0,1],"goal":0,"start":5,"action_noise":0,"location_history":"[5,0]","action_history":"[0]","door_history":"[0]","location_rts":"[1922]","trial_type":"two-door-navigation","trial_index":46,"time_elapsed":1128003,"internal_node_id":"0.0-2.0-44.0"},{"group":"hexagon_bi","room_assignment":["blue","green","grey","red","yellow","purple"],"door_color_assignment":["black","white"],"door_generator_assignment":[0,1],"goal":2,"start":0,"action_noise":0,"location_history":"[0,1,2]","action_history":"[1,0]","door_history":"[1,0]","location_rts":"[14080,27]","trial_type":"two-door-navigation","trial_index":47,"time_elapsed":1148169,"internal_node_id":"0.0-2.0-45.0"},{"group":"hexagon_bi","room_assignment":["blue","green","grey","red","yellow","purple"],"door_color_assignment":["black","white"],"door_generator_assignment":[0,1],"goal":4,"start":2,"action_noise":0,"location_history":"[2,3,4]","action_history":"[1,0]","door_history":"[1,0]","location_rts":"[4808,25176]","trial_type":"two-door-navigation","trial_index":48,"time_elapsed":1184195,"internal_node_id":"0.0-2.0-46.0"},{"group":"hexagon_bi","room_assignment":["blue","green","grey","red","yellow","purple"],"door_color_assignment":["black","white"],"door_generator_assignment":[0,1],"goal":1,"start":4,"action_noise":0,"location_history":"[4,5,0,5,0,1]","action_history":"[1,0,0,0,1]","door_history":"[1,0,0,0,1]","location_rts":"[12393,201,281,813,3260]","trial_type":"two-door-navigation","trial_index":49,"time_elapsed":1210236,"internal_node_id":"0.0-2.0-47.0"},{"group":"hexagon_bi","room_assignment":["blue","green","grey","red","yellow","purple"],"door_color_assignment":["black","white"],"door_generator_assignment":[0,1],"goal":5,"start":1,"action_noise":0,"location_history":"[1,0,5]","action_history":"[1,0]","door_history":"[1,0]","location_rts":"[4238,136]","trial_type":"two-door-navigation","trial_index":50,"time_elapsed":1221536,"internal_node_id":"0.0-2.0-48.0"},{"group":"hexagon_bi","room_assignment":["blue","green","grey","red","yellow","purple"],"door_color_assignment":["black","white"],"door_generator_assignment":[0,1],"goal":3,"start":5,"action_noise":0,"location_history":"[5,4,3]","action_history":"[1,0]","door_history":"[1,0]","location_rts":"[7924,668]","trial_type":"two-door-navigation","trial_index":51,"time_elapsed":1236190,"internal_node_id":"0.0-2.0-49.0"},{"view_history":"[{\"page_index\":0,\"viewing_time\":1501}]","rt":1501,"trial_type":"instructions","trial_index":52,"time_elapsed":1238692,"internal_node_id":"0.0-3.0"},{"view_history":"[{\"page_index\":0,\"viewing_time\":623},{\"page_index\":1,\"viewing_time\":2536}]","rt":3159,"trial_type":"instructions","trial_index":53,"time_elapsed":1242852,"internal_node_id":"0.0-4.0"},{"group":"hexagon_tri","fractal_assignment":["../images/cyn_red.png","../images/blu_wht.png","../images/gry_blk.png","../images/ylw_slt.png","../images/pnk_blu.png","../images/org_blu.png"],"mutagen_generator_assignment":[1,0],"goal":3,"start":5,"action_noise":0,"location_history":"[5,0,1,3]","action_history":"[1,1,0]","mutagen_history":"[0,0,1]","location_rts":"[8881,905,443]","trial_type":"fractal-mutation","trial_index":54,"time_elapsed":1260189,"internal_node_id":"0.0-5.0-0.0"},{"group":"hexagon_tri","fractal_assignment":["../images/cyn_red.png","../images/blu_wht.png","../images/gry_blk.png","../images/ylw_slt.png","../images/pnk_blu.png","../images/org_blu.png"],"mutagen_generator_assignment":[1,0],"goal":1,"start":3,"action_noise":0,"location_history":"[3,4,0,1]","action_history":"[1,0,1]","mutagen_history":"[0,1,0]","location_rts":"[3369,453,726]","trial_type":"fractal-mutation","trial_index":55,"time_elapsed":1271856,"internal_node_id":"0.0-5.0-1.0"},{"group":"hexagon_tri","fractal_assignment":["../images/cyn_red.png","../images/blu_wht.png","../images/gry_blk.png","../images/ylw_slt.png","../images/pnk_blu.png","../images/org_blu.png"],"mutagen_generator_assignment":[1,0],"goal":0,"start":1,"action_noise":0,"location_history":"[1,3,2,1,5,0]","action_history":"[0,0,0,1,1]","mutagen_history":"[1,1,1,0,0]","location_rts":"[27580,605,553,306,548]","trial_type":"fractal-mutation","trial_index":56,"time_elapsed":1310606,"internal_node_id":"0.0-5.0-2.0"},{"group":"hexagon_tri","fractal_assignment":["../images/cyn_red.png","../images/blu_wht.png","../images/gry_blk.png","../images/ylw_slt.png","../images/pnk_blu.png","../images/org_blu.png"],"mutagen_generator_assignment":[1,0],"goal":3,"start":0,"action_noise":0,"location_history":"[0,5,4,2,3]","action_history":"[0,0,1,1]","mutagen_history":"[1,1,0,0]","location_rts":"[2111,818,965,7983]","trial_type":"fractal-mutation","trial_index":57,"time_elapsed":1330614,"internal_node_id":"0.0-5.0-3.0"},{"group":"hexagon_tri","fractal_assignment":["../images/cyn_red.png","../images/blu_wht.png","../images/gry_blk.png","../images/ylw_slt.png","../images/pnk_blu.png","../images/org_blu.png"],"mutagen_generator_assignment":[1,0],"goal":4,"start":3,"action_noise":0,"location_history":"[3,4]","action_history":"[1]","mutagen_history":"[0]","location_rts":"[1894]","trial_type":"fractal-mutation","trial_index":58,"time_elapsed":1337535,"internal_node_id":"0.0-5.0-4.0"},{"group":"hexagon_tri","fractal_assignment":["../images/cyn_red.png","../images/blu_wht.png","../images/gry_blk.png","../images/ylw_slt.png","../images/pnk_blu.png","../images/org_blu.png"],"mutagen_generator_assignment":[1,0],"goal":2,"start":4,"action_noise":0,"location_history":"[4,2]","action_history":"[1]","mutagen_history":"[0]","location_rts":"[12193]","trial_type":"fractal-mutation","trial_index":59,"time_elapsed":1354756,"internal_node_id":"0.0-5.0-5.0"},{"group":"hexagon_tri","fractal_assignment":["../images/cyn_red.png","../images/blu_wht.png","../images/gry_blk.png","../images/ylw_slt.png","../images/pnk_blu.png","../images/org_blu.png"],"mutagen_generator_assignment":[1,0],"goal":1,"start":2,"action_noise":0,"location_history":"[2,1]","action_history":"[0]","mutagen_history":"[1]","location_rts":"[7535]","trial_type":"fractal-mutation","trial_index":60,"time_elapsed":1367342,"internal_node_id":"0.0-5.0-6.0"},{"group":"hexagon_tri","fractal_assignment":["../images/cyn_red.png","../images/blu_wht.png","../images/gry_blk.png","../images/ylw_slt.png","../images/pnk_blu.png","../images/org_blu.png"],"mutagen_generator_assignment":[1,0],"goal":5,"start":1,"action_noise":0,"location_history":"[1,5]","action_history":"[1]","mutagen_history":"[0]","location_rts":"[5880]","trial_type":"fractal-mutation","trial_index":61,"time_elapsed":1378258,"internal_node_id":"0.0-5.0-7.0"},{"group":"hexagon_tri","fractal_assignment":["../images/cyn_red.png","../images/blu_wht.png","../images/gry_blk.png","../images/ylw_slt.png","../images/pnk_blu.png","../images/org_blu.png"],"mutagen_generator_assignment":[1,0],"goal":4,"start":5,"action_noise":0,"location_history":"[5,4]","action_history":"[0]","mutagen_history":"[1]","location_rts":"[44184]","trial_type":"fractal-mutation","trial_index":62,"time_elapsed":1430907,"internal_node_id":"0.0-5.0-8.0"},{"group":"hexagon_tri","fractal_assignment":["../images/cyn_red.png","../images/blu_wht.png","../images/gry_blk.png","../images/ylw_slt.png","../images/pnk_blu.png","../images/org_blu.png"],"mutagen_generator_assignment":[1,0],"goal":2,"start":4,"action_noise":0,"location_history":"[4,2]","action_history":"[1]","mutagen_history":"[0]","location_rts":"[1929]","trial_type":"fractal-mutation","trial_index":63,"time_elapsed":1437863,"internal_node_id":"0.0-5.0-9.0"},{"group":"hexagon_tri","fractal_assignment":["../images/cyn_red.png","../images/blu_wht.png","../images/gry_blk.png","../images/ylw_slt.png","../images/pnk_blu.png","../images/org_blu.png"],"mutagen_generator_assignment":[1,0],"goal":0,"start":2,"action_noise":0,"location_history":"[2,1,5,0]","action_history":"[0,1,1]","mutagen_history":"[1,0,0]","location_rts":"[1485,655,463]","trial_type":"fractal-mutation","trial_index":64,"time_elapsed":1447556,"internal_node_id":"0.0-5.0-10.0"},{"group":"hexagon_tri","fractal_assignment":["../images/cyn_red.png","../images/blu_wht.png","../images/gry_blk.png","../images/ylw_slt.png","../images/pnk_blu.png","../images/org_blu.png"],"mutagen_generator_assignment":[1,0],"goal":1,"start":0,"action_noise":0,"location_history":"[0,1]","action_history":"[1]","mutagen_history":"[0]","location_rts":"[1315]","trial_type":"fractal-mutation","trial_index":65,"time_elapsed":1453901,"internal_node_id":"0.0-5.0-11.0"},{"group":"hexagon_tri","fractal_assignment":["../images/cyn_red.png","../images/blu_wht.png","../images/gry_blk.png","../images/ylw_slt.png","../images/pnk_blu.png","../images/org_blu.png"],"mutagen_generator_assignment":[1,0],"goal":3,"start":1,"action_noise":0,"location_history":"[1,3]","action_history":"[0]","mutagen_history":"[1]","location_rts":"[1176]","trial_type":"fractal-mutation","trial_index":66,"time_elapsed":1460113,"internal_node_id":"0.0-5.0-12.0"},{"group":"hexagon_tri","fractal_assignment":["../images/cyn_red.png","../images/blu_wht.png","../images/gry_blk.png","../images/ylw_slt.png","../images/pnk_blu.png","../images/org_blu.png"],"mutagen_generator_assignment":[1,0],"goal":5,"start":3,"action_noise":0,"location_history":"[3,2,1,5]","action_history":"[0,0,1]","mutagen_history":"[1,1,0]","location_rts":"[3906,798,352]","trial_type":"fractal-mutation","trial_index":67,"time_elapsed":1472257,"internal_node_id":"0.0-5.0-13.0"},{"group":"hexagon_tri","fractal_assignment":["../images/cyn_red.png","../images/blu_wht.png","../images/gry_blk.png","../images/ylw_slt.png","../images/pnk_blu.png","../images/org_blu.png"],"mutagen_generator_assignment":[1,0],"goal":4,"start":5,"action_noise":0,"location_history":"[5,4]","action_history":"[0]","mutagen_history":"[1]","location_rts":"[1768]","trial_type":"fractal-mutation","trial_index":68,"time_elapsed":1479061,"internal_node_id":"0.0-5.0-14.0"},{"group":"hexagon_tri","fractal_assignment":["../images/cyn_red.png","../images/blu_wht.png","../images/gry_blk.png","../images/ylw_slt.png","../images/pnk_blu.png","../images/org_blu.png"],"mutagen_generator_assignment":[1,0],"goal":0,"start":4,"action_noise":0,"location_history":"[4,0]","action_history":"[0]","mutagen_history":"[1]","location_rts":"[1341]","trial_type":"fractal-mutation","trial_index":69,"time_elapsed":1485436,"internal_node_id":"0.0-5.0-15.0"},{"group":"hexagon_tri","fractal_assignment":["../images/cyn_red.png","../images/blu_wht.png","../images/gry_blk.png","../images/ylw_slt.png","../images/pnk_blu.png","../images/org_blu.png"],"mutagen_generator_assignment":[1,0],"goal":3,"start":0,"action_noise":0,"location_history":"[0,5,4,2,3]","action_history":"[0,0,1,1]","mutagen_history":"[1,1,0,0]","location_rts":"[3038,994,857,396]","trial_type":"fractal-mutation","trial_index":70,"time_elapsed":1498832,"internal_node_id":"0.0-5.0-16.0"},{"group":"hexagon_tri","fractal_assignment":["../images/cyn_red.png","../images/blu_wht.png","../images/gry_blk.png","../images/ylw_slt.png","../images/pnk_blu.png","../images/org_blu.png"],"mutagen_generator_assignment":[1,0],"goal":1,"start":3,"action_noise":0,"location_history":"[3,2,1]","action_history":"[0,0]","mutagen_history":"[1,1]","location_rts":"[3526,570]","trial_type":"fractal-mutation","trial_index":71,"time_elapsed":1508991,"internal_node_id":"0.0-5.0-17.0"},{"group":"hexagon_tri","fractal_assignment":["../images/cyn_red.png","../images/blu_wht.png","../images/gry_blk.png","../images/ylw_slt.png","../images/pnk_blu.png","../images/org_blu.png"],"mutagen_generator_assignment":[1,0],"goal":5,"start":1,"action_noise":0,"location_history":"[1,5]","action_history":"[1]","mutagen_history":"[0]","location_rts":"[5789]","trial_type":"fractal-mutation","trial_index":72,"time_elapsed":1519810,"internal_node_id":"0.0-5.0-18.0"},{"group":"hexagon_tri","fractal_assignment":["../images/cyn_red.png","../images/blu_wht.png","../images/gry_blk.png","../images/ylw_slt.png","../images/pnk_blu.png","../images/org_blu.png"],"mutagen_generator_assignment":[1,0],"goal":2,"start":5,"action_noise":0,"location_history":"[5,4,2]","action_history":"[0,1]","mutagen_history":"[1,0]","location_rts":"[2035,8684]","trial_type":"fractal-mutation","trial_index":73,"time_elapsed":1536588,"internal_node_id":"0.0-5.0-19.0"},{"group":"hexagon_tri","fractal_assignment":["../images/cyn_red.png","../images/blu_wht.png","../images/gry_blk.png","../images/ylw_slt.png","../images/pnk_blu.png","../images/org_blu.png"],"mutagen_generator_assignment":[1,0],"goal":4,"start":2,"action_noise":0,"location_history":"[2,3,4]","action_history":"[1,1]","mutagen_history":"[0,0]","location_rts":"[3535,931]","trial_type":"fractal-mutation","trial_index":74,"time_elapsed":1547107,"internal_node_id":"0.0-5.0-20.0"},{"group":"hexagon_tri","fractal_assignment":["../images/cyn_red.png","../images/blu_wht.png","../images/gry_blk.png","../images/ylw_slt.png","../images/pnk_blu.png","../images/org_blu.png"],"mutagen_generator_assignment":[1,0],"goal":1,"start":4,"action_noise":0,"location_history":"[4,0,1]","action_history":"[0,1]","mutagen_history":"[1,0]","location_rts":"[2461,655]","trial_type":"fractal-mutation","trial_index":75,"time_elapsed":1556288,"internal_node_id":"0.0-5.0-21.0"},{"group":"hexagon_tri","fractal_assignment":["../images/cyn_red.png","../images/blu_wht.png","../images/gry_blk.png","../images/ylw_slt.png","../images/pnk_blu.png","../images/org_blu.png"],"mutagen_generator_assignment":[1,0],"goal":3,"start":1,"action_noise":0,"location_history":"[1,3]","action_history":"[0]","mutagen_history":"[1]","location_rts":"[1058]","trial_type":"fractal-mutation","trial_index":76,"time_elapsed":1562385,"internal_node_id":"0.0-5.0-22.0"},{"group":"hexagon_tri","fractal_assignment":["../images/cyn_red.png","../images/blu_wht.png","../images/gry_blk.png","../images/ylw_slt.png","../images/pnk_blu.png","../images/org_blu.png"],"mutagen_generator_assignment":[1,0],"goal":2,"start":3,"action_noise":0,"location_history":"[3,4,2]","action_history":"[1,1]","mutagen_history":"[0,0]","location_rts":"[2121,378]","trial_type":"fractal-mutation","trial_index":77,"time_elapsed":1570942,"internal_node_id":"0.0-5.0-23.0"},{"group":"hexagon_tri","fractal_assignment":["../images/cyn_red.png","../images/blu_wht.png","../images/gry_blk.png","../images/ylw_slt.png","../images/pnk_blu.png","../images/org_blu.png"],"mutagen_generator_assignment":[1,0],"goal":0,"start":2,"action_noise":0,"location_history":"[2,1,5,0]","action_history":"[0,1,1]","mutagen_history":"[1,0,0]","location_rts":"[1663,395,527]","trial_type":"fractal-mutation","trial_index":78,"time_elapsed":1580610,"internal_node_id":"0.0-5.0-24.0"},{"group":"hexagon_tri","fractal_assignment":["../images/cyn_red.png","../images/blu_wht.png","../images/gry_blk.png","../images/ylw_slt.png","../images/pnk_blu.png","../images/org_blu.png"],"mutagen_generator_assignment":[1,0],"goal":5,"start":0,"action_noise":0,"location_history":"[0,1,5]","action_history":"[1,1]","mutagen_history":"[0,0]","location_rts":"[3795,220]","trial_type":"fractal-mutation","trial_index":79,"time_elapsed":1590676,"internal_node_id":"0.0-5.0-25.0"},{"group":"hexagon_tri","fractal_assignment":["../images/cyn_red.png","../images/blu_wht.png","../images/gry_blk.png","../images/ylw_slt.png","../images/pnk_blu.png","../images/org_blu.png"],"mutagen_generator_assignment":[1,0],"goal":2,"start":5,"action_noise":0,"location_history":"[5,4,2]","action_history":"[0,1]","mutagen_history":"[1,0]","location_rts":"[1285,946]","trial_type":"fractal-mutation","trial_index":80,"time_elapsed":1598963,"internal_node_id":"0.0-5.0-26.0"},{"group":"hexagon_tri","fractal_assignment":["../images/cyn_red.png","../images/blu_wht.png","../images/gry_blk.png","../images/ylw_slt.png","../images/pnk_blu.png","../images/org_blu.png"],"mutagen_generator_assignment":[1,0],"goal":3,"start":2,"action_noise":0,"location_history":"[2,3]","action_history":"[1]","mutagen_history":"[0]","location_rts":"[1159]","trial_type":"fractal-mutation","trial_index":81,"time_elapsed":1605151,"internal_node_id":"0.0-5.0-27.0"},{"group":"hexagon_tri","fractal_assignment":["../images/cyn_red.png","../images/blu_wht.png","../images/gry_blk.png","../images/ylw_slt.png","../images/pnk_blu.png","../images/org_blu.png"],"mutagen_generator_assignment":[1,0],"goal":0,"start":3,"action_noise":0,"location_history":"[3,2,3,4,2,1,5,0]","action_history":"[0,1,1,1,0,1,1]","mutagen_history":"[1,0,0,0,1,0,0]","location_rts":"[4544,729,3271,7636,139,359,534]","trial_type":"fractal-mutation","trial_index":82,"time_elapsed":1633557,"internal_node_id":"0.0-5.0-28.0"},{"group":"hexagon_tri","fractal_assignment":["../images/cyn_red.png","../images/blu_wht.png","../images/gry_blk.png","../images/ylw_slt.png","../images/pnk_blu.png","../images/org_blu.png"],"mutagen_generator_assignment":[1,0],"goal":1,"start":0,"action_noise":0,"location_history":"[0,1]","action_history":"[1]","mutagen_history":"[0]","location_rts":"[858]","trial_type":"fractal-mutation","trial_index":83,"time_elapsed":1639445,"internal_node_id":"0.0-5.0-29.0"},{"group":"hexagon_tri","fractal_assignment":["../images/cyn_red.png","../images/blu_wht.png","../images/gry_blk.png","../images/ylw_slt.png","../images/pnk_blu.png","../images/org_blu.png"],"mutagen_generator_assignment":[1,0],"goal":4,"start":1,"action_noise":0,"location_history":"[1,3,4]","action_history":"[0,1]","mutagen_history":"[1,0]","location_rts":"[2376,4977]","trial_type":"fractal-mutation","trial_index":84,"time_elapsed":1652858,"internal_node_id":"0.0-5.0-30.0"},{"group":"hexagon_tri","fractal_assignment":["../images/cyn_red.png","../images/blu_wht.png","../images/gry_blk.png","../images/ylw_slt.png","../images/pnk_blu.png","../images/org_blu.png"],"mutagen_generator_assignment":[1,0],"goal":5,"start":4,"action_noise":0,"location_history":"[4,0,1,5]","action_history":"[0,1,1]","mutagen_history":"[1,0,0]","location_rts":"[872705,443,365]","trial_type":"fractal-mutation","trial_index":85,"time_elapsed":2533447,"internal_node_id":"0.0-5.0-31.0"},{"group":"hexagon_tri","fractal_assignment":["../images/cyn_red.png","../images/blu_wht.png","../images/gry_blk.png","../images/ylw_slt.png","../images/pnk_blu.png","../images/org_blu.png"],"mutagen_generator_assignment":[1,0],"goal":0,"start":5,"action_noise":0,"location_history":"[5,0]","action_history":"[1]","mutagen_history":"[0]","location_rts":"[17681]","trial_type":"fractal-mutation","trial_index":86,"time_elapsed":2556164,"internal_node_id":"0.0-5.0-32.0"},{"group":"hexagon_tri","fractal_assignment":["../images/cyn_red.png","../images/blu_wht.png","../images/gry_blk.png","../images/ylw_slt.png","../images/pnk_blu.png","../images/org_blu.png"],"mutagen_generator_assignment":[1,0],"goal":3,"start":0,"action_noise":0,"location_history":"[0,5,0,5,4,2,3]","action_history":"[0,1,0,0,1,1]","mutagen_history":"[1,0,1,1,0,0]","location_rts":"[2098,439,220,304,531,2361]","trial_type":"fractal-mutation","trial_index":87,"time_elapsed":2572289,"internal_node_id":"0.0-5.0-33.0"},{"group":"hexagon_tri","fractal_assignment":["../images/cyn_red.png","../images/blu_wht.png","../images/gry_blk.png","../images/ylw_slt.png","../images/pnk_blu.png","../images/org_blu.png"],"mutagen_generator_assignment":[1,0],"goal":1,"start":3,"action_noise":0,"location_history":"[3,2,1]","action_history":"[0,0]","mutagen_history":"[1,1]","location_rts":"[1926,9201]","trial_type":"fractal-mutation","trial_index":88,"time_elapsed":2589482,"internal_node_id":"0.0-5.0-34.0"},{"group":"hexagon_tri","fractal_assignment":["../images/cyn_red.png","../images/blu_wht.png","../images/gry_blk.png","../images/ylw_slt.png","../images/pnk_blu.png","../images/org_blu.png"],"mutagen_generator_assignment":[1,0],"goal":2,"start":1,"action_noise":0,"location_history":"[1,3,4,2]","action_history":"[0,1,1]","mutagen_history":"[1,0,0]","location_rts":"[2534,676,686]","trial_type":"fractal-mutation","trial_index":89,"time_elapsed":2600460,"internal_node_id":"0.0-5.0-35.0"},{"group":"hexagon_tri","fractal_assignment":["../images/cyn_red.png","../images/blu_wht.png","../images/gry_blk.png","../images/ylw_slt.png","../images/pnk_blu.png","../images/org_blu.png"],"mutagen_generator_assignment":[1,0],"goal":4,"start":2,"action_noise":0,"location_history":"[2,3,4]","action_history":"[1,1]","mutagen_history":"[0,0]","location_rts":"[1222,403]","trial_type":"fractal-mutation","trial_index":90,"time_elapsed":2608134,"internal_node_id":"0.0-5.0-36.0"},{"group":"hexagon_tri","fractal_assignment":["../images/cyn_red.png","../images/blu_wht.png","../images/gry_blk.png","../images/ylw_slt.png","../images/pnk_blu.png","../images/org_blu.png"],"mutagen_generator_assignment":[1,0],"goal":5,"start":4,"action_noise":0,"location_history":"[4,0,1,5]","action_history":"[0,1,1]","mutagen_history":"[1,0,0]","location_rts":"[1763,642,349]","trial_type":"fractal-mutation","trial_index":91,"time_elapsed":2617969,"internal_node_id":"0.0-5.0-37.0"},{"group":"hexagon_tri","fractal_assignment":["../images/cyn_red.png","../images/blu_wht.png","../images/gry_blk.png","../images/ylw_slt.png","../images/pnk_blu.png","../images/org_blu.png"],"mutagen_generator_assignment":[1,0],"goal":1,"start":5,"action_noise":0,"location_history":"[5,0,1]","action_history":"[1,1]","mutagen_history":"[0,0]","location_rts":"[2031,467]","trial_type":"fractal-mutation","trial_index":92,"time_elapsed":2626521,"internal_node_id":"0.0-5.0-38.0"},{"group":"hexagon_tri","fractal_assignment":["../images/cyn_red.png","../images/blu_wht.png","../images/gry_blk.png","../images/ylw_slt.png","../images/pnk_blu.png","../images/org_blu.png"],"mutagen_generator_assignment":[1,0],"goal":4,"start":1,"action_noise":0,"location_history":"[1,3,4]","action_history":"[0,1]","mutagen_history":"[1,0]","location_rts":"[3927,811]","trial_type":"fractal-mutation","trial_index":93,"time_elapsed":2637325,"internal_node_id":"0.0-5.0-39.0"},{"group":"hexagon_tri","fractal_assignment":["../images/cyn_red.png","../images/blu_wht.png","../images/gry_blk.png","../images/ylw_slt.png","../images/pnk_blu.png","../images/org_blu.png"],"mutagen_generator_assignment":[1,0],"goal":3,"start":4,"action_noise":0,"location_history":"[4,2,3]","action_history":"[1,1]","mutagen_history":"[0,0]","location_rts":"[5875,444]","trial_type":"fractal-mutation","trial_index":94,"time_elapsed":2649697,"internal_node_id":"0.0-5.0-40.0"},{"group":"hexagon_tri","fractal_assignment":["../images/cyn_red.png","../images/blu_wht.png","../images/gry_blk.png","../images/ylw_slt.png","../images/pnk_blu.png","../images/org_blu.png"],"mutagen_generator_assignment":[1,0],"goal":2,"start":3,"action_noise":0,"location_history":"[3,4,2]","action_history":"[1,1]","mutagen_history":"[0,0]","location_rts":"[6866,483]","trial_type":"fractal-mutation","trial_index":95,"time_elapsed":2663100,"internal_node_id":"0.0-5.0-41.0"},{"group":"hexagon_tri","fractal_assignment":["../images/cyn_red.png","../images/blu_wht.png","../images/gry_blk.png","../images/ylw_slt.png","../images/pnk_blu.png","../images/org_blu.png"],"mutagen_generator_assignment":[1,0],"goal":0,"start":2,"action_noise":0,"location_history":"[2,1,5,0]","action_history":"[0,1,1]","mutagen_history":"[1,0,0]","location_rts":"[1649,5244,433]","trial_type":"fractal-mutation","trial_index":96,"time_elapsed":2677512,"internal_node_id":"0.0-5.0-42.0"},{"group":"hexagon_tri","fractal_assignment":["../images/cyn_red.png","../images/blu_wht.png","../images/gry_blk.png","../images/ylw_slt.png","../images/pnk_blu.png","../images/org_blu.png"],"mutagen_generator_assignment":[1,0],"goal":5,"start":0,"action_noise":0,"location_history":"[0,1,5]","action_history":"[1,1]","mutagen_history":"[0,0]","location_rts":"[8846,374]","trial_type":"fractal-mutation","trial_index":97,"time_elapsed":2692776,"internal_node_id":"0.0-5.0-43.0"},{"group":"hexagon_tri","fractal_assignment":["../images/cyn_red.png","../images/blu_wht.png","../images/gry_blk.png","../images/ylw_slt.png","../images/pnk_blu.png","../images/org_blu.png"],"mutagen_generator_assignment":[1,0],"goal":0,"start":5,"action_noise":0,"location_history":"[5,0]","action_history":"[1]","mutagen_history":"[0]","location_rts":"[1802]","trial_type":"fractal-mutation","trial_index":98,"time_elapsed":2699606,"internal_node_id":"0.0-5.0-44.0"},{"group":"hexagon_tri","fractal_assignment":["../images/cyn_red.png","../images/blu_wht.png","../images/gry_blk.png","../images/ylw_slt.png","../images/pnk_blu.png","../images/org_blu.png"],"mutagen_generator_assignment":[1,0],"goal":2,"start":0,"action_noise":0,"location_history":"[0,5,4,2]","action_history":"[0,0,1]","mutagen_history":"[1,1,0]","location_rts":"[6849,3682,588]","trial_type":"fractal-mutation","trial_index":99,"time_elapsed":2717817,"internal_node_id":"0.0-5.0-45.0"},{"group":"hexagon_tri","fractal_assignment":["../images/cyn_red.png","../images/blu_wht.png","../images/gry_blk.png","../images/ylw_slt.png","../images/pnk_blu.png","../images/org_blu.png"],"mutagen_generator_assignment":[1,0],"goal":4,"start":2,"action_noise":0,"location_history":"[2,3,4]","action_history":"[1,1]","mutagen_history":"[0,0]","location_rts":"[2701,689]","trial_type":"fractal-mutation","trial_index":100,"time_elapsed":2727263,"internal_node_id":"0.0-5.0-46.0"},{"group":"hexagon_tri","fractal_assignment":["../images/cyn_red.png","../images/blu_wht.png","../images/gry_blk.png","../images/ylw_slt.png","../images/pnk_blu.png","../images/org_blu.png"],"mutagen_generator_assignment":[1,0],"goal":1,"start":4,"action_noise":0,"location_history":"[4,0,1]","action_history":"[0,1]","mutagen_history":"[1,0]","location_rts":"[1277,569]","trial_type":"fractal-mutation","trial_index":101,"time_elapsed":2735166,"internal_node_id":"0.0-5.0-47.0"},{"group":"hexagon_tri","fractal_assignment":["../images/cyn_red.png","../images/blu_wht.png","../images/gry_blk.png","../images/ylw_slt.png","../images/pnk_blu.png","../images/org_blu.png"],"mutagen_generator_assignment":[1,0],"goal":5,"start":1,"action_noise":0,"location_history":"[1,5]","action_history":"[1]","mutagen_history":"[0]","location_rts":"[2034]","trial_type":"fractal-mutation","trial_index":102,"time_elapsed":2742233,"internal_node_id":"0.0-5.0-48.0"},{"group":"hexagon_tri","fractal_assignment":["../images/cyn_red.png","../images/blu_wht.png","../images/gry_blk.png","../images/ylw_slt.png","../images/pnk_blu.png","../images/org_blu.png"],"mutagen_generator_assignment":[1,0],"goal":3,"start":5,"action_noise":0,"location_history":"[5,4,2,3]","action_history":"[0,1,1]","mutagen_history":"[1,0,0]","location_rts":"[1273,1425,429]","trial_type":"fractal-mutation","trial_index":103,"time_elapsed":2752440,"internal_node_id":"0.0-5.0-49.0"},{"view_history":"[{\"page_index\":0,\"viewing_time\":7873}]","rt":7874,"trial_type":"instructions","trial_index":104,"time_elapsed":2761315,"internal_node_id":"0.0-6.0"},{"rt":10014,"responses":"{\"Q0\":\"Nope, good HIT! See you tomorrow!\"}","trial_type":"survey-text","trial_index":105,"time_elapsed":2772334,"internal_node_id":"0.0-7.0"}]