[{"view_history":"[{\"page_index\":0,\"viewing_time\":2991},{\"page_index\":1,\"viewing_time\":14496}]","rt":17489,"trial_type":"instructions","trial_index":0,"time_elapsed":17492,"internal_node_id":"0.0-0.0"},{"view_history":"[{\"page_index\":0,\"viewing_time\":4843},{\"page_index\":1,\"viewing_time\":27793}]","rt":32638,"trial_type":"instructions","trial_index":1,"time_elapsed":51133,"internal_node_id":"0.0-1.0"},{"group":"hexagon_bi","room_assignment":["yellow","grey","green","red","purple","blue"],"door_color_assignment":["white","black"],"door_generator_assignment":[1,0],"goal":3,"start":5,"action_noise":0,"location_history":"[5,4,3]","action_history":"[1,0]","door_history":"[0,1]","location_rts":"[7098,2515]","trial_type":"two-door-navigation","trial_index":2,"time_elapsed":66895,"internal_node_id":"0.0-2.0-0.0"},{"group":"hexagon_bi","room_assignment":["yellow","grey","green","red","purple","blue"],"door_color_assignment":["white","black"],"door_generator_assignment":[1,0],"goal":1,"start":3,"action_noise":0,"location_history":"[3,4,5,0,1]","action_history":"[0,1,0,1]","door_history":"[1,0,1,0]","location_rts":"[10349,1523,3420,1515]","trial_type":"two-door-navigation","trial_index":3,"time_elapsed":91876,"internal_node_id":"0.0-2.0-1.0"},{"group":"hexagon_bi","room_assignment":["yellow","grey","green","red","purple","blue"],"door_color_assignment":["white","black"],"door_generator_assignment":[1,0],"goal":0,"start":1,"action_noise":0,"location_history":"[1,2,1,2,1,0]","action_history":"[0,0,0,0,1]","door_history":"[1,1,1,1,0]","location_rts":"[3672,1486,1987,3183,1664]","trial_type":"two-door-navigation","trial_index":4,"time_elapsed":113034,"internal_node_id":"0.0-2.0-2.0"},{"group":"hexagon_bi","room_assignment":["yellow","grey","green","red","purple","blue"],"door_color_assignment":["white","black"],"door_generator_assignment":[1,0],"goal":3,"start":0,"action_noise":0,"location_history":"[0,5,0,5,4,3]","action_history":"[0,0,0,1,0]","door_history":"[1,1,1,0,1]","location_rts":"[3408,4399,1291,2396,2994]","trial_type":"two-door-navigation","trial_index":5,"time_elapsed":136742,"internal_node_id":"0.0-2.0-3.0"},{"group":"hexagon_bi","room_assignment":["yellow","grey","green","red","purple","blue"],"door_color_assignment":["white","black"],"door_generator_assignment":[1,0],"goal":4,"start":3,"action_noise":0,"location_history":"[3,2,3,2,1,0,5,4]","action_history":"[1,1,1,0,1,0,1]","door_history":"[0,0,0,1,0,1,0]","location_rts":"[9042,1429,1689,1947,1845,1716,1876]","trial_type":"two-door-navigation","trial_index":6,"time_elapsed":167521,"internal_node_id":"0.0-2.0-4.0"},{"group":"hexagon_bi","room_assignment":["yellow","grey","green","red","purple","blue"],"door_color_assignment":["white","black"],"door_generator_assignment":[1,0],"goal":2,"start":4,"action_noise":0,"location_history":"[4,5,0,1,2]","action_history":"[1,0,1,0]","door_history":"[0,1,0,1]","location_rts":"[5439,1493,1696,1589]","trial_type":"two-door-navigation","trial_index":7,"time_elapsed":185876,"internal_node_id":"0.0-2.0-5.0"},{"group":"hexagon_bi","room_assignment":["yellow","grey","green","red","purple","blue"],"door_color_assignment":["white","black"],"door_generator_assignment":[1,0],"goal":1,"start":2,"action_noise":0,"location_history":"[2,1]","action_history":"[0]","door_history":"[1]","location_rts":"[3976]","trial_type":"two-door-navigation","trial_index":8,"time_elapsed":194887,"internal_node_id":"0.0-2.0-6.0"},{"group":"hexagon_bi","room_assignment":["yellow","grey","green","red","purple","blue"],"door_color_assignment":["white","black"],"door_generator_assignment":[1,0],"goal":5,"start":1,"action_noise":0,"location_history":"[1,0,5]","action_history":"[1,0]","door_history":"[0,1]","location_rts":"[5916,2588]","trial_type":"two-door-navigation","trial_index":9,"time_elapsed":209467,"internal_node_id":"0.0-2.0-7.0"},{"group":"hexagon_bi","room_assignment":["yellow","grey","green","red","purple","blue"],"door_color_assignment":["white","black"],"door_generator_assignment":[1,0],"goal":4,"start":5,"action_noise":0,"location_history":"[5,0,5,4]","action_history":"[0,0,1]","door_history":"[1,1,0]","location_rts":"[5425,2240,2464]","trial_type":"two-door-navigation","trial_index":10,"time_elapsed":226695,"internal_node_id":"0.0-2.0-8.0"},{"group":"hexagon_bi","room_assignment":["yellow","grey","green","red","purple","blue"],"door_color_assignment":["white","black"],"door_generator_assignment":[1,0],"goal":2,"start":4,"action_noise":0,"location_history":"[4,3,4,3,2]","action_history":"[0,0,0,1]","door_history":"[1,1,1,0]","location_rts":"[4295,2335,1748,1660]","trial_type":"two-door-navigation","trial_index":11,"time_elapsed":244849,"internal_node_id":"0.0-2.0-9.0"},{"group":"hexagon_bi","room_assignment":["yellow","grey","green","red","purple","blue"],"door_color_assignment":["white","black"],"door_generator_assignment":[1,0],"goal":0,"start":2,"action_noise":0,"location_history":"[2,3,4,5,0]","action_history":"[1,0,1,0]","door_history":"[0,1,0,1]","location_rts":"[9649,2269,1881,1514]","trial_type":"two-door-navigation","trial_index":12,"time_elapsed":268302,"internal_node_id":"0.0-2.0-10.0"},{"group":"hexagon_bi","room_assignment":["yellow","grey","green","red","purple","blue"],"door_color_assignment":["white","black"],"door_generator_assignment":[1,0],"goal":1,"start":0,"action_noise":0,"location_history":"[0,1]","action_history":"[1]","door_history":"[0]","location_rts":"[5824]","trial_type":"two-door-navigation","trial_index":13,"time_elapsed":279162,"internal_node_id":"0.0-2.0-11.0"},{"group":"hexagon_bi","room_assignment":["yellow","grey","green","red","purple","blue"],"door_color_assignment":["white","black"],"door_generator_assignment":[1,0],"goal":3,"start":1,"action_noise":0,"location_history":"[1,2,1,0,5,4,5,0,5,0,5,4,3]","action_history":"[0,0,1,0,1,1,0,0,0,0,1,0]","door_history":"[1,1,0,1,0,0,1,1,1,1,0,1]","location_rts":"[3754,2543,1706,2155,1619,1288,1188,1275,1518,1399,1486,2030]","trial_type":"two-door-navigation","trial_index":14,"time_elapsed":317512,"internal_node_id":"0.0-2.0-12.0"},{"group":"hexagon_bi","room_assignment":["yellow","grey","green","red","purple","blue"],"door_color_assignment":["white","black"],"door_generator_assignment":[1,0],"goal":5,"start":3,"action_noise":0,"location_history":"[3,4,5]","action_history":"[0,1]","door_history":"[1,0]","location_rts":"[8822,3174]","trial_type":"two-door-navigation","trial_index":15,"time_elapsed":335576,"internal_node_id":"0.0-2.0-13.0"},{"group":"hexagon_bi","room_assignment":["yellow","grey","green","red","purple","blue"],"door_color_assignment":["white","black"],"door_generator_assignment":[1,0],"goal":4,"start":5,"action_noise":0,"location_history":"[5,4]","action_history":"[1]","door_history":"[0]","location_rts":"[6535]","trial_type":"two-door-navigation","trial_index":16,"time_elapsed":347149,"internal_node_id":"0.0-2.0-14.0"},{"group":"hexagon_bi","room_assignment":["yellow","grey","green","red","purple","blue"],"door_color_assignment":["white","black"],"door_generator_assignment":[1,0],"goal":0,"start":4,"action_noise":0,"location_history":"[4,3,2,1,0]","action_history":"[0,1,0,1]","door_history":"[1,0,1,0]","location_rts":"[3632,2396,1558,1890]","trial_type":"two-door-navigation","trial_index":17,"time_elapsed":364748,"internal_node_id":"0.0-2.0-15.0"},{"group":"hexagon_bi","room_assignment":["yellow","grey","green","red","purple","blue"],"door_color_assignment":["white","black"],"door_generator_assignment":[1,0],"goal":3,"start":0,"action_noise":0,"location_history":"[0,1,2,3]","action_history":"[1,0,1]","door_history":"[0,1,0]","location_rts":"[11769,1400,2453]","trial_type":"two-door-navigation","trial_index":18,"time_elapsed":387465,"internal_node_id":"0.0-2.0-16.0"},{"group":"hexagon_bi","room_assignment":["yellow","grey","green","red","purple","blue"],"door_color_assignment":["white","black"],"door_generator_assignment":[1,0],"goal":1,"start":3,"action_noise":0,"location_history":"[3,2,1]","action_history":"[1,0]","door_history":"[0,1]","location_rts":"[3622,1508]","trial_type":"two-door-navigation","trial_index":19,"time_elapsed":398658,"internal_node_id":"0.0-2.0-17.0"},{"group":"hexagon_bi","room_assignment":["yellow","grey","green","red","purple","blue"],"door_color_assignment":["white","black"],"door_generator_assignment":[1,0],"goal":5,"start":1,"action_noise":0,"location_history":"[1,2,3,4,5]","action_history":"[0,1,0,1]","door_history":"[1,0,1,0]","location_rts":"[7361,2348,1543,4427]","trial_type":"two-door-navigation","trial_index":20,"time_elapsed":422588,"internal_node_id":"0.0-2.0-18.0"},{"group":"hexagon_bi","room_assignment":["yellow","grey","green","red","purple","blue"],"door_color_assignment":["white","black"],"door_generator_assignment":[1,0],"goal":2,"start":5,"action_noise":0,"location_history":"[5,4,3,2]","action_history":"[1,0,1]","door_history":"[0,1,0]","location_rts":"[3824,1837,1625]","trial_type":"two-door-navigation","trial_index":21,"time_elapsed":436968,"internal_node_id":"0.0-2.0-19.0"},{"group":"hexagon_bi","room_assignment":["yellow","grey","green","red","purple","blue"],"door_color_assignment":["white","black"],"door_generator_assignment":[1,0],"goal":4,"start":2,"action_noise":0,"location_history":"[2,1,0,5,4]","action_history":"[0,1,0,1]","door_history":"[1,0,1,0]","location_rts":"[7410,1665,1560,1730]","trial_type":"two-door-navigation","trial_index":22,"time_elapsed":457487,"internal_node_id":"0.0-2.0-20.0"},{"group":"hexagon_bi","room_assignment":["yellow","grey","green","red","purple","blue"],"door_color_assignment":["white","black"],"door_generator_assignment":[1,0],"goal":1,"start":4,"action_noise":0,"location_history":"[4,5,0,1]","action_history":"[1,0,1]","door_history":"[0,1,0]","location_rts":"[7266,1431,1374]","trial_type":"two-door-navigation","trial_index":23,"time_elapsed":474658,"internal_node_id":"0.0-2.0-21.0"},{"group":"hexagon_bi","room_assignment":["yellow","grey","green","red","purple","blue"],"door_color_assignment":["white","black"],"door_generator_assignment":[1,0],"goal":3,"start":1,"action_noise":0,"location_history":"[1,2,3]","action_history":"[0,1]","door_history":"[1,0]","location_rts":"[3468,1828]","trial_type":"two-door-navigation","trial_index":24,"time_elapsed":486022,"internal_node_id":"0.0-2.0-22.0"},{"group":"hexagon_bi","room_assignment":["yellow","grey","green","red","purple","blue"],"door_color_assignment":["white","black"],"door_generator_assignment":[1,0],"goal":2,"start":3,"action_noise":0,"location_history":"[3,4,5,0,1,2]","action_history":"[0,1,0,1,0]","door_history":"[1,0,1,0,1]","location_rts":"[6163,1557,1637,1515,2170]","trial_type":"two-door-navigation","trial_index":25,"time_elapsed":508231,"internal_node_id":"0.0-2.0-23.0"},{"group":"hexagon_bi","room_assignment":["yellow","grey","green","red","purple","blue"],"door_color_assignment":["white","black"],"door_generator_assignment":[1,0],"goal":0,"start":2,"action_noise":0,"location_history":"[2,3,4,5,0]","action_history":"[1,0,1,0]","door_history":"[0,1,0,1]","location_rts":"[4870,1580,2074,2774]","trial_type":"two-door-navigation","trial_index":26,"time_elapsed":527681,"internal_node_id":"0.0-2.0-24.0"},{"group":"hexagon_bi","room_assignment":["yellow","grey","green","red","purple","blue"],"door_color_assignment":["white","black"],"door_generator_assignment":[1,0],"goal":5,"start":0,"action_noise":0,"location_history":"[0,5]","action_history":"[0]","door_history":"[1]","location_rts":"[3624]","trial_type":"two-door-navigation","trial_index":27,"time_elapsed":536363,"internal_node_id":"0.0-2.0-25.0"},{"group":"hexagon_bi","room_assignment":["yellow","grey","green","red","purple","blue"],"door_color_assignment":["white","black"],"door_generator_assignment":[1,0],"goal":2,"start":5,"action_noise":0,"location_history":"[5,4,3,2]","action_history":"[1,0,1]","door_history":"[0,1,0]","location_rts":"[7228,1381,2091]","trial_type":"two-door-navigation","trial_index":28,"time_elapsed":554172,"internal_node_id":"0.0-2.0-26.0"},{"group":"hexagon_bi","room_assignment":["yellow","grey","green","red","purple","blue"],"door_color_assignment":["white","black"],"door_generator_assignment":[1,0],"goal":3,"start":2,"action_noise":0,"location_history":"[2,1,0,5,4,3]","action_history":"[0,1,0,1,0]","door_history":"[1,0,1,0,1]","location_rts":"[4090,1581,2902,1981,1703]","trial_type":"two-door-navigation","trial_index":29,"time_elapsed":575579,"internal_node_id":"0.0-2.0-27.0"},{"group":"hexagon_bi","room_assignment":["yellow","grey","green","red","purple","blue"],"door_color_assignment":["white","black"],"door_generator_assignment":[1,0],"goal":0,"start":3,"action_noise":0,"location_history":"[3,2,1,0]","action_history":"[1,0,1]","door_history":"[0,1,0]","location_rts":"[18539,1488,1981]","trial_type":"two-door-navigation","trial_index":30,"time_elapsed":604693,"internal_node_id":"0.0-2.0-28.0"},{"group":"hexagon_bi","room_assignment":["yellow","grey","green","red","purple","blue"],"door_color_assignment":["white","black"],"door_generator_assignment":[1,0],"goal":1,"start":0,"action_noise":0,"location_history":"[0,5,4,3,2,1]","action_history":"[0,1,0,1,0]","door_history":"[1,0,1,0,1]","location_rts":"[4567,3384,1367,2239,1504]","trial_type":"two-door-navigation","trial_index":31,"time_elapsed":626928,"internal_node_id":"0.0-2.0-29.0"},{"group":"hexagon_bi","room_assignment":["yellow","grey","green","red","purple","blue"],"door_color_assignment":["white","black"],"door_generator_assignment":[1,0],"goal":4,"start":1,"action_noise":0,"location_history":"[1,0,5,4]","action_history":"[1,0,1]","door_history":"[0,1,0]","location_rts":"[6345,1487,2130]","trial_type":"two-door-navigation","trial_index":32,"time_elapsed":643987,"internal_node_id":"0.0-2.0-30.0"},{"group":"hexagon_bi","room_assignment":["yellow","grey","green","red","purple","blue"],"door_color_assignment":["white","black"],"door_generator_assignment":[1,0],"goal":5,"start":4,"action_noise":0,"location_history":"[4,5]","action_history":"[1]","door_history":"[0]","location_rts":"[4418]","trial_type":"two-door-navigation","trial_index":33,"time_elapsed":653453,"internal_node_id":"0.0-2.0-31.0"},{"group":"hexagon_bi","room_assignment":["yellow","grey","green","red","purple","blue"],"door_color_assignment":["white","black"],"door_generator_assignment":[1,0],"goal":0,"start":5,"action_noise":0,"location_history":"[5,0]","action_history":"[0]","door_history":"[1]","location_rts":"[4395]","trial_type":"two-door-navigation","trial_index":34,"time_elapsed":662881,"internal_node_id":"0.0-2.0-32.0"},{"group":"hexagon_bi","room_assignment":["yellow","grey","green","red","purple","blue"],"door_color_assignment":["white","black"],"door_generator_assignment":[1,0],"goal":3,"start":0,"action_noise":0,"location_history":"[0,1,2,3]","action_history":"[1,0,1]","door_history":"[0,1,0]","location_rts":"[4642,1897,1900]","trial_type":"two-door-navigation","trial_index":35,"time_elapsed":678429,"internal_node_id":"0.0-2.0-33.0"},{"group":"hexagon_bi","room_assignment":["yellow","grey","green","red","purple","blue"],"door_color_assignment":["white","black"],"door_generator_assignment":[1,0],"goal":1,"start":3,"action_noise":0,"location_history":"[3,4,5,0,1]","action_history":"[0,1,0,1]","door_history":"[1,0,1,0]","location_rts":"[4575,1599,2396,2057]","trial_type":"two-door-navigation","trial_index":36,"time_elapsed":697183,"internal_node_id":"0.0-2.0-34.0"},{"group":"hexagon_bi","room_assignment":["yellow","grey","green","red","purple","blue"],"door_color_assignment":["white","black"],"door_generator_assignment":[1,0],"goal":2,"start":1,"action_noise":0,"location_history":"[1,0,5,4,3,2]","action_history":"[1,0,1,0,1]","door_history":"[0,1,0,1,0]","location_rts":"[3414,1288,1997,1651,2346]","trial_type":"two-door-navigation","trial_index":37,"time_elapsed":717062,"internal_node_id":"0.0-2.0-35.0"},{"group":"hexagon_bi","room_assignment":["yellow","grey","green","red","purple","blue"],"door_color_assignment":["white","black"],"door_generator_assignment":[1,0],"goal":4,"start":2,"action_noise":0,"location_history":"[2,1,0,5,4]","action_history":"[0,1,0,1]","door_history":"[1,0,1,0]","location_rts":"[6947,2001,1659,2261]","trial_type":"two-door-navigation","trial_index":38,"time_elapsed":738109,"internal_node_id":"0.0-2.0-36.0"},{"group":"hexagon_bi","room_assignment":["yellow","grey","green","red","purple","blue"],"door_color_assignment":["white","black"],"door_generator_assignment":[1,0],"goal":5,"start":4,"action_noise":0,"location_history":"[4,5]","action_history":"[1]","door_history":"[0]","location_rts":"[3589]","trial_type":"two-door-navigation","trial_index":39,"time_elapsed":746731,"internal_node_id":"0.0-2.0-37.0"},{"group":"hexagon_bi","room_assignment":["yellow","grey","green","red","purple","blue"],"door_color_assignment":["white","black"],"door_generator_assignment":[1,0],"goal":1,"start":5,"action_noise":0,"location_history":"[5,4,3,2,1]","action_history":"[1,0,1,0]","door_history":"[0,1,0,1]","location_rts":"[2959,1586,1504,1944]","trial_type":"two-door-navigation","trial_index":40,"time_elapsed":762886,"internal_node_id":"0.0-2.0-38.0"},{"group":"hexagon_bi","room_assignment":["yellow","grey","green","red","purple","blue"],"door_color_assignment":["white","black"],"door_generator_assignment":[1,0],"goal":4,"start":1,"action_noise":0,"location_history":"[1,0,5,4]","action_history":"[1,0,1]","door_history":"[0,1,0]","location_rts":"[3244,1529,1970]","trial_type":"two-door-navigation","trial_index":41,"time_elapsed":776735,"internal_node_id":"0.0-2.0-39.0"},{"group":"hexagon_bi","room_assignment":["yellow","grey","green","red","purple","blue"],"door_color_assignment":["white","black"],"door_generator_assignment":[1,0],"goal":3,"start":4,"action_noise":0,"location_history":"[4,3]","action_history":"[0]","door_history":"[1]","location_rts":"[5545]","trial_type":"two-door-navigation","trial_index":42,"time_elapsed":787317,"internal_node_id":"0.0-2.0-40.0"},{"group":"hexagon_bi","room_assignment":["yellow","grey","green","red","purple","blue"],"door_color_assignment":["white","black"],"door_generator_assignment":[1,0],"goal":2,"start":3,"action_noise":0,"location_history":"[3,4,5,0,1,2]","action_history":"[0,1,0,1,0]","door_history":"[1,0,1,0,1]","location_rts":"[6834,1458,1776,1591,1701]","trial_type":"two-door-navigation","trial_index":43,"time_elapsed":809857,"internal_node_id":"0.0-2.0-41.0"},{"group":"hexagon_bi","room_assignment":["yellow","grey","green","red","purple","blue"],"door_color_assignment":["white","black"],"door_generator_assignment":[1,0],"goal":0,"start":2,"action_noise":0,"location_history":"[2,3,4,5,0]","action_history":"[1,0,1,0]","door_history":"[0,1,0,1]","location_rts":"[7213,1438,1479,1669]","trial_type":"two-door-navigation","trial_index":44,"time_elapsed":829784,"internal_node_id":"0.0-2.0-42.0"},{"group":"hexagon_bi","room_assignment":["yellow","grey","green","red","purple","blue"],"door_color_assignment":["white","black"],"door_generator_assignment":[1,0],"goal":5,"start":0,"action_noise":0,"location_history":"[0,5]","action_history":"[0]","door_history":"[1]","location_rts":"[3725]","trial_type":"two-door-navigation","trial_index":45,"time_elapsed":838547,"internal_node_id":"0.0-2.0-43.0"},{"group":"hexagon_bi","room_assignment":["yellow","grey","green","red","purple","blue"],"door_color_assignment":["white","black"],"door_generator_assignment":[1,0],"goal":0,"start":5,"action_noise":0,"location_history":"[5,4,3,2,1,0]","action_history":"[1,0,1,0,1]","door_history":"[0,1,0,1,0]","location_rts":"[3756,1627,2226,1681,2619]","trial_type":"two-door-navigation","trial_index":46,"time_elapsed":859626,"internal_node_id":"0.0-2.0-44.0"},{"group":"hexagon_bi","room_assignment":["yellow","grey","green","red","purple","blue"],"door_color_assignment":["white","black"],"door_generator_assignment":[1,0],"goal":2,"start":0,"action_noise":0,"location_history":"[0,1,2]","action_history":"[1,0]","door_history":"[0,1]","location_rts":"[4345,1226]","trial_type":"two-door-navigation","trial_index":47,"time_elapsed":871264,"internal_node_id":"0.0-2.0-45.0"},{"group":"hexagon_bi","room_assignment":["yellow","grey","green","red","purple","blue"],"door_color_assignment":["white","black"],"door_generator_assignment":[1,0],"goal":4,"start":2,"action_noise":0,"location_history":"[2,3,4]","action_history":"[1,0]","door_history":"[0,1]","location_rts":"[3135,1568]","trial_type":"two-door-navigation","trial_index":48,"time_elapsed":882043,"internal_node_id":"0.0-2.0-46.0"},{"group":"hexagon_bi","room_assignment":["yellow","grey","green","red","purple","blue"],"door_color_assignment":["white","black"],"door_generator_assignment":[1,0],"goal":1,"start":4,"action_noise":0,"location_history":"[4,3,2,1]","action_history":"[0,1,0]","door_history":"[1,0,1]","location_rts":"[3539,1450,1710]","trial_type":"two-door-navigation","trial_index":49,"time_elapsed":895837,"internal_node_id":"0.0-2.0-47.0"},{"group":"hexagon_bi","room_assignment":["yellow","grey","green","red","purple","blue"],"door_color_assignment":["white","black"],"door_generator_assignment":[1,0],"goal":5,"start":1,"action_noise":0,"location_history":"[1,0,5]","action_history":"[1,0]","door_history":"[0,1]","location_rts":"[5661,1223]","trial_type":"two-door-navigation","trial_index":50,"time_elapsed":908789,"internal_node_id":"0.0-2.0-48.0"},{"group":"hexagon_bi","room_assignment":["yellow","grey","green","red","purple","blue"],"door_color_assignment":["white","black"],"door_generator_assignment":[1,0],"goal":3,"start":5,"action_noise":0,"location_history":"[5,0,1,2,3]","action_history":"[0,1,0,1]","door_history":"[1,0,1,0]","location_rts":"[2696,1511,1418,2189]","trial_type":"two-door-navigation","trial_index":51,"time_elapsed":924732,"internal_node_id":"0.0-2.0-49.0"},{"view_history":"[{\"page_index\":0,\"viewing_time\":3505}]","rt":3507,"trial_type":"instructions","trial_index":52,"time_elapsed":929240,"internal_node_id":"0.0-3.0"},{"view_history":"[{\"page_index\":0,\"viewing_time\":7618},{\"page_index\":1,\"viewing_time\":22814}]","rt":30432,"trial_type":"instructions","trial_index":53,"time_elapsed":960674,"internal_node_id":"0.0-4.0"},{"group":"hexagon_bi","fractal_assignment":["../images/gry_blk.png","../images/cyn_red.png","../images/ylw_slt.png","../images/org_blu.png","../images/blu_wht.png","../images/pnk_blu.png"],"mutagen_generator_assignment":[0,1],"goal":3,"start":5,"action_noise":0,"location_history":"[5,4,3]","action_history":"[1,0]","mutagen_history":"[1,0]","location_rts":"[2729,972]","trial_type":"fractal-mutation","trial_index":54,"time_elapsed":970549,"internal_node_id":"0.0-5.0-0.0"},{"group":"hexagon_bi","fractal_assignment":["../images/gry_blk.png","../images/cyn_red.png","../images/ylw_slt.png","../images/org_blu.png","../images/blu_wht.png","../images/pnk_blu.png"],"mutagen_generator_assignment":[0,1],"goal":1,"start":3,"action_noise":0,"location_history":"[3,4,5,0,1]","action_history":"[0,1,0,1]","mutagen_history":"[0,1,0,1]","location_rts":"[3984,1640,1390,823]","trial_type":"fractal-mutation","trial_index":55,"time_elapsed":986737,"internal_node_id":"0.0-5.0-1.0"},{"group":"hexagon_bi","fractal_assignment":["../images/gry_blk.png","../images/cyn_red.png","../images/ylw_slt.png","../images/org_blu.png","../images/blu_wht.png","../images/pnk_blu.png"],"mutagen_generator_assignment":[0,1],"goal":0,"start":1,"action_noise":0,"location_history":"[1,0]","action_history":"[1]","mutagen_history":"[1]","location_rts":"[2261]","trial_type":"fractal-mutation","trial_index":56,"time_elapsed":994119,"internal_node_id":"0.0-5.0-2.0"},{"group":"hexagon_bi","fractal_assignment":["../images/gry_blk.png","../images/cyn_red.png","../images/ylw_slt.png","../images/org_blu.png","../images/blu_wht.png","../images/pnk_blu.png"],"mutagen_generator_assignment":[0,1],"goal":3,"start":0,"action_noise":0,"location_history":"[0,5,0,1,2,3]","action_history":"[0,0,1,0,1]","mutagen_history":"[0,0,1,0,1]","location_rts":"[3480,1797,1637,1124,2334]","trial_type":"fractal-mutation","trial_index":57,"time_elapsed":1013819,"internal_node_id":"0.0-5.0-3.0"},{"group":"hexagon_bi","fractal_assignment":["../images/gry_blk.png","../images/cyn_red.png","../images/ylw_slt.png","../images/org_blu.png","../images/blu_wht.png","../images/pnk_blu.png"],"mutagen_generator_assignment":[0,1],"goal":4,"start":3,"action_noise":0,"location_history":"[3,2,1,0,5,4]","action_history":"[1,0,1,0,1]","mutagen_history":"[1,0,1,0,1]","location_rts":"[4138,768,1601,923,2464]","trial_type":"fractal-mutation","trial_index":58,"time_elapsed":1033052,"internal_node_id":"0.0-5.0-4.0"},{"group":"hexagon_bi","fractal_assignment":["../images/gry_blk.png","../images/cyn_red.png","../images/ylw_slt.png","../images/org_blu.png","../images/blu_wht.png","../images/pnk_blu.png"],"mutagen_generator_assignment":[0,1],"goal":2,"start":4,"action_noise":0,"location_history":"[4,5,4,3,2]","action_history":"[1,1,0,1]","mutagen_history":"[1,1,0,1]","location_rts":"[4327,2703,1573,1407]","trial_type":"fractal-mutation","trial_index":59,"time_elapsed":1051348,"internal_node_id":"0.0-5.0-5.0"},{"group":"hexagon_bi","fractal_assignment":["../images/gry_blk.png","../images/cyn_red.png","../images/ylw_slt.png","../images/org_blu.png","../images/blu_wht.png","../images/pnk_blu.png"],"mutagen_generator_assignment":[0,1],"goal":1,"start":2,"action_noise":0,"location_history":"[2,3,4,5,0,1]","action_history":"[1,0,1,0,1]","mutagen_history":"[1,0,1,0,1]","location_rts":"[4017,1073,4882,1123,1164]","trial_type":"fractal-mutation","trial_index":60,"time_elapsed":1072948,"internal_node_id":"0.0-5.0-6.0"},{"group":"hexagon_bi","fractal_assignment":["../images/gry_blk.png","../images/cyn_red.png","../images/ylw_slt.png","../images/org_blu.png","../images/blu_wht.png","../images/pnk_blu.png"],"mutagen_generator_assignment":[0,1],"goal":5,"start":1,"action_noise":0,"location_history":"[1,2,3,2,1,0,5]","action_history":"[0,1,1,0,1,0]","mutagen_history":"[0,1,1,0,1,0]","location_rts":"[3776,1228,1573,2493,2639,1532]","trial_type":"fractal-mutation","trial_index":61,"time_elapsed":1096601,"internal_node_id":"0.0-5.0-7.0"},{"group":"hexagon_bi","fractal_assignment":["../images/gry_blk.png","../images/cyn_red.png","../images/ylw_slt.png","../images/org_blu.png","../images/blu_wht.png","../images/pnk_blu.png"],"mutagen_generator_assignment":[0,1],"goal":4,"start":5,"action_noise":0,"location_history":"[5,4]","action_history":"[1]","mutagen_history":"[1]","location_rts":"[5282]","trial_type":"fractal-mutation","trial_index":62,"time_elapsed":1106984,"internal_node_id":"0.0-5.0-8.0"},{"group":"hexagon_bi","fractal_assignment":["../images/gry_blk.png","../images/cyn_red.png","../images/ylw_slt.png","../images/org_blu.png","../images/blu_wht.png","../images/pnk_blu.png"],"mutagen_generator_assignment":[0,1],"goal":2,"start":4,"action_noise":0,"location_history":"[4,5,4,5,0,1,0,5,0,5,4,3,2]","action_history":"[1,1,1,0,1,1,0,0,0,1,0,1]","mutagen_history":"[1,1,1,0,1,1,0,0,0,1,0,1]","location_rts":"[3590,2669,1880,1298,1372,1504,1239,4386,1907,1629,3436,2103]","trial_type":"fractal-mutation","trial_index":63,"time_elapsed":1150791,"internal_node_id":"0.0-5.0-9.0"},{"group":"hexagon_bi","fractal_assignment":["../images/gry_blk.png","../images/cyn_red.png","../images/ylw_slt.png","../images/org_blu.png","../images/blu_wht.png","../images/pnk_blu.png"],"mutagen_generator_assignment":[0,1],"goal":0,"start":2,"action_noise":0,"location_history":"[2,3,4,3,2,3,2,1,2,1,2,1,0]","action_history":"[1,0,0,1,1,1,0,0,0,0,0,1]","mutagen_history":"[1,0,0,1,1,1,0,0,0,0,0,1]","location_rts":"[3414,5412,1974,1626,2726,1294,1261,1690,2568,1522,1299,3417]","trial_type":"fractal-mutation","trial_index":64,"time_elapsed":1195770,"internal_node_id":"0.0-5.0-10.0"},{"group":"hexagon_bi","fractal_assignment":["../images/gry_blk.png","../images/cyn_red.png","../images/ylw_slt.png","../images/org_blu.png","../images/blu_wht.png","../images/pnk_blu.png"],"mutagen_generator_assignment":[0,1],"goal":1,"start":0,"action_noise":0,"location_history":"[0,1]","action_history":"[1]","mutagen_history":"[1]","location_rts":"[3609]","trial_type":"fractal-mutation","trial_index":65,"time_elapsed":1204458,"internal_node_id":"0.0-5.0-11.0"},{"group":"hexagon_bi","fractal_assignment":["../images/gry_blk.png","../images/cyn_red.png","../images/ylw_slt.png","../images/org_blu.png","../images/blu_wht.png","../images/pnk_blu.png"],"mutagen_generator_assignment":[0,1],"goal":3,"start":1,"action_noise":0,"location_history":"[1,2,3]","action_history":"[0,1]","mutagen_history":"[0,1]","location_rts":"[5046,885]","trial_type":"fractal-mutation","trial_index":66,"time_elapsed":1216549,"internal_node_id":"0.0-5.0-12.0"},{"group":"hexagon_bi","fractal_assignment":["../images/gry_blk.png","../images/cyn_red.png","../images/ylw_slt.png","../images/org_blu.png","../images/blu_wht.png","../images/pnk_blu.png"],"mutagen_generator_assignment":[0,1],"goal":5,"start":3,"action_noise":0,"location_history":"[3,4,5]","action_history":"[0,1]","mutagen_history":"[0,1]","location_rts":"[4496,840]","trial_type":"fractal-mutation","trial_index":67,"time_elapsed":1228023,"internal_node_id":"0.0-5.0-13.0"},{"group":"hexagon_bi","fractal_assignment":["../images/gry_blk.png","../images/cyn_red.png","../images/ylw_slt.png","../images/org_blu.png","../images/blu_wht.png","../images/pnk_blu.png"],"mutagen_generator_assignment":[0,1],"goal":4,"start":5,"action_noise":0,"location_history":"[5,4]","action_history":"[1]","mutagen_history":"[1]","location_rts":"[3786]","trial_type":"fractal-mutation","trial_index":68,"time_elapsed":1236894,"internal_node_id":"0.0-5.0-14.0"},{"group":"hexagon_bi","fractal_assignment":["../images/gry_blk.png","../images/cyn_red.png","../images/ylw_slt.png","../images/org_blu.png","../images/blu_wht.png","../images/pnk_blu.png"],"mutagen_generator_assignment":[0,1],"goal":0,"start":4,"action_noise":0,"location_history":"[4,3,2,1,0]","action_history":"[0,1,0,1]","mutagen_history":"[0,1,0,1]","location_rts":"[3178,1267,2357,1116]","trial_type":"fractal-mutation","trial_index":69,"time_elapsed":1253073,"internal_node_id":"0.0-5.0-15.0"},{"group":"hexagon_bi","fractal_assignment":["../images/gry_blk.png","../images/cyn_red.png","../images/ylw_slt.png","../images/org_blu.png","../images/blu_wht.png","../images/pnk_blu.png"],"mutagen_generator_assignment":[0,1],"goal":3,"start":0,"action_noise":0,"location_history":"[0,1,2,3]","action_history":"[1,0,1]","mutagen_history":"[1,0,1]","location_rts":"[4991,906,1488]","trial_type":"fractal-mutation","trial_index":70,"time_elapsed":1267657,"internal_node_id":"0.0-5.0-16.0"},{"group":"hexagon_bi","fractal_assignment":["../images/gry_blk.png","../images/cyn_red.png","../images/ylw_slt.png","../images/org_blu.png","../images/blu_wht.png","../images/pnk_blu.png"],"mutagen_generator_assignment":[0,1],"goal":1,"start":3,"action_noise":0,"location_history":"[3,2,1]","action_history":"[1,0]","mutagen_history":"[1,0]","location_rts":"[6518,855]","trial_type":"fractal-mutation","trial_index":71,"time_elapsed":1281162,"internal_node_id":"0.0-5.0-17.0"},{"group":"hexagon_bi","fractal_assignment":["../images/gry_blk.png","../images/cyn_red.png","../images/ylw_slt.png","../images/org_blu.png","../images/blu_wht.png","../images/pnk_blu.png"],"mutagen_generator_assignment":[0,1],"goal":5,"start":1,"action_noise":0,"location_history":"[1,0,5]","action_history":"[1,0]","mutagen_history":"[1,0]","location_rts":"[2764,1995]","trial_type":"fractal-mutation","trial_index":72,"time_elapsed":1292061,"internal_node_id":"0.0-5.0-18.0"},{"group":"hexagon_bi","fractal_assignment":["../images/gry_blk.png","../images/cyn_red.png","../images/ylw_slt.png","../images/org_blu.png","../images/blu_wht.png","../images/pnk_blu.png"],"mutagen_generator_assignment":[0,1],"goal":2,"start":5,"action_noise":0,"location_history":"[5,0,1,2]","action_history":"[0,1,0]","mutagen_history":"[0,1,0]","location_rts":"[6844,1020,1767]","trial_type":"fractal-mutation","trial_index":73,"time_elapsed":1308879,"internal_node_id":"0.0-5.0-19.0"},{"group":"hexagon_bi","fractal_assignment":["../images/gry_blk.png","../images/cyn_red.png","../images/ylw_slt.png","../images/org_blu.png","../images/blu_wht.png","../images/pnk_blu.png"],"mutagen_generator_assignment":[0,1],"goal":4,"start":2,"action_noise":0,"location_history":"[2,3,4]","action_history":"[1,0]","mutagen_history":"[1,0]","location_rts":"[4793,2151]","trial_type":"fractal-mutation","trial_index":74,"time_elapsed":1321962,"internal_node_id":"0.0-5.0-20.0"},{"group":"hexagon_bi","fractal_assignment":["../images/gry_blk.png","../images/cyn_red.png","../images/ylw_slt.png","../images/org_blu.png","../images/blu_wht.png","../images/pnk_blu.png"],"mutagen_generator_assignment":[0,1],"goal":1,"start":4,"action_noise":0,"location_history":"[4,3,2,1]","action_history":"[0,1,0]","mutagen_history":"[0,1,0]","location_rts":"[4797,631,1206]","trial_type":"fractal-mutation","trial_index":75,"time_elapsed":1335790,"internal_node_id":"0.0-5.0-21.0"},{"group":"hexagon_bi","fractal_assignment":["../images/gry_blk.png","../images/cyn_red.png","../images/ylw_slt.png","../images/org_blu.png","../images/blu_wht.png","../images/pnk_blu.png"],"mutagen_generator_assignment":[0,1],"goal":3,"start":1,"action_noise":0,"location_history":"[1,2,3]","action_history":"[0,1]","mutagen_history":"[0,1]","location_rts":"[2965,992]","trial_type":"fractal-mutation","trial_index":76,"time_elapsed":1345875,"internal_node_id":"0.0-5.0-22.0"},{"group":"hexagon_bi","fractal_assignment":["../images/gry_blk.png","../images/cyn_red.png","../images/ylw_slt.png","../images/org_blu.png","../images/blu_wht.png","../images/pnk_blu.png"],"mutagen_generator_assignment":[0,1],"goal":2,"start":3,"action_noise":0,"location_history":"[3,4,5,4,3,2]","action_history":"[0,1,1,0,1]","mutagen_history":"[0,1,1,0,1]","location_rts":"[4504,829,1873,746,1275]","trial_type":"fractal-mutation","trial_index":77,"time_elapsed":1364449,"internal_node_id":"0.0-5.0-23.0"},{"group":"hexagon_bi","fractal_assignment":["../images/gry_blk.png","../images/cyn_red.png","../images/ylw_slt.png","../images/org_blu.png","../images/blu_wht.png","../images/pnk_blu.png"],"mutagen_generator_assignment":[0,1],"goal":0,"start":2,"action_noise":0,"location_history":"[2,3,4,3,2,3,4,3,4,5,0]","action_history":"[1,0,0,1,1,0,0,0,1,0]","mutagen_history":"[1,0,0,1,1,0,0,0,1,0]","location_rts":"[3520,1579,1511,1155,1713,2184,931,931,1712,1612]","trial_type":"fractal-mutation","trial_index":78,"time_elapsed":1395965,"internal_node_id":"0.0-5.0-24.0"},{"group":"hexagon_bi","fractal_assignment":["../images/gry_blk.png","../images/cyn_red.png","../images/ylw_slt.png","../images/org_blu.png","../images/blu_wht.png","../images/pnk_blu.png"],"mutagen_generator_assignment":[0,1],"goal":5,"start":0,"action_noise":0,"location_history":"[0,5]","action_history":"[0]","mutagen_history":"[0]","location_rts":"[2400]","trial_type":"fractal-mutation","trial_index":79,"time_elapsed":1403432,"internal_node_id":"0.0-5.0-25.0"},{"group":"hexagon_bi","fractal_assignment":["../images/gry_blk.png","../images/cyn_red.png","../images/ylw_slt.png","../images/org_blu.png","../images/blu_wht.png","../images/pnk_blu.png"],"mutagen_generator_assignment":[0,1],"goal":2,"start":5,"action_noise":0,"location_history":"[5,0,1,0,5,0,1,2]","action_history":"[0,1,1,0,0,1,0]","mutagen_history":"[0,1,1,0,0,1,0]","location_rts":"[2729,589,2372,553,1502,1291,1268]","trial_type":"fractal-mutation","trial_index":80,"time_elapsed":1425258,"internal_node_id":"0.0-5.0-26.0"},{"group":"hexagon_bi","fractal_assignment":["../images/gry_blk.png","../images/cyn_red.png","../images/ylw_slt.png","../images/org_blu.png","../images/blu_wht.png","../images/pnk_blu.png"],"mutagen_generator_assignment":[0,1],"goal":3,"start":2,"action_noise":0,"location_history":"[2,1,0,5,4,3]","action_history":"[0,1,0,1,0]","mutagen_history":"[0,1,0,1,0]","location_rts":"[6441,1198,1546,1503,1090]","trial_type":"fractal-mutation","trial_index":81,"time_elapsed":1446377,"internal_node_id":"0.0-5.0-27.0"},{"group":"hexagon_bi","fractal_assignment":["../images/gry_blk.png","../images/cyn_red.png","../images/ylw_slt.png","../images/org_blu.png","../images/blu_wht.png","../images/pnk_blu.png"],"mutagen_generator_assignment":[0,1],"goal":0,"start":3,"action_noise":0,"location_history":"[3,2,1,0]","action_history":"[1,0,1]","mutagen_history":"[1,0,1]","location_rts":"[2367,1074,1360]","trial_type":"fractal-mutation","trial_index":82,"time_elapsed":1458387,"internal_node_id":"0.0-5.0-28.0"},{"group":"hexagon_bi","fractal_assignment":["../images/gry_blk.png","../images/cyn_red.png","../images/ylw_slt.png","../images/org_blu.png","../images/blu_wht.png","../images/pnk_blu.png"],"mutagen_generator_assignment":[0,1],"goal":1,"start":0,"action_noise":0,"location_history":"[0,1]","action_history":"[1]","mutagen_history":"[1]","location_rts":"[4761]","trial_type":"fractal-mutation","trial_index":83,"time_elapsed":1468223,"internal_node_id":"0.0-5.0-29.0"},{"group":"hexagon_bi","fractal_assignment":["../images/gry_blk.png","../images/cyn_red.png","../images/ylw_slt.png","../images/org_blu.png","../images/blu_wht.png","../images/pnk_blu.png"],"mutagen_generator_assignment":[0,1],"goal":4,"start":1,"action_noise":0,"location_history":"[1,2,3,4]","action_history":"[0,1,0]","mutagen_history":"[0,1,0]","location_rts":"[2455,931,3363]","trial_type":"fractal-mutation","trial_index":84,"time_elapsed":1482147,"internal_node_id":"0.0-5.0-30.0"},{"group":"hexagon_bi","fractal_assignment":["../images/gry_blk.png","../images/cyn_red.png","../images/ylw_slt.png","../images/org_blu.png","../images/blu_wht.png","../images/pnk_blu.png"],"mutagen_generator_assignment":[0,1],"goal":5,"start":4,"action_noise":0,"location_history":"[4,5]","action_history":"[1]","mutagen_history":"[1]","location_rts":"[2225]","trial_type":"fractal-mutation","trial_index":85,"time_elapsed":1489435,"internal_node_id":"0.0-5.0-31.0"},{"group":"hexagon_bi","fractal_assignment":["../images/gry_blk.png","../images/cyn_red.png","../images/ylw_slt.png","../images/org_blu.png","../images/blu_wht.png","../images/pnk_blu.png"],"mutagen_generator_assignment":[0,1],"goal":0,"start":5,"action_noise":0,"location_history":"[5,4,3,4,5,4,3,2,1,0]","action_history":"[1,0,0,1,1,0,1,0,1]","mutagen_history":"[1,0,0,1,1,0,1,0,1]","location_rts":"[4017,598,1950,526,1308,1599,2005,1576,1384]","trial_type":"fractal-mutation","trial_index":86,"time_elapsed":1517946,"internal_node_id":"0.0-5.0-32.0"},{"group":"hexagon_bi","fractal_assignment":["../images/gry_blk.png","../images/cyn_red.png","../images/ylw_slt.png","../images/org_blu.png","../images/blu_wht.png","../images/pnk_blu.png"],"mutagen_generator_assignment":[0,1],"goal":3,"start":0,"action_noise":0,"location_history":"[0,1,2,3]","action_history":"[1,0,1]","mutagen_history":"[1,0,1]","location_rts":"[6349,631,1692]","trial_type":"fractal-mutation","trial_index":87,"time_elapsed":1533825,"internal_node_id":"0.0-5.0-33.0"},{"group":"hexagon_bi","fractal_assignment":["../images/gry_blk.png","../images/cyn_red.png","../images/ylw_slt.png","../images/org_blu.png","../images/blu_wht.png","../images/pnk_blu.png"],"mutagen_generator_assignment":[0,1],"goal":1,"start":3,"action_noise":0,"location_history":"[3,4,5,0,5,4,3,2,1]","action_history":"[0,1,0,0,1,0,1,0]","mutagen_history":"[0,1,0,0,1,0,1,0]","location_rts":"[1891,1700,666,2080,552,1562,1281,1012]","trial_type":"fractal-mutation","trial_index":88,"time_elapsed":1557029,"internal_node_id":"0.0-5.0-34.0"},{"group":"hexagon_bi","fractal_assignment":["../images/gry_blk.png","../images/cyn_red.png","../images/ylw_slt.png","../images/org_blu.png","../images/blu_wht.png","../images/pnk_blu.png"],"mutagen_generator_assignment":[0,1],"goal":2,"start":1,"action_noise":0,"location_history":"[1,2]","action_history":"[0]","mutagen_history":"[0]","location_rts":"[1738]","trial_type":"fractal-mutation","trial_index":89,"time_elapsed":1563830,"internal_node_id":"0.0-5.0-35.0"},{"group":"hexagon_bi","fractal_assignment":["../images/gry_blk.png","../images/cyn_red.png","../images/ylw_slt.png","../images/org_blu.png","../images/blu_wht.png","../images/pnk_blu.png"],"mutagen_generator_assignment":[0,1],"goal":4,"start":2,"action_noise":0,"location_history":"[2,3,4]","action_history":"[1,0]","mutagen_history":"[1,0]","location_rts":"[3987,658]","trial_type":"fractal-mutation","trial_index":90,"time_elapsed":1574619,"internal_node_id":"0.0-5.0-36.0"},{"group":"hexagon_bi","fractal_assignment":["../images/gry_blk.png","../images/cyn_red.png","../images/ylw_slt.png","../images/org_blu.png","../images/blu_wht.png","../images/pnk_blu.png"],"mutagen_generator_assignment":[0,1],"goal":5,"start":4,"action_noise":0,"location_history":"[4,5]","action_history":"[1]","mutagen_history":"[1]","location_rts":"[4455]","trial_type":"fractal-mutation","trial_index":91,"time_elapsed":1584155,"internal_node_id":"0.0-5.0-37.0"},{"group":"hexagon_bi","fractal_assignment":["../images/gry_blk.png","../images/cyn_red.png","../images/ylw_slt.png","../images/org_blu.png","../images/blu_wht.png","../images/pnk_blu.png"],"mutagen_generator_assignment":[0,1],"goal":1,"start":5,"action_noise":0,"location_history":"[5,0,1]","action_history":"[0,1]","mutagen_history":"[0,1]","location_rts":"[1945,711]","trial_type":"fractal-mutation","trial_index":92,"time_elapsed":1592939,"internal_node_id":"0.0-5.0-38.0"},{"group":"hexagon_bi","fractal_assignment":["../images/gry_blk.png","../images/cyn_red.png","../images/ylw_slt.png","../images/org_blu.png","../images/blu_wht.png","../images/pnk_blu.png"],"mutagen_generator_assignment":[0,1],"goal":4,"start":1,"action_noise":0,"location_history":"[1,0,5,4]","action_history":"[1,0,1]","mutagen_history":"[1,0,1]","location_rts":"[3826,565,945]","trial_type":"fractal-mutation","trial_index":93,"time_elapsed":1605488,"internal_node_id":"0.0-5.0-39.0"},{"group":"hexagon_bi","fractal_assignment":["../images/gry_blk.png","../images/cyn_red.png","../images/ylw_slt.png","../images/org_blu.png","../images/blu_wht.png","../images/pnk_blu.png"],"mutagen_generator_assignment":[0,1],"goal":3,"start":4,"action_noise":0,"location_history":"[4,3]","action_history":"[0]","mutagen_history":"[0]","location_rts":"[1795]","trial_type":"fractal-mutation","trial_index":94,"time_elapsed":1612342,"internal_node_id":"0.0-5.0-40.0"},{"group":"hexagon_bi","fractal_assignment":["../images/gry_blk.png","../images/cyn_red.png","../images/ylw_slt.png","../images/org_blu.png","../images/blu_wht.png","../images/pnk_blu.png"],"mutagen_generator_assignment":[0,1],"goal":2,"start":3,"action_noise":0,"location_history":"[3,2]","action_history":"[1]","mutagen_history":"[1]","location_rts":"[1685]","trial_type":"fractal-mutation","trial_index":95,"time_elapsed":1619114,"internal_node_id":"0.0-5.0-41.0"},{"group":"hexagon_bi","fractal_assignment":["../images/gry_blk.png","../images/cyn_red.png","../images/ylw_slt.png","../images/org_blu.png","../images/blu_wht.png","../images/pnk_blu.png"],"mutagen_generator_assignment":[0,1],"goal":0,"start":2,"action_noise":0,"location_history":"[2,3,4,5,0]","action_history":"[1,0,1,0]","mutagen_history":"[1,0,1,0]","location_rts":"[2526,656,802,622]","trial_type":"fractal-mutation","trial_index":96,"time_elapsed":1631955,"internal_node_id":"0.0-5.0-42.0"},{"group":"hexagon_bi","fractal_assignment":["../images/gry_blk.png","../images/cyn_red.png","../images/ylw_slt.png","../images/org_blu.png","../images/blu_wht.png","../images/pnk_blu.png"],"mutagen_generator_assignment":[0,1],"goal":5,"start":0,"action_noise":0,"location_history":"[0,1,2,3,4,5]","action_history":"[1,0,1,0,1]","mutagen_history":"[1,0,1,0,1]","location_rts":"[1767,700,735,729,1382]","trial_type":"fractal-mutation","trial_index":97,"time_elapsed":1646599,"internal_node_id":"0.0-5.0-43.0"},{"group":"hexagon_bi","fractal_assignment":["../images/gry_blk.png","../images/cyn_red.png","../images/ylw_slt.png","../images/org_blu.png","../images/blu_wht.png","../images/pnk_blu.png"],"mutagen_generator_assignment":[0,1],"goal":0,"start":5,"action_noise":0,"location_history":"[5,0]","action_history":"[0]","mutagen_history":"[0]","location_rts":"[2252]","trial_type":"fractal-mutation","trial_index":98,"time_elapsed":1653915,"internal_node_id":"0.0-5.0-44.0"},{"group":"hexagon_bi","fractal_assignment":["../images/gry_blk.png","../images/cyn_red.png","../images/ylw_slt.png","../images/org_blu.png","../images/blu_wht.png","../images/pnk_blu.png"],"mutagen_generator_assignment":[0,1],"goal":2,"start":0,"action_noise":0,"location_history":"[0,1,2]","action_history":"[1,0]","mutagen_history":"[1,0]","location_rts":"[2090,625]","trial_type":"fractal-mutation","trial_index":99,"time_elapsed":1662744,"internal_node_id":"0.0-5.0-45.0"},{"group":"hexagon_bi","fractal_assignment":["../images/gry_blk.png","../images/cyn_red.png","../images/ylw_slt.png","../images/org_blu.png","../images/blu_wht.png","../images/pnk_blu.png"],"mutagen_generator_assignment":[0,1],"goal":4,"start":2,"action_noise":0,"location_history":"[2,1,0,5,4]","action_history":"[0,1,0,1]","mutagen_history":"[0,1,0,1]","location_rts":"[2487,799,794,1986]","trial_type":"fractal-mutation","trial_index":100,"time_elapsed":1677076,"internal_node_id":"0.0-5.0-46.0"},{"group":"hexagon_bi","fractal_assignment":["../images/gry_blk.png","../images/cyn_red.png","../images/ylw_slt.png","../images/org_blu.png","../images/blu_wht.png","../images/pnk_blu.png"],"mutagen_generator_assignment":[0,1],"goal":1,"start":4,"action_noise":0,"location_history":"[4,5,0,1]","action_history":"[1,0,1]","mutagen_history":"[1,0,1]","location_rts":"[3349,604,792]","trial_type":"fractal-mutation","trial_index":101,"time_elapsed":1689010,"internal_node_id":"0.0-5.0-47.0"},{"group":"hexagon_bi","fractal_assignment":["../images/gry_blk.png","../images/cyn_red.png","../images/ylw_slt.png","../images/org_blu.png","../images/blu_wht.png","../images/pnk_blu.png"],"mutagen_generator_assignment":[0,1],"goal":5,"start":1,"action_noise":0,"location_history":"[1,0,5]","action_history":"[1,0]","mutagen_history":"[1,0]","location_rts":"[2756,537]","trial_type":"fractal-mutation","trial_index":102,"time_elapsed":1698448,"internal_node_id":"0.0-5.0-48.0"},{"group":"hexagon_bi","fractal_assignment":["../images/gry_blk.png","../images/cyn_red.png","../images/ylw_slt.png","../images/org_blu.png","../images/blu_wht.png","../images/pnk_blu.png"],"mutagen_generator_assignment":[0,1],"goal":3,"start":5,"action_noise":0,"location_history":"[5,0,1,2,1,0,1,2,3]","action_history":"[0,1,0,0,1,1,0,1]","mutagen_history":"[0,1,0,0,1,1,0,1]","location_rts":"[4485,1673,1052,1023,545,984,1890,1744]","trial_type":"fractal-mutation","trial_index":103,"time_elapsed":1724329,"internal_node_id":"0.0-5.0-49.0"},{"view_history":"[{\"page_index\":0,\"viewing_time\":12033}]","rt":12034,"trial_type":"instructions","trial_index":104,"time_elapsed":1737365,"internal_node_id":"0.0-6.0"},{"rt":3266,"responses":"{\"Q0\":\"\"}","trial_type":"survey-text","trial_index":105,"time_elapsed":1741642,"internal_node_id":"0.0-7.0"}]