[{"view_history":"[{\"page_index\":0,\"viewing_time\":5460},{\"page_index\":1,\"viewing_time\":20632}]","rt":26092,"trial_type":"instructions","trial_index":0,"time_elapsed":26096,"internal_node_id":"0.0-0.0"},{"view_history":"[{\"page_index\":0,\"viewing_time\":2758},{\"page_index\":1,\"viewing_time\":11896}]","rt":14654,"trial_type":"instructions","trial_index":1,"time_elapsed":41762,"internal_node_id":"0.0-1.0"},{"group":"hexagon_bi","room_assignment":["grey","red","blue","yellow","green","purple"],"door_color_assignment":["white","black"],"door_generator_assignment":[1,0],"goal":3,"start":5,"action_noise":0,"location_history":"[5,0,1,2,3]","action_history":"[0,1,0,1]","door_history":"[1,0,1,0]","location_rts":"[11146,2526,1514,2176]","trial_type":"two-door-navigation","trial_index":2,"time_elapsed":67692,"internal_node_id":"0.0-2.0-0.0"},{"group":"hexagon_bi","room_assignment":["grey","red","blue","yellow","green","purple"],"door_color_assignment":["white","black"],"door_generator_assignment":[1,0],"goal":1,"start":3,"action_noise":0,"location_history":"[3,4,5,0,1]","action_history":"[0,1,0,1]","door_history":"[1,0,1,0]","location_rts":"[6144,1180,2946,2126]","trial_type":"two-door-navigation","trial_index":3,"time_elapsed":88700,"internal_node_id":"0.0-2.0-1.0"},{"group":"hexagon_bi","room_assignment":["grey","red","blue","yellow","green","purple"],"door_color_assignment":["white","black"],"door_generator_assignment":[1,0],"goal":0,"start":1,"action_noise":0,"location_history":"[1,0]","action_history":"[1]","door_history":"[0]","location_rts":"[4956]","trial_type":"two-door-navigation","trial_index":4,"time_elapsed":98836,"internal_node_id":"0.0-2.0-2.0"},{"group":"hexagon_bi","room_assignment":["grey","red","blue","yellow","green","purple"],"door_color_assignment":["white","black"],"door_generator_assignment":[1,0],"goal":3,"start":0,"action_noise":0,"location_history":"[0,5,4,3]","action_history":"[0,1,0]","door_history":"[1,0,1]","location_rts":"[7516,2732,2336]","trial_type":"two-door-navigation","trial_index":5,"time_elapsed":118868,"internal_node_id":"0.0-2.0-3.0"},{"group":"hexagon_bi","room_assignment":["grey","red","blue","yellow","green","purple"],"door_color_assignment":["white","black"],"door_generator_assignment":[1,0],"goal":4,"start":3,"action_noise":0,"location_history":"[3,4]","action_history":"[0]","door_history":"[1]","location_rts":"[6190]","trial_type":"two-door-navigation","trial_index":6,"time_elapsed":130246,"internal_node_id":"0.0-2.0-4.0"},{"group":"hexagon_bi","room_assignment":["grey","red","blue","yellow","green","purple"],"door_color_assignment":["white","black"],"door_generator_assignment":[1,0],"goal":2,"start":4,"action_noise":0,"location_history":"[4,5,0,1,2]","action_history":"[1,0,1,0]","door_history":"[0,1,0,1]","location_rts":"[2988,1784,1338,1312]","trial_type":"two-door-navigation","trial_index":7,"time_elapsed":146232,"internal_node_id":"0.0-2.0-5.0"},{"group":"hexagon_bi","room_assignment":["grey","red","blue","yellow","green","purple"],"door_color_assignment":["white","black"],"door_generator_assignment":[1,0],"goal":1,"start":2,"action_noise":0,"location_history":"[2,1]","action_history":"[0]","door_history":"[1]","location_rts":"[2874]","trial_type":"two-door-navigation","trial_index":8,"time_elapsed":154280,"internal_node_id":"0.0-2.0-6.0"},{"group":"hexagon_bi","room_assignment":["grey","red","blue","yellow","green","purple"],"door_color_assignment":["white","black"],"door_generator_assignment":[1,0],"goal":5,"start":1,"action_noise":0,"location_history":"[1,0,5]","action_history":"[1,0]","door_history":"[0,1]","location_rts":"[3932,1690]","trial_type":"two-door-navigation","trial_index":9,"time_elapsed":166218,"internal_node_id":"0.0-2.0-7.0"},{"group":"hexagon_bi","room_assignment":["grey","red","blue","yellow","green","purple"],"door_color_assignment":["white","black"],"door_generator_assignment":[1,0],"goal":4,"start":5,"action_noise":0,"location_history":"[5,4]","action_history":"[1]","door_history":"[0]","location_rts":"[9558]","trial_type":"two-door-navigation","trial_index":10,"time_elapsed":180938,"internal_node_id":"0.0-2.0-8.0"},{"group":"hexagon_bi","room_assignment":["grey","red","blue","yellow","green","purple"],"door_color_assignment":["white","black"],"door_generator_assignment":[1,0],"goal":2,"start":4,"action_noise":0,"location_history":"[4,5,0,1,2]","action_history":"[1,0,1,0]","door_history":"[0,1,0,1]","location_rts":"[4726,1044,2120,732]","trial_type":"two-door-navigation","trial_index":11,"time_elapsed":198104,"internal_node_id":"0.0-2.0-9.0"},{"group":"hexagon_bi","room_assignment":["grey","red","blue","yellow","green","purple"],"door_color_assignment":["white","black"],"door_generator_assignment":[1,0],"goal":0,"start":2,"action_noise":0,"location_history":"[2,1,0]","action_history":"[0,1]","door_history":"[1,0]","location_rts":"[3426,1152]","trial_type":"two-door-navigation","trial_index":12,"time_elapsed":209012,"internal_node_id":"0.0-2.0-10.0"},{"group":"hexagon_bi","room_assignment":["grey","red","blue","yellow","green","purple"],"door_color_assignment":["white","black"],"door_generator_assignment":[1,0],"goal":1,"start":0,"action_noise":0,"location_history":"[0,5,0,1]","action_history":"[0,0,1]","door_history":"[1,1,0]","location_rts":"[3308,1364,554]","trial_type":"two-door-navigation","trial_index":13,"time_elapsed":221686,"internal_node_id":"0.0-2.0-11.0"},{"group":"hexagon_bi","room_assignment":["grey","red","blue","yellow","green","purple"],"door_color_assignment":["white","black"],"door_generator_assignment":[1,0],"goal":3,"start":1,"action_noise":0,"location_history":"[1,0,5,4,3]","action_history":"[1,0,1,0]","door_history":"[0,1,0,1]","location_rts":"[16246,3688,3034,750]","trial_type":"two-door-navigation","trial_index":14,"time_elapsed":253972,"internal_node_id":"0.0-2.0-12.0"},{"group":"hexagon_bi","room_assignment":["grey","red","blue","yellow","green","purple"],"door_color_assignment":["white","black"],"door_generator_assignment":[1,0],"goal":5,"start":3,"action_noise":0,"location_history":"[3,4,5]","action_history":"[0,1]","door_history":"[1,0]","location_rts":"[6114,710]","trial_type":"two-door-navigation","trial_index":15,"time_elapsed":267098,"internal_node_id":"0.0-2.0-13.0"},{"group":"hexagon_bi","room_assignment":["grey","red","blue","yellow","green","purple"],"door_color_assignment":["white","black"],"door_generator_assignment":[1,0],"goal":4,"start":5,"action_noise":0,"location_history":"[5,0,5,4]","action_history":"[0,0,1]","door_history":"[1,1,0]","location_rts":"[4522,1428,506]","trial_type":"two-door-navigation","trial_index":16,"time_elapsed":280990,"internal_node_id":"0.0-2.0-14.0"},{"group":"hexagon_bi","room_assignment":["grey","red","blue","yellow","green","purple"],"door_color_assignment":["white","black"],"door_generator_assignment":[1,0],"goal":0,"start":4,"action_noise":0,"location_history":"[4,5,0]","action_history":"[1,0]","door_history":"[0,1]","location_rts":"[3622,574]","trial_type":"two-door-navigation","trial_index":17,"time_elapsed":291506,"internal_node_id":"0.0-2.0-15.0"},{"group":"hexagon_bi","room_assignment":["grey","red","blue","yellow","green","purple"],"door_color_assignment":["white","black"],"door_generator_assignment":[1,0],"goal":3,"start":0,"action_noise":0,"location_history":"[0,5,4,3]","action_history":"[0,1,0]","door_history":"[1,0,1]","location_rts":"[10056,1632,902]","trial_type":"two-door-navigation","trial_index":18,"time_elapsed":311556,"internal_node_id":"0.0-2.0-16.0"},{"group":"hexagon_bi","room_assignment":["grey","red","blue","yellow","green","purple"],"door_color_assignment":["white","black"],"door_generator_assignment":[1,0],"goal":1,"start":3,"action_noise":0,"location_history":"[3,2,1]","action_history":"[1,0]","door_history":"[0,1]","location_rts":"[7148,1452]","trial_type":"two-door-navigation","trial_index":19,"time_elapsed":326494,"internal_node_id":"0.0-2.0-17.0"},{"group":"hexagon_bi","room_assignment":["grey","red","blue","yellow","green","purple"],"door_color_assignment":["white","black"],"door_generator_assignment":[1,0],"goal":5,"start":1,"action_noise":0,"location_history":"[1,0,5]","action_history":"[1,0]","door_history":"[0,1]","location_rts":"[4864,1462]","trial_type":"two-door-navigation","trial_index":20,"time_elapsed":339116,"internal_node_id":"0.0-2.0-18.0"},{"group":"hexagon_bi","room_assignment":["grey","red","blue","yellow","green","purple"],"door_color_assignment":["white","black"],"door_generator_assignment":[1,0],"goal":2,"start":5,"action_noise":0,"location_history":"[5,0,1,2]","action_history":"[0,1,0]","door_history":"[1,0,1]","location_rts":"[8942,1776,728]","trial_type":"two-door-navigation","trial_index":21,"time_elapsed":357998,"internal_node_id":"0.0-2.0-19.0"},{"group":"hexagon_bi","room_assignment":["grey","red","blue","yellow","green","purple"],"door_color_assignment":["white","black"],"door_generator_assignment":[1,0],"goal":4,"start":2,"action_noise":0,"location_history":"[2,3,4]","action_history":"[1,0]","door_history":"[0,1]","location_rts":"[8910,1512]","trial_type":"two-door-navigation","trial_index":22,"time_elapsed":374752,"internal_node_id":"0.0-2.0-20.0"},{"group":"hexagon_bi","room_assignment":["grey","red","blue","yellow","green","purple"],"door_color_assignment":["white","black"],"door_generator_assignment":[1,0],"goal":1,"start":4,"action_noise":0,"location_history":"[4,3,2,1]","action_history":"[0,1,0]","door_history":"[1,0,1]","location_rts":"[5666,944,838]","trial_type":"two-door-navigation","trial_index":23,"time_elapsed":389674,"internal_node_id":"0.0-2.0-21.0"},{"group":"hexagon_bi","room_assignment":["grey","red","blue","yellow","green","purple"],"door_color_assignment":["white","black"],"door_generator_assignment":[1,0],"goal":3,"start":1,"action_noise":0,"location_history":"[1,2,3]","action_history":"[0,1]","door_history":"[1,0]","location_rts":"[7930,2400]","trial_type":"two-door-navigation","trial_index":24,"time_elapsed":406348,"internal_node_id":"0.0-2.0-22.0"},{"group":"hexagon_bi","room_assignment":["grey","red","blue","yellow","green","purple"],"door_color_assignment":["white","black"],"door_generator_assignment":[1,0],"goal":2,"start":3,"action_noise":0,"location_history":"[3,2]","action_history":"[1]","door_history":"[0]","location_rts":"[1498]","trial_type":"two-door-navigation","trial_index":25,"time_elapsed":413036,"internal_node_id":"0.0-2.0-23.0"},{"group":"hexagon_bi","room_assignment":["grey","red","blue","yellow","green","purple"],"door_color_assignment":["white","black"],"door_generator_assignment":[1,0],"goal":0,"start":2,"action_noise":0,"location_history":"[2,1,0]","action_history":"[0,1]","door_history":"[1,0]","location_rts":"[3130,614]","trial_type":"two-door-navigation","trial_index":26,"time_elapsed":423116,"internal_node_id":"0.0-2.0-24.0"},{"group":"hexagon_bi","room_assignment":["grey","red","blue","yellow","green","purple"],"door_color_assignment":["white","black"],"door_generator_assignment":[1,0],"goal":5,"start":0,"action_noise":0,"location_history":"[0,5]","action_history":"[0]","door_history":"[1]","location_rts":"[4250]","trial_type":"two-door-navigation","trial_index":27,"time_elapsed":432538,"internal_node_id":"0.0-2.0-25.0"},{"group":"hexagon_bi","room_assignment":["grey","red","blue","yellow","green","purple"],"door_color_assignment":["white","black"],"door_generator_assignment":[1,0],"goal":2,"start":5,"action_noise":0,"location_history":"[5,4,5,0,5,0,1,2]","action_history":"[1,1,0,0,0,1,0]","door_history":"[0,0,1,1,1,0,1]","location_rts":"[2816,2248,672,2138,4776,1272,1244]","trial_type":"two-door-navigation","trial_index":28,"time_elapsed":459666,"internal_node_id":"0.0-2.0-26.0"},{"group":"hexagon_bi","room_assignment":["grey","red","blue","yellow","green","purple"],"door_color_assignment":["white","black"],"door_generator_assignment":[1,0],"goal":3,"start":2,"action_noise":0,"location_history":"[2,3]","action_history":"[1]","door_history":"[0]","location_rts":"[2758]","trial_type":"two-door-navigation","trial_index":29,"time_elapsed":467620,"internal_node_id":"0.0-2.0-27.0"},{"group":"hexagon_bi","room_assignment":["grey","red","blue","yellow","green","purple"],"door_color_assignment":["white","black"],"door_generator_assignment":[1,0],"goal":0,"start":3,"action_noise":0,"location_history":"[3,2,1,0]","action_history":"[1,0,1]","door_history":"[0,1,0]","location_rts":"[3048,1760,1322]","trial_type":"two-door-navigation","trial_index":30,"time_elapsed":481200,"internal_node_id":"0.0-2.0-28.0"},{"group":"hexagon_bi","room_assignment":["grey","red","blue","yellow","green","purple"],"door_color_assignment":["white","black"],"door_generator_assignment":[1,0],"goal":1,"start":0,"action_noise":0,"location_history":"[0,1]","action_history":"[1]","door_history":"[0]","location_rts":"[7290]","trial_type":"two-door-navigation","trial_index":31,"time_elapsed":493686,"internal_node_id":"0.0-2.0-29.0"},{"group":"hexagon_bi","room_assignment":["grey","red","blue","yellow","green","purple"],"door_color_assignment":["white","black"],"door_generator_assignment":[1,0],"goal":4,"start":1,"action_noise":0,"location_history":"[1,0,5,4]","action_history":"[1,0,1]","door_history":"[0,1,0]","location_rts":"[6364,4474,1164]","trial_type":"two-door-navigation","trial_index":32,"time_elapsed":513142,"internal_node_id":"0.0-2.0-30.0"},{"group":"hexagon_bi","room_assignment":["grey","red","blue","yellow","green","purple"],"door_color_assignment":["white","black"],"door_generator_assignment":[1,0],"goal":5,"start":4,"action_noise":0,"location_history":"[4,5]","action_history":"[1]","door_history":"[0]","location_rts":"[2142]","trial_type":"two-door-navigation","trial_index":33,"time_elapsed":520454,"internal_node_id":"0.0-2.0-31.0"},{"group":"hexagon_bi","room_assignment":["grey","red","blue","yellow","green","purple"],"door_color_assignment":["white","black"],"door_generator_assignment":[1,0],"goal":0,"start":5,"action_noise":0,"location_history":"[5,0]","action_history":"[0]","door_history":"[1]","location_rts":"[6542]","trial_type":"two-door-navigation","trial_index":34,"time_elapsed":532190,"internal_node_id":"0.0-2.0-32.0"},{"group":"hexagon_bi","room_assignment":["grey","red","blue","yellow","green","purple"],"door_color_assignment":["white","black"],"door_generator_assignment":[1,0],"goal":3,"start":0,"action_noise":0,"location_history":"[0,1,2,3]","action_history":"[1,0,1]","door_history":"[0,1,0]","location_rts":"[5644,1550,518]","trial_type":"two-door-navigation","trial_index":35,"time_elapsed":547332,"internal_node_id":"0.0-2.0-33.0"},{"group":"hexagon_bi","room_assignment":["grey","red","blue","yellow","green","purple"],"door_color_assignment":["white","black"],"door_generator_assignment":[1,0],"goal":1,"start":3,"action_noise":0,"location_history":"[3,2,1]","action_history":"[1,0]","door_history":"[0,1]","location_rts":"[6220,906]","trial_type":"two-door-navigation","trial_index":36,"time_elapsed":560772,"internal_node_id":"0.0-2.0-34.0"},{"group":"hexagon_bi","room_assignment":["grey","red","blue","yellow","green","purple"],"door_color_assignment":["white","black"],"door_generator_assignment":[1,0],"goal":2,"start":1,"action_noise":0,"location_history":"[1,2]","action_history":"[0]","door_history":"[1]","location_rts":"[1662]","trial_type":"two-door-navigation","trial_index":37,"time_elapsed":567632,"internal_node_id":"0.0-2.0-35.0"},{"group":"hexagon_bi","room_assignment":["grey","red","blue","yellow","green","purple"],"door_color_assignment":["white","black"],"door_generator_assignment":[1,0],"goal":4,"start":2,"action_noise":0,"location_history":"[2,3,4]","action_history":"[1,0]","door_history":"[0,1]","location_rts":"[4318,532]","trial_type":"two-door-navigation","trial_index":38,"time_elapsed":578774,"internal_node_id":"0.0-2.0-36.0"},{"group":"hexagon_bi","room_assignment":["grey","red","blue","yellow","green","purple"],"door_color_assignment":["white","black"],"door_generator_assignment":[1,0],"goal":5,"start":4,"action_noise":0,"location_history":"[4,5]","action_history":"[1]","door_history":"[0]","location_rts":"[1740]","trial_type":"two-door-navigation","trial_index":39,"time_elapsed":585682,"internal_node_id":"0.0-2.0-37.0"},{"group":"hexagon_bi","room_assignment":["grey","red","blue","yellow","green","purple"],"door_color_assignment":["white","black"],"door_generator_assignment":[1,0],"goal":1,"start":5,"action_noise":0,"location_history":"[5,0,1]","action_history":"[0,1]","door_history":"[1,0]","location_rts":"[3762,896]","trial_type":"two-door-navigation","trial_index":40,"time_elapsed":596666,"internal_node_id":"0.0-2.0-38.0"},{"group":"hexagon_bi","room_assignment":["grey","red","blue","yellow","green","purple"],"door_color_assignment":["white","black"],"door_generator_assignment":[1,0],"goal":4,"start":1,"action_noise":0,"location_history":"[1,2,3,4]","action_history":"[0,1,0]","door_history":"[1,0,1]","location_rts":"[4154,1694,936]","trial_type":"two-door-navigation","trial_index":41,"time_elapsed":610888,"internal_node_id":"0.0-2.0-39.0"},{"group":"hexagon_bi","room_assignment":["grey","red","blue","yellow","green","purple"],"door_color_assignment":["white","black"],"door_generator_assignment":[1,0],"goal":3,"start":4,"action_noise":0,"location_history":"[4,3]","action_history":"[0]","door_history":"[1]","location_rts":"[5682]","trial_type":"two-door-navigation","trial_index":42,"time_elapsed":621778,"internal_node_id":"0.0-2.0-40.0"},{"group":"hexagon_bi","room_assignment":["grey","red","blue","yellow","green","purple"],"door_color_assignment":["white","black"],"door_generator_assignment":[1,0],"goal":2,"start":3,"action_noise":0,"location_history":"[3,2]","action_history":"[1]","door_history":"[0]","location_rts":"[2178]","trial_type":"two-door-navigation","trial_index":43,"time_elapsed":629140,"internal_node_id":"0.0-2.0-41.0"},{"group":"hexagon_bi","room_assignment":["grey","red","blue","yellow","green","purple"],"door_color_assignment":["white","black"],"door_generator_assignment":[1,0],"goal":0,"start":2,"action_noise":0,"location_history":"[2,1,0]","action_history":"[0,1]","door_history":"[1,0]","location_rts":"[2840,726]","trial_type":"two-door-navigation","trial_index":44,"time_elapsed":639046,"internal_node_id":"0.0-2.0-42.0"},{"group":"hexagon_bi","room_assignment":["grey","red","blue","yellow","green","purple"],"door_color_assignment":["white","black"],"door_generator_assignment":[1,0],"goal":5,"start":0,"action_noise":0,"location_history":"[0,5]","action_history":"[0]","door_history":"[1]","location_rts":"[6056]","trial_type":"two-door-navigation","trial_index":45,"time_elapsed":650282,"internal_node_id":"0.0-2.0-43.0"},{"group":"hexagon_bi","room_assignment":["grey","red","blue","yellow","green","purple"],"door_color_assignment":["white","black"],"door_generator_assignment":[1,0],"goal":0,"start":5,"action_noise":0,"location_history":"[5,0]","action_history":"[0]","door_history":"[1]","location_rts":"[1998]","trial_type":"two-door-navigation","trial_index":46,"time_elapsed":657456,"internal_node_id":"0.0-2.0-44.0"},{"group":"hexagon_bi","room_assignment":["grey","red","blue","yellow","green","purple"],"door_color_assignment":["white","black"],"door_generator_assignment":[1,0],"goal":2,"start":0,"action_noise":0,"location_history":"[0,5,0,1,2]","action_history":"[0,0,1,0]","door_history":"[1,1,0,1]","location_rts":"[3606,618,498,676]","trial_type":"two-door-navigation","trial_index":47,"time_elapsed":671706,"internal_node_id":"0.0-2.0-45.0"},{"group":"hexagon_bi","room_assignment":["grey","red","blue","yellow","green","purple"],"door_color_assignment":["white","black"],"door_generator_assignment":[1,0],"goal":4,"start":2,"action_noise":0,"location_history":"[2,3,4]","action_history":"[1,0]","door_history":"[0,1]","location_rts":"[6436,872]","trial_type":"two-door-navigation","trial_index":48,"time_elapsed":685318,"internal_node_id":"0.0-2.0-46.0"},{"group":"hexagon_bi","room_assignment":["grey","red","blue","yellow","green","purple"],"door_color_assignment":["white","black"],"door_generator_assignment":[1,0],"goal":1,"start":4,"action_noise":0,"location_history":"[4,5,0,1]","action_history":"[1,0,1]","door_history":"[0,1,0]","location_rts":"[2456,892,1092]","trial_type":"two-door-navigation","trial_index":49,"time_elapsed":697210,"internal_node_id":"0.0-2.0-47.0"},{"group":"hexagon_bi","room_assignment":["grey","red","blue","yellow","green","purple"],"door_color_assignment":["white","black"],"door_generator_assignment":[1,0],"goal":5,"start":1,"action_noise":0,"location_history":"[1,2,1,0,5]","action_history":"[0,0,1,0]","door_history":"[1,1,0,1]","location_rts":"[3086,2416,760,898]","trial_type":"two-door-navigation","trial_index":50,"time_elapsed":712976,"internal_node_id":"0.0-2.0-48.0"},{"group":"hexagon_bi","room_assignment":["grey","red","blue","yellow","green","purple"],"door_color_assignment":["white","black"],"door_generator_assignment":[1,0],"goal":3,"start":5,"action_noise":0,"location_history":"[5,4,3]","action_history":"[1,0]","door_history":"[0,1]","location_rts":"[3938,768]","trial_type":"two-door-navigation","trial_index":51,"time_elapsed":723994,"internal_node_id":"0.0-2.0-49.0"},{"view_history":"[{\"page_index\":0,\"viewing_time\":4580}]","rt":4580,"trial_type":"instructions","trial_index":52,"time_elapsed":729590,"internal_node_id":"0.0-3.0"},{"view_history":"[{\"page_index\":0,\"viewing_time\":2260},{\"page_index\":1,\"viewing_time\":7970}]","rt":10230,"trial_type":"instructions","trial_index":53,"time_elapsed":740834,"internal_node_id":"0.0-4.0"},{"group":"hexagon_tri","fractal_assignment":["../images/blu_wht.png","../images/org_blu.png","../images/ylw_slt.png","../images/gry_blk.png","../images/pnk_blu.png","../images/cyn_red.png"],"mutagen_generator_assignment":[0,1],"goal":3,"start":5,"action_noise":0,"location_history":"[5,4,0,1,5,4,0,5,4,2,1,3]","action_history":"[0,0,1,1,0,0,0,0,1,0,0]","mutagen_history":"[0,0,1,1,0,0,0,0,1,0,0]","location_rts":"[14640,2302,616,908,1784,768,738,1414,974,4028,5162]","trial_type":"fractal-mutation","trial_index":54,"time_elapsed":790846,"internal_node_id":"0.0-5.0-0.0"},{"group":"hexagon_tri","fractal_assignment":["../images/blu_wht.png","../images/org_blu.png","../images/ylw_slt.png","../images/gry_blk.png","../images/pnk_blu.png","../images/cyn_red.png"],"mutagen_generator_assignment":[0,1],"goal":1,"start":3,"action_noise":0,"location_history":"[3,4,0,5,4,2,3,4,0,1]","action_history":"[1,0,0,0,1,1,1,0,1]","mutagen_history":"[1,0,0,0,1,1,1,0,1]","location_rts":"[1918,2962,1120,838,1030,1780,1428,798,674]","trial_type":"fractal-mutation","trial_index":55,"time_elapsed":817724,"internal_node_id":"0.0-5.0-1.0"},{"group":"hexagon_tri","fractal_assignment":["../images/blu_wht.png","../images/org_blu.png","../images/ylw_slt.png","../images/gry_blk.png","../images/pnk_blu.png","../images/cyn_red.png"],"mutagen_generator_assignment":[0,1],"goal":0,"start":1,"action_noise":0,"location_history":"[1,5,0]","action_history":"[1,1]","mutagen_history":"[1,1]","location_rts":"[4240,2240]","trial_type":"fractal-mutation","trial_index":56,"time_elapsed":830570,"internal_node_id":"0.0-5.0-2.0"},{"group":"hexagon_tri","fractal_assignment":["../images/blu_wht.png","../images/org_blu.png","../images/ylw_slt.png","../images/gry_blk.png","../images/pnk_blu.png","../images/cyn_red.png"],"mutagen_generator_assignment":[0,1],"goal":3,"start":0,"action_noise":0,"location_history":"[0,1,3]","action_history":"[1,0]","mutagen_history":"[1,0]","location_rts":"[3968,2794]","trial_type":"fractal-mutation","trial_index":57,"time_elapsed":843680,"internal_node_id":"0.0-5.0-3.0"},{"group":"hexagon_tri","fractal_assignment":["../images/blu_wht.png","../images/org_blu.png","../images/ylw_slt.png","../images/gry_blk.png","../images/pnk_blu.png","../images/cyn_red.png"],"mutagen_generator_assignment":[0,1],"goal":4,"start":3,"action_noise":0,"location_history":"[3,4]","action_history":"[1]","mutagen_history":"[1]","location_rts":"[2544]","trial_type":"fractal-mutation","trial_index":58,"time_elapsed":851432,"internal_node_id":"0.0-5.0-4.0"},{"group":"hexagon_tri","fractal_assignment":["../images/blu_wht.png","../images/org_blu.png","../images/ylw_slt.png","../images/gry_blk.png","../images/pnk_blu.png","../images/cyn_red.png"],"mutagen_generator_assignment":[0,1],"goal":2,"start":4,"action_noise":0,"location_history":"[4,2]","action_history":"[1]","mutagen_history":"[1]","location_rts":"[2652]","trial_type":"fractal-mutation","trial_index":59,"time_elapsed":859276,"internal_node_id":"0.0-5.0-5.0"},{"group":"hexagon_tri","fractal_assignment":["../images/blu_wht.png","../images/org_blu.png","../images/ylw_slt.png","../images/gry_blk.png","../images/pnk_blu.png","../images/cyn_red.png"],"mutagen_generator_assignment":[0,1],"goal":1,"start":2,"action_noise":0,"location_history":"[2,1]","action_history":"[0]","mutagen_history":"[0]","location_rts":"[1224]","trial_type":"fractal-mutation","trial_index":60,"time_elapsed":865698,"internal_node_id":"0.0-5.0-6.0"},{"group":"hexagon_tri","fractal_assignment":["../images/blu_wht.png","../images/org_blu.png","../images/ylw_slt.png","../images/gry_blk.png","../images/pnk_blu.png","../images/cyn_red.png"],"mutagen_generator_assignment":[0,1],"goal":5,"start":1,"action_noise":0,"location_history":"[1,3,2,1,5]","action_history":"[0,0,0,1]","mutagen_history":"[0,0,0,1]","location_rts":"[3610,2046,1334,1196]","trial_type":"fractal-mutation","trial_index":61,"time_elapsed":882544,"internal_node_id":"0.0-5.0-7.0"},{"group":"hexagon_tri","fractal_assignment":["../images/blu_wht.png","../images/org_blu.png","../images/ylw_slt.png","../images/gry_blk.png","../images/pnk_blu.png","../images/cyn_red.png"],"mutagen_generator_assignment":[0,1],"goal":4,"start":5,"action_noise":0,"location_history":"[5,4]","action_history":"[0]","mutagen_history":"[0]","location_rts":"[3082]","trial_type":"fractal-mutation","trial_index":62,"time_elapsed":890826,"internal_node_id":"0.0-5.0-8.0"},{"group":"hexagon_tri","fractal_assignment":["../images/blu_wht.png","../images/org_blu.png","../images/ylw_slt.png","../images/gry_blk.png","../images/pnk_blu.png","../images/cyn_red.png"],"mutagen_generator_assignment":[0,1],"goal":2,"start":4,"action_noise":0,"location_history":"[4,2]","action_history":"[1]","mutagen_history":"[1]","location_rts":"[1082]","trial_type":"fractal-mutation","trial_index":63,"time_elapsed":897124,"internal_node_id":"0.0-5.0-9.0"},{"group":"hexagon_tri","fractal_assignment":["../images/blu_wht.png","../images/org_blu.png","../images/ylw_slt.png","../images/gry_blk.png","../images/pnk_blu.png","../images/cyn_red.png"],"mutagen_generator_assignment":[0,1],"goal":0,"start":2,"action_noise":0,"location_history":"[2,3,4,2,3,2,1,5,0]","action_history":"[1,1,1,1,0,0,1,1]","mutagen_history":"[1,1,1,1,0,0,1,1]","location_rts":"[2856,886,768,1744,564,998,1406,1248]","trial_type":"fractal-mutation","trial_index":64,"time_elapsed":920860,"internal_node_id":"0.0-5.0-10.0"},{"group":"hexagon_tri","fractal_assignment":["../images/blu_wht.png","../images/org_blu.png","../images/ylw_slt.png","../images/gry_blk.png","../images/pnk_blu.png","../images/cyn_red.png"],"mutagen_generator_assignment":[0,1],"goal":1,"start":0,"action_noise":0,"location_history":"[0,5,4,0,5,4,0,1]","action_history":"[0,0,0,0,0,0,1]","mutagen_history":"[0,0,0,0,0,0,1]","location_rts":"[1304,1164,3448,1630,1150,974,316]","trial_type":"fractal-mutation","trial_index":65,"time_elapsed":942942,"internal_node_id":"0.0-5.0-11.0"},{"group":"hexagon_tri","fractal_assignment":["../images/blu_wht.png","../images/org_blu.png","../images/ylw_slt.png","../images/gry_blk.png","../images/pnk_blu.png","../images/cyn_red.png"],"mutagen_generator_assignment":[0,1],"goal":3,"start":1,"action_noise":0,"location_history":"[1,3]","action_history":"[0]","mutagen_history":"[0]","location_rts":"[1414]","trial_type":"fractal-mutation","trial_index":66,"time_elapsed":949552,"internal_node_id":"0.0-5.0-12.0"},{"group":"hexagon_tri","fractal_assignment":["../images/blu_wht.png","../images/org_blu.png","../images/ylw_slt.png","../images/gry_blk.png","../images/pnk_blu.png","../images/cyn_red.png"],"mutagen_generator_assignment":[0,1],"goal":5,"start":3,"action_noise":0,"location_history":"[3,4,2,3,2,3,4,0,1,5]","action_history":"[1,1,1,0,1,1,0,1,1]","mutagen_history":"[1,1,1,0,1,1,0,1,1]","location_rts":"[2840,1404,1922,860,666,502,2266,802,1956]","trial_type":"fractal-mutation","trial_index":67,"time_elapsed":977164,"internal_node_id":"0.0-5.0-13.0"},{"group":"hexagon_tri","fractal_assignment":["../images/blu_wht.png","../images/org_blu.png","../images/ylw_slt.png","../images/gry_blk.png","../images/pnk_blu.png","../images/cyn_red.png"],"mutagen_generator_assignment":[0,1],"goal":4,"start":5,"action_noise":0,"location_history":"[5,4]","action_history":"[0]","mutagen_history":"[0]","location_rts":"[1732]","trial_type":"fractal-mutation","trial_index":68,"time_elapsed":984086,"internal_node_id":"0.0-5.0-14.0"},{"group":"hexagon_tri","fractal_assignment":["../images/blu_wht.png","../images/org_blu.png","../images/ylw_slt.png","../images/gry_blk.png","../images/pnk_blu.png","../images/cyn_red.png"],"mutagen_generator_assignment":[0,1],"goal":0,"start":4,"action_noise":0,"location_history":"[4,0]","action_history":"[0]","mutagen_history":"[0]","location_rts":"[3902]","trial_type":"fractal-mutation","trial_index":69,"time_elapsed":993166,"internal_node_id":"0.0-5.0-15.0"},{"group":"hexagon_tri","fractal_assignment":["../images/blu_wht.png","../images/org_blu.png","../images/ylw_slt.png","../images/gry_blk.png","../images/pnk_blu.png","../images/cyn_red.png"],"mutagen_generator_assignment":[0,1],"goal":3,"start":0,"action_noise":0,"location_history":"[0,1,3]","action_history":"[1,0]","mutagen_history":"[1,0]","location_rts":"[3426,476]","trial_type":"fractal-mutation","trial_index":70,"time_elapsed":1003418,"internal_node_id":"0.0-5.0-16.0"},{"group":"hexagon_tri","fractal_assignment":["../images/blu_wht.png","../images/org_blu.png","../images/ylw_slt.png","../images/gry_blk.png","../images/pnk_blu.png","../images/cyn_red.png"],"mutagen_generator_assignment":[0,1],"goal":1,"start":3,"action_noise":0,"location_history":"[3,2,3,4,2,1]","action_history":"[0,1,1,1,0]","mutagen_history":"[0,1,1,1,0]","location_rts":"[6010,884,770,1968,792]","trial_type":"fractal-mutation","trial_index":71,"time_elapsed":1023638,"internal_node_id":"0.0-5.0-17.0"},{"group":"hexagon_tri","fractal_assignment":["../images/blu_wht.png","../images/org_blu.png","../images/ylw_slt.png","../images/gry_blk.png","../images/pnk_blu.png","../images/cyn_red.png"],"mutagen_generator_assignment":[0,1],"goal":5,"start":1,"action_noise":0,"location_history":"[1,3,2,3,2,1,5]","action_history":"[0,0,1,0,0,1]","mutagen_history":"[0,0,1,0,0,1]","location_rts":"[4272,3266,5006,1138,620,1630]","trial_type":"fractal-mutation","trial_index":72,"time_elapsed":1050500,"internal_node_id":"0.0-5.0-18.0"},{"group":"hexagon_tri","fractal_assignment":["../images/blu_wht.png","../images/org_blu.png","../images/ylw_slt.png","../images/gry_blk.png","../images/pnk_blu.png","../images/cyn_red.png"],"mutagen_generator_assignment":[0,1],"goal":2,"start":5,"action_noise":0,"location_history":"[5,4,2]","action_history":"[0,1]","mutagen_history":"[0,1]","location_rts":"[2914,1366]","trial_type":"fractal-mutation","trial_index":73,"time_elapsed":1061128,"internal_node_id":"0.0-5.0-19.0"},{"group":"hexagon_tri","fractal_assignment":["../images/blu_wht.png","../images/org_blu.png","../images/ylw_slt.png","../images/gry_blk.png","../images/pnk_blu.png","../images/cyn_red.png"],"mutagen_generator_assignment":[0,1],"goal":4,"start":2,"action_noise":0,"location_history":"[2,1,3,4]","action_history":"[0,0,1]","mutagen_history":"[0,0,1]","location_rts":"[2700,2548,548]","trial_type":"fractal-mutation","trial_index":74,"time_elapsed":1074410,"internal_node_id":"0.0-5.0-20.0"},{"group":"hexagon_tri","fractal_assignment":["../images/blu_wht.png","../images/org_blu.png","../images/ylw_slt.png","../images/gry_blk.png","../images/pnk_blu.png","../images/cyn_red.png"],"mutagen_generator_assignment":[0,1],"goal":1,"start":4,"action_noise":0,"location_history":"[4,0,1]","action_history":"[0,1]","mutagen_history":"[0,1]","location_rts":"[2422,924]","trial_type":"fractal-mutation","trial_index":75,"time_elapsed":1084098,"internal_node_id":"0.0-5.0-21.0"},{"group":"hexagon_tri","fractal_assignment":["../images/blu_wht.png","../images/org_blu.png","../images/ylw_slt.png","../images/gry_blk.png","../images/pnk_blu.png","../images/cyn_red.png"],"mutagen_generator_assignment":[0,1],"goal":3,"start":1,"action_noise":0,"location_history":"[1,3]","action_history":"[0]","mutagen_history":"[0]","location_rts":"[986]","trial_type":"fractal-mutation","trial_index":76,"time_elapsed":1090270,"internal_node_id":"0.0-5.0-22.0"},{"group":"hexagon_tri","fractal_assignment":["../images/blu_wht.png","../images/org_blu.png","../images/ylw_slt.png","../images/gry_blk.png","../images/pnk_blu.png","../images/cyn_red.png"],"mutagen_generator_assignment":[0,1],"goal":2,"start":3,"action_noise":0,"location_history":"[3,4,2]","action_history":"[1,1]","mutagen_history":"[1,1]","location_rts":"[1338,1186]","trial_type":"fractal-mutation","trial_index":77,"time_elapsed":1099132,"internal_node_id":"0.0-5.0-23.0"},{"group":"hexagon_tri","fractal_assignment":["../images/blu_wht.png","../images/org_blu.png","../images/ylw_slt.png","../images/gry_blk.png","../images/pnk_blu.png","../images/cyn_red.png"],"mutagen_generator_assignment":[0,1],"goal":0,"start":2,"action_noise":0,"location_history":"[2,1,5,0]","action_history":"[0,1,1]","mutagen_history":"[0,1,1]","location_rts":"[3628,1220,752]","trial_type":"fractal-mutation","trial_index":78,"time_elapsed":1112242,"internal_node_id":"0.0-5.0-24.0"},{"group":"hexagon_tri","fractal_assignment":["../images/blu_wht.png","../images/org_blu.png","../images/ylw_slt.png","../images/gry_blk.png","../images/pnk_blu.png","../images/cyn_red.png"],"mutagen_generator_assignment":[0,1],"goal":5,"start":0,"action_noise":0,"location_history":"[0,1,5]","action_history":"[1,1]","mutagen_history":"[1,1]","location_rts":"[3830,1164]","trial_type":"fractal-mutation","trial_index":79,"time_elapsed":1123586,"internal_node_id":"0.0-5.0-25.0"},{"group":"hexagon_tri","fractal_assignment":["../images/blu_wht.png","../images/org_blu.png","../images/ylw_slt.png","../images/gry_blk.png","../images/pnk_blu.png","../images/cyn_red.png"],"mutagen_generator_assignment":[0,1],"goal":2,"start":5,"action_noise":0,"location_history":"[5,4,2]","action_history":"[0,1]","mutagen_history":"[0,1]","location_rts":"[1408,564]","trial_type":"fractal-mutation","trial_index":80,"time_elapsed":1131916,"internal_node_id":"0.0-5.0-26.0"},{"group":"hexagon_tri","fractal_assignment":["../images/blu_wht.png","../images/org_blu.png","../images/ylw_slt.png","../images/gry_blk.png","../images/pnk_blu.png","../images/cyn_red.png"],"mutagen_generator_assignment":[0,1],"goal":3,"start":2,"action_noise":0,"location_history":"[2,1,5,4,0,1,3]","action_history":"[0,1,0,0,1,0]","mutagen_history":"[0,1,0,0,1,0]","location_rts":"[2888,862,1534,1538,1348,772]","trial_type":"fractal-mutation","trial_index":81,"time_elapsed":1151778,"internal_node_id":"0.0-5.0-27.0"},{"group":"hexagon_tri","fractal_assignment":["../images/blu_wht.png","../images/org_blu.png","../images/ylw_slt.png","../images/gry_blk.png","../images/pnk_blu.png","../images/cyn_red.png"],"mutagen_generator_assignment":[0,1],"goal":0,"start":3,"action_noise":0,"location_history":"[3,4,2,3,2,3,4,0]","action_history":"[1,1,1,0,1,1,0]","mutagen_history":"[1,1,1,0,1,1,0]","location_rts":"[3562,2182,1448,836,1530,430,674]","trial_type":"fractal-mutation","trial_index":82,"time_elapsed":1174500,"internal_node_id":"0.0-5.0-28.0"},{"group":"hexagon_tri","fractal_assignment":["../images/blu_wht.png","../images/org_blu.png","../images/ylw_slt.png","../images/gry_blk.png","../images/pnk_blu.png","../images/cyn_red.png"],"mutagen_generator_assignment":[0,1],"goal":1,"start":0,"action_noise":0,"location_history":"[0,1]","action_history":"[1]","mutagen_history":"[1]","location_rts":"[1468]","trial_type":"fractal-mutation","trial_index":83,"time_elapsed":1181140,"internal_node_id":"0.0-5.0-29.0"},{"group":"hexagon_tri","fractal_assignment":["../images/blu_wht.png","../images/org_blu.png","../images/ylw_slt.png","../images/gry_blk.png","../images/pnk_blu.png","../images/cyn_red.png"],"mutagen_generator_assignment":[0,1],"goal":4,"start":1,"action_noise":0,"location_history":"[1,5,0,1,3,2,3,2,1,3,4]","action_history":"[1,1,1,0,0,1,0,0,0,1]","mutagen_history":"[1,1,1,0,0,1,0,0,0,1]","location_rts":"[5052,1118,1768,752,2646,1084,948,886,1182,696]","trial_type":"fractal-mutation","trial_index":84,"time_elapsed":1212818,"internal_node_id":"0.0-5.0-30.0"},{"group":"hexagon_tri","fractal_assignment":["../images/blu_wht.png","../images/org_blu.png","../images/ylw_slt.png","../images/gry_blk.png","../images/pnk_blu.png","../images/cyn_red.png"],"mutagen_generator_assignment":[0,1],"goal":5,"start":4,"action_noise":0,"location_history":"[4,0,5]","action_history":"[0,0]","mutagen_history":"[0,0]","location_rts":"[1294,6172]","trial_type":"fractal-mutation","trial_index":85,"time_elapsed":1226646,"internal_node_id":"0.0-5.0-31.0"},{"group":"hexagon_tri","fractal_assignment":["../images/blu_wht.png","../images/org_blu.png","../images/ylw_slt.png","../images/gry_blk.png","../images/pnk_blu.png","../images/cyn_red.png"],"mutagen_generator_assignment":[0,1],"goal":0,"start":5,"action_noise":0,"location_history":"[5,0]","action_history":"[1]","mutagen_history":"[1]","location_rts":"[2796]","trial_type":"fractal-mutation","trial_index":86,"time_elapsed":1234648,"internal_node_id":"0.0-5.0-32.0"},{"group":"hexagon_tri","fractal_assignment":["../images/blu_wht.png","../images/org_blu.png","../images/ylw_slt.png","../images/gry_blk.png","../images/pnk_blu.png","../images/cyn_red.png"],"mutagen_generator_assignment":[0,1],"goal":3,"start":0,"action_noise":0,"location_history":"[0,5,4,2,1,3]","action_history":"[0,0,1,0,0]","mutagen_history":"[0,0,1,0,0]","location_rts":"[1584,1614,1422,478,1388]","trial_type":"fractal-mutation","trial_index":87,"time_elapsed":1250916,"internal_node_id":"0.0-5.0-33.0"},{"group":"hexagon_tri","fractal_assignment":["../images/blu_wht.png","../images/org_blu.png","../images/ylw_slt.png","../images/gry_blk.png","../images/pnk_blu.png","../images/cyn_red.png"],"mutagen_generator_assignment":[0,1],"goal":1,"start":3,"action_noise":0,"location_history":"[3,2,1]","action_history":"[0,0]","mutagen_history":"[0,0]","location_rts":"[3668,1858]","trial_type":"fractal-mutation","trial_index":88,"time_elapsed":1262790,"internal_node_id":"0.0-5.0-34.0"},{"group":"hexagon_tri","fractal_assignment":["../images/blu_wht.png","../images/org_blu.png","../images/ylw_slt.png","../images/gry_blk.png","../images/pnk_blu.png","../images/cyn_red.png"],"mutagen_generator_assignment":[0,1],"goal":2,"start":1,"action_noise":0,"location_history":"[1,5,0,1,5,4,2]","action_history":"[1,1,1,1,0,1]","mutagen_history":"[1,1,1,1,0,1]","location_rts":"[4574,892,1236,1186,462,1038]","trial_type":"fractal-mutation","trial_index":89,"time_elapsed":1283138,"internal_node_id":"0.0-5.0-35.0"},{"group":"hexagon_tri","fractal_assignment":["../images/blu_wht.png","../images/org_blu.png","../images/ylw_slt.png","../images/gry_blk.png","../images/pnk_blu.png","../images/cyn_red.png"],"mutagen_generator_assignment":[0,1],"goal":4,"start":2,"action_noise":0,"location_history":"[2,1,5,4]","action_history":"[0,1,0]","mutagen_history":"[0,1,0]","location_rts":"[1882,3588,1410]","trial_type":"fractal-mutation","trial_index":90,"time_elapsed":1297546,"internal_node_id":"0.0-5.0-36.0"},{"group":"hexagon_tri","fractal_assignment":["../images/blu_wht.png","../images/org_blu.png","../images/ylw_slt.png","../images/gry_blk.png","../images/pnk_blu.png","../images/cyn_red.png"],"mutagen_generator_assignment":[0,1],"goal":5,"start":4,"action_noise":0,"location_history":"[4,0,1,3,4,2,3,2,3,4,0,5]","action_history":"[0,1,0,1,1,1,0,1,1,0,0]","mutagen_history":"[0,1,0,1,1,1,0,1,1,0,0]","location_rts":"[3288,1096,1590,1110,1256,1386,740,918,1222,1904,1644]","trial_type":"fractal-mutation","trial_index":91,"time_elapsed":1330394,"internal_node_id":"0.0-5.0-37.0"},{"group":"hexagon_tri","fractal_assignment":["../images/blu_wht.png","../images/org_blu.png","../images/ylw_slt.png","../images/gry_blk.png","../images/pnk_blu.png","../images/cyn_red.png"],"mutagen_generator_assignment":[0,1],"goal":1,"start":5,"action_noise":0,"location_history":"[5,4,0,1]","action_history":"[0,0,1]","mutagen_history":"[0,0,1]","location_rts":"[2454,2576,1026]","trial_type":"fractal-mutation","trial_index":92,"time_elapsed":1343910,"internal_node_id":"0.0-5.0-38.0"},{"group":"hexagon_tri","fractal_assignment":["../images/blu_wht.png","../images/org_blu.png","../images/ylw_slt.png","../images/gry_blk.png","../images/pnk_blu.png","../images/cyn_red.png"],"mutagen_generator_assignment":[0,1],"goal":4,"start":1,"action_noise":0,"location_history":"[1,3,4]","action_history":"[0,1]","mutagen_history":"[0,1]","location_rts":"[2706,514]","trial_type":"fractal-mutation","trial_index":93,"time_elapsed":1353474,"internal_node_id":"0.0-5.0-39.0"},{"group":"hexagon_tri","fractal_assignment":["../images/blu_wht.png","../images/org_blu.png","../images/ylw_slt.png","../images/gry_blk.png","../images/pnk_blu.png","../images/cyn_red.png"],"mutagen_generator_assignment":[0,1],"goal":3,"start":4,"action_noise":0,"location_history":"[4,2,1,3]","action_history":"[1,0,0]","mutagen_history":"[1,0,0]","location_rts":"[1004,1266,1334]","trial_type":"fractal-mutation","trial_index":94,"time_elapsed":1364572,"internal_node_id":"0.0-5.0-40.0"},{"group":"hexagon_tri","fractal_assignment":["../images/blu_wht.png","../images/org_blu.png","../images/ylw_slt.png","../images/gry_blk.png","../images/pnk_blu.png","../images/cyn_red.png"],"mutagen_generator_assignment":[0,1],"goal":2,"start":3,"action_noise":0,"location_history":"[3,2]","action_history":"[0]","mutagen_history":"[0]","location_rts":"[1500]","trial_type":"fractal-mutation","trial_index":95,"time_elapsed":1371242,"internal_node_id":"0.0-5.0-41.0"},{"group":"hexagon_tri","fractal_assignment":["../images/blu_wht.png","../images/org_blu.png","../images/ylw_slt.png","../images/gry_blk.png","../images/pnk_blu.png","../images/cyn_red.png"],"mutagen_generator_assignment":[0,1],"goal":0,"start":2,"action_noise":0,"location_history":"[2,3,2,1,5,0]","action_history":"[1,0,0,1,1]","mutagen_history":"[1,0,0,1,1]","location_rts":"[1358,758,1210,1046,718]","trial_type":"fractal-mutation","trial_index":96,"time_elapsed":1386120,"internal_node_id":"0.0-5.0-42.0"},{"group":"hexagon_tri","fractal_assignment":["../images/blu_wht.png","../images/org_blu.png","../images/ylw_slt.png","../images/gry_blk.png","../images/pnk_blu.png","../images/cyn_red.png"],"mutagen_generator_assignment":[0,1],"goal":5,"start":0,"action_noise":0,"location_history":"[0,1,3,2,3,4,2,1,3,2,1,5]","action_history":"[1,0,0,1,1,1,0,0,0,0,1]","mutagen_history":"[1,0,0,1,1,1,0,0,0,0,1]","location_rts":"[3370,1464,684,710,940,1516,916,1108,464,1012,308]","trial_type":"fractal-mutation","trial_index":97,"time_elapsed":1415248,"internal_node_id":"0.0-5.0-43.0"},{"group":"hexagon_tri","fractal_assignment":["../images/blu_wht.png","../images/org_blu.png","../images/ylw_slt.png","../images/gry_blk.png","../images/pnk_blu.png","../images/cyn_red.png"],"mutagen_generator_assignment":[0,1],"goal":0,"start":5,"action_noise":0,"location_history":"[5,0]","action_history":"[1]","mutagen_history":"[1]","location_rts":"[2518]","trial_type":"fractal-mutation","trial_index":98,"time_elapsed":1422968,"internal_node_id":"0.0-5.0-44.0"},{"group":"hexagon_tri","fractal_assignment":["../images/blu_wht.png","../images/org_blu.png","../images/ylw_slt.png","../images/gry_blk.png","../images/pnk_blu.png","../images/cyn_red.png"],"mutagen_generator_assignment":[0,1],"goal":2,"start":0,"action_noise":0,"location_history":"[0,1,3,4,2]","action_history":"[1,0,1,1]","mutagen_history":"[1,0,1,1]","location_rts":"[1938,1192,1176,1220]","trial_type":"fractal-mutation","trial_index":99,"time_elapsed":1437142,"internal_node_id":"0.0-5.0-45.0"},{"group":"hexagon_tri","fractal_assignment":["../images/blu_wht.png","../images/org_blu.png","../images/ylw_slt.png","../images/gry_blk.png","../images/pnk_blu.png","../images/cyn_red.png"],"mutagen_generator_assignment":[0,1],"goal":4,"start":2,"action_noise":0,"location_history":"[2,1,5,0,5,0,1,5,0,5,4]","action_history":"[0,1,1,0,1,1,1,1,0,0]","mutagen_history":"[0,1,1,0,1,1,1,1,0,0]","location_rts":"[2714,2968,820,918,782,478,626,1062,620,990]","trial_type":"fractal-mutation","trial_index":100,"time_elapsed":1464630,"internal_node_id":"0.0-5.0-46.0"},{"group":"hexagon_tri","fractal_assignment":["../images/blu_wht.png","../images/org_blu.png","../images/ylw_slt.png","../images/gry_blk.png","../images/pnk_blu.png","../images/cyn_red.png"],"mutagen_generator_assignment":[0,1],"goal":1,"start":4,"action_noise":0,"location_history":"[4,0,1]","action_history":"[0,1]","mutagen_history":"[0,1]","location_rts":"[1634,342]","trial_type":"fractal-mutation","trial_index":101,"time_elapsed":1472926,"internal_node_id":"0.0-5.0-47.0"},{"group":"hexagon_tri","fractal_assignment":["../images/blu_wht.png","../images/org_blu.png","../images/ylw_slt.png","../images/gry_blk.png","../images/pnk_blu.png","../images/cyn_red.png"],"mutagen_generator_assignment":[0,1],"goal":5,"start":1,"action_noise":0,"location_history":"[1,3,2,3,2,1,5]","action_history":"[0,0,1,0,0,1]","mutagen_history":"[0,0,1,0,0,1]","location_rts":"[1206,2156,1510,1098,414,2748]","trial_type":"fractal-mutation","trial_index":102,"time_elapsed":1492962,"internal_node_id":"0.0-5.0-48.0"},{"group":"hexagon_tri","fractal_assignment":["../images/blu_wht.png","../images/org_blu.png","../images/ylw_slt.png","../images/gry_blk.png","../images/pnk_blu.png","../images/cyn_red.png"],"mutagen_generator_assignment":[0,1],"goal":3,"start":5,"action_noise":0,"location_history":"[5,4,0,1,3]","action_history":"[0,0,1,0]","mutagen_history":"[0,0,1,0]","location_rts":"[3124,2410,836,930]","trial_type":"fractal-mutation","trial_index":103,"time_elapsed":1508886,"internal_node_id":"0.0-5.0-49.0"},{"view_history":"[{\"page_index\":0,\"viewing_time\":7910}]","rt":7910,"trial_type":"instructions","trial_index":104,"time_elapsed":1517810,"internal_node_id":"0.0-6.0"},{"rt":3658,"responses":"{\"Q0\":\"none\"}","trial_type":"survey-text","trial_index":105,"time_elapsed":1522488,"internal_node_id":"0.0-7.0"}]