[{"view_history":"[{\"page_index\":0,\"viewing_time\":20788},{\"page_index\":1,\"viewing_time\":60562}]","rt":81350,"trial_type":"instructions","trial_index":0,"time_elapsed":81352,"internal_node_id":"0.0-0.0"},{"view_history":"[{\"page_index\":0,\"viewing_time\":127182},{\"page_index\":1,\"viewing_time\":26684}]","rt":153867,"trial_type":"instructions","trial_index":1,"time_elapsed":236221,"internal_node_id":"0.0-1.0"},{"group":"hexagon_tri","room_assignment":["green","yellow","red","purple","grey","blue"],"door_color_assignment":["white","black"],"door_generator_assignment":[0,1],"goal":3,"start":5,"action_noise":0,"location_history":"[5,0,5,0,1,5,0,5,4,2,3]","action_history":"[1,0,1,1,1,1,0,0,1,1]","door_history":"[1,0,1,1,1,1,0,0,1,1]","location_rts":"[27620,7024,7366,3610,3776,4280,1099,1099,1777,1907]","trial_type":"two-door-navigation","trial_index":2,"time_elapsed":310199,"internal_node_id":"0.0-2.0-0.0"},{"group":"hexagon_tri","room_assignment":["green","yellow","red","purple","grey","blue"],"door_color_assignment":["white","black"],"door_generator_assignment":[0,1],"goal":1,"start":3,"action_noise":0,"location_history":"[3,2,1]","action_history":"[0,0]","door_history":"[0,0]","location_rts":"[14188,5422]","trial_type":"two-door-navigation","trial_index":3,"time_elapsed":335867,"internal_node_id":"0.0-2.0-1.0"},{"group":"hexagon_tri","room_assignment":["green","yellow","red","purple","grey","blue"],"door_color_assignment":["white","black"],"door_generator_assignment":[0,1],"goal":0,"start":1,"action_noise":0,"location_history":"[1,5,4,2,1,3,4,0]","action_history":"[1,0,1,0,0,1,0]","door_history":"[1,0,1,0,0,1,0]","location_rts":"[21288,7168,6231,8593,7816,15839,8243]","trial_type":"two-door-navigation","trial_index":4,"time_elapsed":422312,"internal_node_id":"0.0-2.0-2.0"},{"group":"hexagon_tri","room_assignment":["green","yellow","red","purple","grey","blue"],"door_color_assignment":["white","black"],"door_generator_assignment":[0,1],"goal":3,"start":0,"action_noise":0,"location_history":"[0,5,0,1,3]","action_history":"[0,1,1,0]","door_history":"[0,1,1,0]","location_rts":"[9309,9239,2007,1359]","trial_type":"two-door-navigation","trial_index":5,"time_elapsed":452385,"internal_node_id":"0.0-2.0-3.0"},{"group":"hexagon_tri","room_assignment":["green","yellow","red","purple","grey","blue"],"door_color_assignment":["white","black"],"door_generator_assignment":[0,1],"goal":4,"start":3,"action_noise":0,"location_history":"[3,4]","action_history":"[1]","door_history":"[1]","location_rts":"[8516]","trial_type":"two-door-navigation","trial_index":6,"time_elapsed":465927,"internal_node_id":"0.0-2.0-4.0"},{"group":"hexagon_tri","room_assignment":["green","yellow","red","purple","grey","blue"],"door_color_assignment":["white","black"],"door_generator_assignment":[0,1],"goal":2,"start":4,"action_noise":0,"location_history":"[4,2]","action_history":"[1]","door_history":"[1]","location_rts":"[15290]","trial_type":"two-door-navigation","trial_index":7,"time_elapsed":486242,"internal_node_id":"0.0-2.0-5.0"},{"group":"hexagon_tri","room_assignment":["green","yellow","red","purple","grey","blue"],"door_color_assignment":["white","black"],"door_generator_assignment":[0,1],"goal":1,"start":2,"action_noise":0,"location_history":"[2,1]","action_history":"[0]","door_history":"[0]","location_rts":"[6515]","trial_type":"two-door-navigation","trial_index":8,"time_elapsed":497785,"internal_node_id":"0.0-2.0-6.0"},{"group":"hexagon_tri","room_assignment":["green","yellow","red","purple","grey","blue"],"door_color_assignment":["white","black"],"door_generator_assignment":[0,1],"goal":5,"start":1,"action_noise":0,"location_history":"[1,5]","action_history":"[1]","door_history":"[1]","location_rts":"[11425]","trial_type":"two-door-navigation","trial_index":9,"time_elapsed":514236,"internal_node_id":"0.0-2.0-7.0"},{"group":"hexagon_tri","room_assignment":["green","yellow","red","purple","grey","blue"],"door_color_assignment":["white","black"],"door_generator_assignment":[0,1],"goal":4,"start":5,"action_noise":0,"location_history":"[5,4]","action_history":"[0]","door_history":"[0]","location_rts":"[7243]","trial_type":"two-door-navigation","trial_index":10,"time_elapsed":526508,"internal_node_id":"0.0-2.0-8.0"},{"group":"hexagon_tri","room_assignment":["green","yellow","red","purple","grey","blue"],"door_color_assignment":["white","black"],"door_generator_assignment":[0,1],"goal":2,"start":4,"action_noise":0,"location_history":"[4,2]","action_history":"[1]","door_history":"[1]","location_rts":"[7308]","trial_type":"two-door-navigation","trial_index":11,"time_elapsed":538844,"internal_node_id":"0.0-2.0-9.0"},{"group":"hexagon_tri","room_assignment":["green","yellow","red","purple","grey","blue"],"door_color_assignment":["white","black"],"door_generator_assignment":[0,1],"goal":0,"start":2,"action_noise":0,"location_history":"[2,3,4,0]","action_history":"[1,1,0]","door_history":"[1,1,0]","location_rts":"[6528,17394,2812]","trial_type":"two-door-navigation","trial_index":12,"time_elapsed":572646,"internal_node_id":"0.0-2.0-10.0"},{"group":"hexagon_tri","room_assignment":["green","yellow","red","purple","grey","blue"],"door_color_assignment":["white","black"],"door_generator_assignment":[0,1],"goal":1,"start":0,"action_noise":0,"location_history":"[0,1]","action_history":"[1]","door_history":"[1]","location_rts":"[14506]","trial_type":"two-door-navigation","trial_index":13,"time_elapsed":592190,"internal_node_id":"0.0-2.0-11.0"},{"group":"hexagon_tri","room_assignment":["green","yellow","red","purple","grey","blue"],"door_color_assignment":["white","black"],"door_generator_assignment":[0,1],"goal":3,"start":1,"action_noise":0,"location_history":"[1,3]","action_history":"[0]","door_history":"[0]","location_rts":"[5995]","trial_type":"two-door-navigation","trial_index":14,"time_elapsed":603212,"internal_node_id":"0.0-2.0-12.0"},{"group":"hexagon_tri","room_assignment":["green","yellow","red","purple","grey","blue"],"door_color_assignment":["white","black"],"door_generator_assignment":[0,1],"goal":5,"start":3,"action_noise":0,"location_history":"[3,2,3,2,1,5]","action_history":"[0,1,0,0,1]","door_history":"[0,1,0,0,1]","location_rts":"[9330,12187,8774,2593,1271]","trial_type":"two-door-navigation","trial_index":15,"time_elapsed":646501,"internal_node_id":"0.0-2.0-13.0"},{"group":"hexagon_tri","room_assignment":["green","yellow","red","purple","grey","blue"],"door_color_assignment":["white","black"],"door_generator_assignment":[0,1],"goal":4,"start":5,"action_noise":0,"location_history":"[5,4]","action_history":"[0]","door_history":"[0]","location_rts":"[4896]","trial_type":"two-door-navigation","trial_index":16,"time_elapsed":656424,"internal_node_id":"0.0-2.0-14.0"},{"group":"hexagon_tri","room_assignment":["green","yellow","red","purple","grey","blue"],"door_color_assignment":["white","black"],"door_generator_assignment":[0,1],"goal":0,"start":4,"action_noise":0,"location_history":"[4,0]","action_history":"[0]","door_history":"[0]","location_rts":"[3927]","trial_type":"two-door-navigation","trial_index":17,"time_elapsed":665376,"internal_node_id":"0.0-2.0-15.0"},{"group":"hexagon_tri","room_assignment":["green","yellow","red","purple","grey","blue"],"door_color_assignment":["white","black"],"door_generator_assignment":[0,1],"goal":3,"start":0,"action_noise":0,"location_history":"[0,1,3]","action_history":"[1,0]","door_history":"[1,0]","location_rts":"[19079,6374]","trial_type":"two-door-navigation","trial_index":18,"time_elapsed":696882,"internal_node_id":"0.0-2.0-16.0"},{"group":"hexagon_tri","room_assignment":["green","yellow","red","purple","grey","blue"],"door_color_assignment":["white","black"],"door_generator_assignment":[0,1],"goal":1,"start":3,"action_noise":0,"location_history":"[3,4,2,1]","action_history":"[1,1,0]","door_history":"[1,1,0]","location_rts":"[14766,5814,4285]","trial_type":"two-door-navigation","trial_index":19,"time_elapsed":728811,"internal_node_id":"0.0-2.0-17.0"},{"group":"hexagon_tri","room_assignment":["green","yellow","red","purple","grey","blue"],"door_color_assignment":["white","black"],"door_generator_assignment":[0,1],"goal":5,"start":1,"action_noise":0,"location_history":"[1,5]","action_history":"[1]","door_history":"[1]","location_rts":"[8657]","trial_type":"two-door-navigation","trial_index":20,"time_elapsed":742495,"internal_node_id":"0.0-2.0-18.0"},{"group":"hexagon_tri","room_assignment":["green","yellow","red","purple","grey","blue"],"door_color_assignment":["white","black"],"door_generator_assignment":[0,1],"goal":2,"start":5,"action_noise":0,"location_history":"[5,4,2]","action_history":"[0,1]","door_history":"[0,1]","location_rts":"[7799,1033]","trial_type":"two-door-navigation","trial_index":21,"time_elapsed":757376,"internal_node_id":"0.0-2.0-19.0"},{"group":"hexagon_tri","room_assignment":["green","yellow","red","purple","grey","blue"],"door_color_assignment":["white","black"],"door_generator_assignment":[0,1],"goal":4,"start":2,"action_noise":0,"location_history":"[2,1,5,4]","action_history":"[0,1,0]","door_history":"[0,1,0]","location_rts":"[10162,5309,6304]","trial_type":"two-door-navigation","trial_index":22,"time_elapsed":786295,"internal_node_id":"0.0-2.0-20.0"},{"group":"hexagon_tri","room_assignment":["green","yellow","red","purple","grey","blue"],"door_color_assignment":["white","black"],"door_generator_assignment":[0,1],"goal":1,"start":4,"action_noise":0,"location_history":"[4,2,1]","action_history":"[1,0]","door_history":"[1,0]","location_rts":"[5990,2261]","trial_type":"two-door-navigation","trial_index":23,"time_elapsed":800592,"internal_node_id":"0.0-2.0-21.0"},{"group":"hexagon_tri","room_assignment":["green","yellow","red","purple","grey","blue"],"door_color_assignment":["white","black"],"door_generator_assignment":[0,1],"goal":3,"start":1,"action_noise":0,"location_history":"[1,3]","action_history":"[0]","door_history":"[0]","location_rts":"[6307]","trial_type":"two-door-navigation","trial_index":24,"time_elapsed":811926,"internal_node_id":"0.0-2.0-22.0"},{"group":"hexagon_tri","room_assignment":["green","yellow","red","purple","grey","blue"],"door_color_assignment":["white","black"],"door_generator_assignment":[0,1],"goal":2,"start":3,"action_noise":0,"location_history":"[3,2]","action_history":"[0]","door_history":"[0]","location_rts":"[7491]","trial_type":"two-door-navigation","trial_index":25,"time_elapsed":824443,"internal_node_id":"0.0-2.0-23.0"},{"group":"hexagon_tri","room_assignment":["green","yellow","red","purple","grey","blue"],"door_color_assignment":["white","black"],"door_generator_assignment":[0,1],"goal":0,"start":2,"action_noise":0,"location_history":"[2,3,4,0]","action_history":"[1,1,0]","door_history":"[1,1,0]","location_rts":"[12057,8287,2528]","trial_type":"two-door-navigation","trial_index":26,"time_elapsed":854422,"internal_node_id":"0.0-2.0-24.0"},{"group":"hexagon_tri","room_assignment":["green","yellow","red","purple","grey","blue"],"door_color_assignment":["white","black"],"door_generator_assignment":[0,1],"goal":5,"start":0,"action_noise":0,"location_history":"[0,5]","action_history":"[0]","door_history":"[0]","location_rts":"[9517]","trial_type":"two-door-navigation","trial_index":27,"time_elapsed":868987,"internal_node_id":"0.0-2.0-25.0"},{"group":"hexagon_tri","room_assignment":["green","yellow","red","purple","grey","blue"],"door_color_assignment":["white","black"],"door_generator_assignment":[0,1],"goal":2,"start":5,"action_noise":0,"location_history":"[5,4,2]","action_history":"[0,1]","door_history":"[0,1]","location_rts":"[6665,1205]","trial_type":"two-door-navigation","trial_index":28,"time_elapsed":882991,"internal_node_id":"0.0-2.0-26.0"},{"group":"hexagon_tri","room_assignment":["green","yellow","red","purple","grey","blue"],"door_color_assignment":["white","black"],"door_generator_assignment":[0,1],"goal":3,"start":2,"action_noise":0,"location_history":"[2,3]","action_history":"[1]","door_history":"[1]","location_rts":"[11154]","trial_type":"two-door-navigation","trial_index":29,"time_elapsed":899216,"internal_node_id":"0.0-2.0-27.0"},{"group":"hexagon_tri","room_assignment":["green","yellow","red","purple","grey","blue"],"door_color_assignment":["white","black"],"door_generator_assignment":[0,1],"goal":0,"start":3,"action_noise":0,"location_history":"[3,4,0]","action_history":"[1,0]","door_history":"[1,0]","location_rts":"[20725,4485]","trial_type":"two-door-navigation","trial_index":30,"time_elapsed":930539,"internal_node_id":"0.0-2.0-28.0"},{"group":"hexagon_tri","room_assignment":["green","yellow","red","purple","grey","blue"],"door_color_assignment":["white","black"],"door_generator_assignment":[0,1],"goal":1,"start":0,"action_noise":0,"location_history":"[0,1]","action_history":"[1]","door_history":"[1]","location_rts":"[13726]","trial_type":"two-door-navigation","trial_index":31,"time_elapsed":949291,"internal_node_id":"0.0-2.0-29.0"},{"group":"hexagon_tri","room_assignment":["green","yellow","red","purple","grey","blue"],"door_color_assignment":["white","black"],"door_generator_assignment":[0,1],"goal":4,"start":1,"action_noise":0,"location_history":"[1,3,4]","action_history":"[0,1]","door_history":"[0,1]","location_rts":"[10407,4796]","trial_type":"two-door-navigation","trial_index":32,"time_elapsed":970570,"internal_node_id":"0.0-2.0-30.0"},{"group":"hexagon_tri","room_assignment":["green","yellow","red","purple","grey","blue"],"door_color_assignment":["white","black"],"door_generator_assignment":[0,1],"goal":5,"start":4,"action_noise":0,"location_history":"[4,0,5]","action_history":"[0,0]","door_history":"[0,0]","location_rts":"[10263,3078]","trial_type":"two-door-navigation","trial_index":33,"time_elapsed":989959,"internal_node_id":"0.0-2.0-31.0"},{"group":"hexagon_tri","room_assignment":["green","yellow","red","purple","grey","blue"],"door_color_assignment":["white","black"],"door_generator_assignment":[0,1],"goal":0,"start":5,"action_noise":0,"location_history":"[5,0]","action_history":"[1]","door_history":"[1]","location_rts":"[13954]","trial_type":"two-door-navigation","trial_index":34,"time_elapsed":1008990,"internal_node_id":"0.0-2.0-32.0"},{"group":"hexagon_tri","room_assignment":["green","yellow","red","purple","grey","blue"],"door_color_assignment":["white","black"],"door_generator_assignment":[0,1],"goal":3,"start":0,"action_noise":0,"location_history":"[0,1,3]","action_history":"[1,0]","door_history":"[1,0]","location_rts":"[16659,4469]","trial_type":"two-door-navigation","trial_index":35,"time_elapsed":1036200,"internal_node_id":"0.0-2.0-33.0"},{"group":"hexagon_tri","room_assignment":["green","yellow","red","purple","grey","blue"],"door_color_assignment":["white","black"],"door_generator_assignment":[0,1],"goal":1,"start":3,"action_noise":0,"location_history":"[3,2,1]","action_history":"[0,0]","door_history":"[0,0]","location_rts":"[8000,4250]","trial_type":"two-door-navigation","trial_index":36,"time_elapsed":1054512,"internal_node_id":"0.0-2.0-34.0"},{"group":"hexagon_tri","room_assignment":["green","yellow","red","purple","grey","blue"],"door_color_assignment":["white","black"],"door_generator_assignment":[0,1],"goal":2,"start":1,"action_noise":0,"location_history":"[1,5,4,2]","action_history":"[1,0,1]","door_history":"[1,0,1]","location_rts":"[10311,3148,2821]","trial_type":"two-door-navigation","trial_index":37,"time_elapsed":1077865,"internal_node_id":"0.0-2.0-35.0"},{"group":"hexagon_tri","room_assignment":["green","yellow","red","purple","grey","blue"],"door_color_assignment":["white","black"],"door_generator_assignment":[0,1],"goal":4,"start":2,"action_noise":0,"location_history":"[2,3,4]","action_history":"[1,1]","door_history":"[1,1]","location_rts":"[7125,5158]","trial_type":"two-door-navigation","trial_index":38,"time_elapsed":1096193,"internal_node_id":"0.0-2.0-36.0"},{"group":"hexagon_tri","room_assignment":["green","yellow","red","purple","grey","blue"],"door_color_assignment":["white","black"],"door_generator_assignment":[0,1],"goal":5,"start":4,"action_noise":0,"location_history":"[4,2,3,2,3,4,2,1,3,4,0,5]","action_history":"[1,1,0,1,1,1,0,0,1,0,0]","door_history":"[1,1,0,1,1,1,0,0,1,0,0]","location_rts":"[5777,4965,4396,5220,6034,1210,1207,3083,6589,1768,542]","trial_type":"two-door-navigation","trial_index":39,"time_elapsed":1152410,"internal_node_id":"0.0-2.0-37.0"},{"group":"hexagon_tri","room_assignment":["green","yellow","red","purple","grey","blue"],"door_color_assignment":["white","black"],"door_generator_assignment":[0,1],"goal":1,"start":5,"action_noise":0,"location_history":"[5,0,1]","action_history":"[1,1]","door_history":"[1,1]","location_rts":"[12229,4985]","trial_type":"two-door-navigation","trial_index":40,"time_elapsed":1175721,"internal_node_id":"0.0-2.0-38.0"},{"group":"hexagon_tri","room_assignment":["green","yellow","red","purple","grey","blue"],"door_color_assignment":["white","black"],"door_generator_assignment":[0,1],"goal":4,"start":1,"action_noise":0,"location_history":"[1,3,4]","action_history":"[0,1]","door_history":"[0,1]","location_rts":"[7029,1052]","trial_type":"two-door-navigation","trial_index":41,"time_elapsed":1189956,"internal_node_id":"0.0-2.0-39.0"},{"group":"hexagon_tri","room_assignment":["green","yellow","red","purple","grey","blue"],"door_color_assignment":["white","black"],"door_generator_assignment":[0,1],"goal":3,"start":4,"action_noise":0,"location_history":"[4,2,3]","action_history":"[1,1]","door_history":"[1,1]","location_rts":"[8640,5185]","trial_type":"two-door-navigation","trial_index":42,"time_elapsed":1209878,"internal_node_id":"0.0-2.0-40.0"},{"group":"hexagon_tri","room_assignment":["green","yellow","red","purple","grey","blue"],"door_color_assignment":["white","black"],"door_generator_assignment":[0,1],"goal":2,"start":3,"action_noise":0,"location_history":"[3,2]","action_history":"[0]","door_history":"[0]","location_rts":"[7185]","trial_type":"two-door-navigation","trial_index":43,"time_elapsed":1222115,"internal_node_id":"0.0-2.0-41.0"},{"group":"hexagon_tri","room_assignment":["green","yellow","red","purple","grey","blue"],"door_color_assignment":["white","black"],"door_generator_assignment":[0,1],"goal":0,"start":2,"action_noise":0,"location_history":"[2,3,2,3,4,0]","action_history":"[1,0,1,1,0]","door_history":"[1,0,1,1,0]","location_rts":"[6895,4913,4351,4982,5153]","trial_type":"two-door-navigation","trial_index":44,"time_elapsed":1257609,"internal_node_id":"0.0-2.0-42.0"},{"group":"hexagon_tri","room_assignment":["green","yellow","red","purple","grey","blue"],"door_color_assignment":["white","black"],"door_generator_assignment":[0,1],"goal":5,"start":0,"action_noise":0,"location_history":"[0,5]","action_history":"[0]","door_history":"[0]","location_rts":"[4671]","trial_type":"two-door-navigation","trial_index":45,"time_elapsed":1267307,"internal_node_id":"0.0-2.0-43.0"},{"group":"hexagon_tri","room_assignment":["green","yellow","red","purple","grey","blue"],"door_color_assignment":["white","black"],"door_generator_assignment":[0,1],"goal":0,"start":5,"action_noise":0,"location_history":"[5,0]","action_history":"[1]","door_history":"[1]","location_rts":"[4461]","trial_type":"two-door-navigation","trial_index":46,"time_elapsed":1276794,"internal_node_id":"0.0-2.0-44.0"},{"group":"hexagon_tri","room_assignment":["green","yellow","red","purple","grey","blue"],"door_color_assignment":["white","black"],"door_generator_assignment":[0,1],"goal":2,"start":0,"action_noise":0,"location_history":"[0,1,5,4,2]","action_history":"[1,1,0,1]","door_history":"[1,1,0,1]","location_rts":"[8159,6906,9682,2346]","trial_type":"two-door-navigation","trial_index":47,"time_elapsed":1312112,"internal_node_id":"0.0-2.0-45.0"},{"group":"hexagon_tri","room_assignment":["green","yellow","red","purple","grey","blue"],"door_color_assignment":["white","black"],"door_generator_assignment":[0,1],"goal":4,"start":2,"action_noise":0,"location_history":"[2,3,4]","action_history":"[1,1]","door_history":"[1,1]","location_rts":"[6945,4581]","trial_type":"two-door-navigation","trial_index":48,"time_elapsed":1329771,"internal_node_id":"0.0-2.0-46.0"},{"group":"hexagon_tri","room_assignment":["green","yellow","red","purple","grey","blue"],"door_color_assignment":["white","black"],"door_generator_assignment":[0,1],"goal":1,"start":4,"action_noise":0,"location_history":"[4,2,1]","action_history":"[1,0]","door_history":"[1,0]","location_rts":"[6737,1252]","trial_type":"two-door-navigation","trial_index":49,"time_elapsed":1343851,"internal_node_id":"0.0-2.0-47.0"},{"group":"hexagon_tri","room_assignment":["green","yellow","red","purple","grey","blue"],"door_color_assignment":["white","black"],"door_generator_assignment":[0,1],"goal":5,"start":1,"action_noise":0,"location_history":"[1,3,2,3,2,1,5]","action_history":"[0,0,1,0,0,1]","door_history":"[0,0,1,0,0,1]","location_rts":"[3882,14341,4294,6787,2041,2398]","trial_type":"two-door-navigation","trial_index":50,"time_elapsed":1387730,"internal_node_id":"0.0-2.0-48.0"},{"group":"hexagon_tri","room_assignment":["green","yellow","red","purple","grey","blue"],"door_color_assignment":["white","black"],"door_generator_assignment":[0,1],"goal":3,"start":5,"action_noise":0,"location_history":"[5,4,0,5,0,1,5,0,5,4,0,5,4,0,1,3]","action_history":"[0,0,0,1,1,1,1,0,0,0,0,0,0,1,0]","door_history":"[0,0,0,1,1,1,1,0,0,0,0,0,0,1,0]","location_rts":"[11911,3079,3588,7533,2022,4002,3706,2229,879,586,1164,995,4533,1064,2714]","trial_type":"two-door-navigation","trial_index":51,"time_elapsed":1457399,"internal_node_id":"0.0-2.0-49.0"},{"view_history":"[{\"page_index\":0,\"viewing_time\":3946}]","rt":3947,"trial_type":"instructions","trial_index":52,"time_elapsed":1462347,"internal_node_id":"0.0-3.0"},{"view_history":"[{\"page_index\":0,\"viewing_time\":19550},{\"page_index\":1,\"viewing_time\":19164}]","rt":38715,"trial_type":"instructions","trial_index":53,"time_elapsed":1502063,"internal_node_id":"0.0-4.0"},{"group":"hexagon_bi","fractal_assignment":["../images/org_blu.png","../images/ylw_slt.png","../images/blu_wht.png","../images/gry_blk.png","../images/cyn_red.png","../images/pnk_blu.png"],"mutagen_generator_assignment":[0,1],"goal":3,"start":5,"action_noise":0,"location_history":"[5,0,5,4,5,4,3]","action_history":"[0,0,1,1,1,0]","mutagen_history":"[0,0,1,1,1,0]","location_rts":"[39984,12542,10794,7956,2865,5374]","trial_type":"fractal-mutation","trial_index":54,"time_elapsed":1591848,"internal_node_id":"0.0-5.0-0.0"},{"group":"hexagon_bi","fractal_assignment":["../images/org_blu.png","../images/ylw_slt.png","../images/blu_wht.png","../images/gry_blk.png","../images/cyn_red.png","../images/pnk_blu.png"],"mutagen_generator_assignment":[0,1],"goal":1,"start":3,"action_noise":0,"location_history":"[3,2,1]","action_history":"[1,0]","mutagen_history":"[1,0]","location_rts":"[27390,13232]","trial_type":"fractal-mutation","trial_index":55,"time_elapsed":1638577,"internal_node_id":"0.0-5.0-1.0"},{"group":"hexagon_bi","fractal_assignment":["../images/org_blu.png","../images/ylw_slt.png","../images/blu_wht.png","../images/gry_blk.png","../images/cyn_red.png","../images/pnk_blu.png"],"mutagen_generator_assignment":[0,1],"goal":0,"start":1,"action_noise":0,"location_history":"[1,0]","action_history":"[1]","mutagen_history":"[1]","location_rts":"[9986]","trial_type":"fractal-mutation","trial_index":56,"time_elapsed":1653616,"internal_node_id":"0.0-5.0-2.0"},{"group":"hexagon_bi","fractal_assignment":["../images/org_blu.png","../images/ylw_slt.png","../images/blu_wht.png","../images/gry_blk.png","../images/cyn_red.png","../images/pnk_blu.png"],"mutagen_generator_assignment":[0,1],"goal":3,"start":0,"action_noise":0,"location_history":"[0,1,2,3]","action_history":"[1,0,1]","mutagen_history":"[1,0,1]","location_rts":"[11262,8376,3863]","trial_type":"fractal-mutation","trial_index":57,"time_elapsed":1684263,"internal_node_id":"0.0-5.0-3.0"},{"group":"hexagon_bi","fractal_assignment":["../images/org_blu.png","../images/ylw_slt.png","../images/blu_wht.png","../images/gry_blk.png","../images/cyn_red.png","../images/pnk_blu.png"],"mutagen_generator_assignment":[0,1],"goal":4,"start":3,"action_noise":0,"location_history":"[3,2,3,2,1,2,3,4]","action_history":"[1,1,1,0,0,1,0]","mutagen_history":"[1,1,1,0,0,1,0]","location_rts":"[20261,1056,897,1319,1342,1410,1254]","trial_type":"fractal-mutation","trial_index":58,"time_elapsed":1723205,"internal_node_id":"0.0-5.0-4.0"},{"group":"hexagon_bi","fractal_assignment":["../images/org_blu.png","../images/ylw_slt.png","../images/blu_wht.png","../images/gry_blk.png","../images/cyn_red.png","../images/pnk_blu.png"],"mutagen_generator_assignment":[0,1],"goal":2,"start":4,"action_noise":0,"location_history":"[4,3,2]","action_history":"[0,1]","mutagen_history":"[0,1]","location_rts":"[25920,8450]","trial_type":"fractal-mutation","trial_index":59,"time_elapsed":1763684,"internal_node_id":"0.0-5.0-5.0"},{"group":"hexagon_bi","fractal_assignment":["../images/org_blu.png","../images/ylw_slt.png","../images/blu_wht.png","../images/gry_blk.png","../images/cyn_red.png","../images/pnk_blu.png"],"mutagen_generator_assignment":[0,1],"goal":1,"start":2,"action_noise":0,"location_history":"[2,1]","action_history":"[0]","mutagen_history":"[0]","location_rts":"[11481]","trial_type":"fractal-mutation","trial_index":60,"time_elapsed":1780258,"internal_node_id":"0.0-5.0-6.0"},{"group":"hexagon_bi","fractal_assignment":["../images/org_blu.png","../images/ylw_slt.png","../images/blu_wht.png","../images/gry_blk.png","../images/cyn_red.png","../images/pnk_blu.png"],"mutagen_generator_assignment":[0,1],"goal":5,"start":1,"action_noise":0,"location_history":"[1,0,1,2,3,4,5]","action_history":"[1,1,0,1,0,1]","mutagen_history":"[1,1,0,1,0,1]","location_rts":"[14803,15404,10882,2015,4072,3828]","trial_type":"fractal-mutation","trial_index":61,"time_elapsed":1841537,"internal_node_id":"0.0-5.0-7.0"},{"group":"hexagon_bi","fractal_assignment":["../images/org_blu.png","../images/ylw_slt.png","../images/blu_wht.png","../images/gry_blk.png","../images/cyn_red.png","../images/pnk_blu.png"],"mutagen_generator_assignment":[0,1],"goal":4,"start":5,"action_noise":0,"location_history":"[5,4]","action_history":"[1]","mutagen_history":"[1]","location_rts":"[17932]","trial_type":"fractal-mutation","trial_index":62,"time_elapsed":1864517,"internal_node_id":"0.0-5.0-8.0"},{"group":"hexagon_bi","fractal_assignment":["../images/org_blu.png","../images/ylw_slt.png","../images/blu_wht.png","../images/gry_blk.png","../images/cyn_red.png","../images/pnk_blu.png"],"mutagen_generator_assignment":[0,1],"goal":2,"start":4,"action_noise":0,"location_history":"[4,3,4,3,2]","action_history":"[0,0,0,1]","mutagen_history":"[0,0,0,1]","location_rts":"[11599,15159,12508,3081]","trial_type":"fractal-mutation","trial_index":63,"time_elapsed":1915055,"internal_node_id":"0.0-5.0-9.0"},{"group":"hexagon_bi","fractal_assignment":["../images/org_blu.png","../images/ylw_slt.png","../images/blu_wht.png","../images/gry_blk.png","../images/cyn_red.png","../images/pnk_blu.png"],"mutagen_generator_assignment":[0,1],"goal":0,"start":2,"action_noise":0,"location_history":"[2,1,0]","action_history":"[0,1]","mutagen_history":"[0,1]","location_rts":"[18966,8593]","trial_type":"fractal-mutation","trial_index":64,"time_elapsed":1948720,"internal_node_id":"0.0-5.0-10.0"},{"group":"hexagon_bi","fractal_assignment":["../images/org_blu.png","../images/ylw_slt.png","../images/blu_wht.png","../images/gry_blk.png","../images/cyn_red.png","../images/pnk_blu.png"],"mutagen_generator_assignment":[0,1],"goal":1,"start":0,"action_noise":0,"location_history":"[0,1]","action_history":"[1]","mutagen_history":"[1]","location_rts":"[8717]","trial_type":"fractal-mutation","trial_index":65,"time_elapsed":1962489,"internal_node_id":"0.0-5.0-11.0"},{"group":"hexagon_bi","fractal_assignment":["../images/org_blu.png","../images/ylw_slt.png","../images/blu_wht.png","../images/gry_blk.png","../images/cyn_red.png","../images/pnk_blu.png"],"mutagen_generator_assignment":[0,1],"goal":3,"start":1,"action_noise":0,"location_history":"[1,2,3]","action_history":"[0,1]","mutagen_history":"[0,1]","location_rts":"[8533,6463]","trial_type":"fractal-mutation","trial_index":66,"time_elapsed":1983606,"internal_node_id":"0.0-5.0-12.0"},{"group":"hexagon_bi","fractal_assignment":["../images/org_blu.png","../images/ylw_slt.png","../images/blu_wht.png","../images/gry_blk.png","../images/cyn_red.png","../images/pnk_blu.png"],"mutagen_generator_assignment":[0,1],"goal":5,"start":3,"action_noise":0,"location_history":"[3,2,1,2,3,4,3,2,1,2,1,2,3,4,5]","action_history":"[1,0,0,1,0,0,1,0,0,0,0,1,0,1]","mutagen_history":"[1,0,0,1,0,0,1,0,0,0,0,1,0,1]","location_rts":"[20948,12896,22470,11270,4352,2695,1678,1151,1128,1064,991,2113,384,1088]","trial_type":"fractal-mutation","trial_index":67,"time_elapsed":2086515,"internal_node_id":"0.0-5.0-13.0"},{"group":"hexagon_bi","fractal_assignment":["../images/org_blu.png","../images/ylw_slt.png","../images/blu_wht.png","../images/gry_blk.png","../images/cyn_red.png","../images/pnk_blu.png"],"mutagen_generator_assignment":[0,1],"goal":4,"start":5,"action_noise":0,"location_history":"[5,4]","action_history":"[1]","mutagen_history":"[1]","location_rts":"[18201]","trial_type":"fractal-mutation","trial_index":68,"time_elapsed":2109744,"internal_node_id":"0.0-5.0-14.0"},{"group":"hexagon_bi","fractal_assignment":["../images/org_blu.png","../images/ylw_slt.png","../images/blu_wht.png","../images/gry_blk.png","../images/cyn_red.png","../images/pnk_blu.png"],"mutagen_generator_assignment":[0,1],"goal":0,"start":4,"action_noise":0,"location_history":"[4,3,2,1,0]","action_history":"[0,1,0,1]","mutagen_history":"[0,1,0,1]","location_rts":"[9096,9171,5995,6219]","trial_type":"fractal-mutation","trial_index":69,"time_elapsed":2148427,"internal_node_id":"0.0-5.0-15.0"},{"group":"hexagon_bi","fractal_assignment":["../images/org_blu.png","../images/ylw_slt.png","../images/blu_wht.png","../images/gry_blk.png","../images/cyn_red.png","../images/pnk_blu.png"],"mutagen_generator_assignment":[0,1],"goal":3,"start":0,"action_noise":0,"location_history":"[0,5,4,3]","action_history":"[0,1,0]","mutagen_history":"[0,1,0]","location_rts":"[6052,7658,1782]","trial_type":"fractal-mutation","trial_index":70,"time_elapsed":2171088,"internal_node_id":"0.0-5.0-16.0"},{"group":"hexagon_bi","fractal_assignment":["../images/org_blu.png","../images/ylw_slt.png","../images/blu_wht.png","../images/gry_blk.png","../images/cyn_red.png","../images/pnk_blu.png"],"mutagen_generator_assignment":[0,1],"goal":1,"start":3,"action_noise":0,"location_history":"[3,2,1]","action_history":"[1,0]","mutagen_history":"[1,0]","location_rts":"[7788,1089]","trial_type":"fractal-mutation","trial_index":71,"time_elapsed":2186055,"internal_node_id":"0.0-5.0-17.0"},{"group":"hexagon_bi","fractal_assignment":["../images/org_blu.png","../images/ylw_slt.png","../images/blu_wht.png","../images/gry_blk.png","../images/cyn_red.png","../images/pnk_blu.png"],"mutagen_generator_assignment":[0,1],"goal":5,"start":1,"action_noise":0,"location_history":"[1,0,5]","action_history":"[1,0]","mutagen_history":"[1,0]","location_rts":"[5392,9606]","trial_type":"fractal-mutation","trial_index":72,"time_elapsed":2207254,"internal_node_id":"0.0-5.0-18.0"},{"group":"hexagon_bi","fractal_assignment":["../images/org_blu.png","../images/ylw_slt.png","../images/blu_wht.png","../images/gry_blk.png","../images/cyn_red.png","../images/pnk_blu.png"],"mutagen_generator_assignment":[0,1],"goal":2,"start":5,"action_noise":0,"location_history":"[5,4,5,0,1,0,1,0,5,4,3,4,5,4,3,2]","action_history":"[1,1,0,1,1,1,1,0,1,0,0,1,1,0,1]","mutagen_history":"[1,1,0,1,1,1,1,0,1,0,0,1,1,0,1]","location_rts":"[2063,12036,3981,2110,1309,1158,1259,1472,1720,1119,1451,1017,1295,1197,1130]","trial_type":"fractal-mutation","trial_index":73,"time_elapsed":2261311,"internal_node_id":"0.0-5.0-19.0"},{"group":"hexagon_bi","fractal_assignment":["../images/org_blu.png","../images/ylw_slt.png","../images/blu_wht.png","../images/gry_blk.png","../images/cyn_red.png","../images/pnk_blu.png"],"mutagen_generator_assignment":[0,1],"goal":4,"start":2,"action_noise":0,"location_history":"[2,3,2,1,0,1,2,1,0,1,0,1,0,5,4]","action_history":"[1,1,0,1,1,0,0,1,1,1,1,1,0,1]","mutagen_history":"[1,1,0,1,1,0,0,1,1,1,1,1,0,1]","location_rts":"[16433,6927,1248,1000,1161,1107,1624,1075,1066,958,1298,1146,1028,964]","trial_type":"fractal-mutation","trial_index":74,"time_elapsed":2317233,"internal_node_id":"0.0-5.0-20.0"},{"group":"hexagon_bi","fractal_assignment":["../images/org_blu.png","../images/ylw_slt.png","../images/blu_wht.png","../images/gry_blk.png","../images/cyn_red.png","../images/pnk_blu.png"],"mutagen_generator_assignment":[0,1],"goal":1,"start":4,"action_noise":0,"location_history":"[4,5,0,1]","action_history":"[1,0,1]","mutagen_history":"[1,0,1]","location_rts":"[22077,13666,5840]","trial_type":"fractal-mutation","trial_index":75,"time_elapsed":2365991,"internal_node_id":"0.0-5.0-21.0"},{"group":"hexagon_bi","fractal_assignment":["../images/org_blu.png","../images/ylw_slt.png","../images/blu_wht.png","../images/gry_blk.png","../images/cyn_red.png","../images/pnk_blu.png"],"mutagen_generator_assignment":[0,1],"goal":3,"start":1,"action_noise":0,"location_history":"[1,2,3]","action_history":"[0,1]","mutagen_history":"[0,1]","location_rts":"[28182,6596]","trial_type":"fractal-mutation","trial_index":76,"time_elapsed":2406885,"internal_node_id":"0.0-5.0-22.0"},{"group":"hexagon_bi","fractal_assignment":["../images/org_blu.png","../images/ylw_slt.png","../images/blu_wht.png","../images/gry_blk.png","../images/cyn_red.png","../images/pnk_blu.png"],"mutagen_generator_assignment":[0,1],"goal":2,"start":3,"action_noise":0,"location_history":"[3,4,5,0,1,0,5,0,1,2]","action_history":"[0,1,0,1,1,0,0,1,0]","mutagen_history":"[0,1,0,1,1,0,0,1,0]","location_rts":"[21344,7296,5114,5224,5831,6425,1133,1476,1056]","trial_type":"fractal-mutation","trial_index":77,"time_elapsed":2475269,"internal_node_id":"0.0-5.0-23.0"},{"group":"hexagon_bi","fractal_assignment":["../images/org_blu.png","../images/ylw_slt.png","../images/blu_wht.png","../images/gry_blk.png","../images/cyn_red.png","../images/pnk_blu.png"],"mutagen_generator_assignment":[0,1],"goal":0,"start":2,"action_noise":0,"location_history":"[2,3,4,3,2,3,4,3,2,3,2,3,2,1,2,3,4,5,0]","action_history":"[1,0,0,1,1,0,0,1,1,1,1,1,0,0,1,0,1,0]","mutagen_history":"[1,0,0,1,1,0,0,1,1,1,1,1,0,0,1,0,1,0]","location_rts":"[2022,1136,1867,994,991,968,1601,1036,799,426,431,713,1063,534,1405,512,1752,1846]","trial_type":"fractal-mutation","trial_index":78,"time_elapsed":2518234,"internal_node_id":"0.0-5.0-24.0"},{"group":"hexagon_bi","fractal_assignment":["../images/org_blu.png","../images/ylw_slt.png","../images/blu_wht.png","../images/gry_blk.png","../images/cyn_red.png","../images/pnk_blu.png"],"mutagen_generator_assignment":[0,1],"goal":5,"start":0,"action_noise":0,"location_history":"[0,1,2,3,4,3,2,3,4,5]","action_history":"[1,0,1,0,0,1,1,0,1]","mutagen_history":"[1,0,1,0,0,1,1,0,1]","location_rts":"[7935,1416,1108,1123,1010,1144,656,1028,834]","trial_type":"fractal-mutation","trial_index":79,"time_elapsed":2547868,"internal_node_id":"0.0-5.0-25.0"},{"group":"hexagon_bi","fractal_assignment":["../images/org_blu.png","../images/ylw_slt.png","../images/blu_wht.png","../images/gry_blk.png","../images/cyn_red.png","../images/pnk_blu.png"],"mutagen_generator_assignment":[0,1],"goal":2,"start":5,"action_noise":0,"location_history":"[5,0,1,0,5,4,3,4,5,4,5,0,5,4,3,2]","action_history":"[0,1,1,0,1,0,0,1,1,1,0,0,1,0,1]","mutagen_history":"[0,1,1,0,1,0,0,1,1,1,0,0,1,0,1]","location_rts":"[12055,1378,677,1176,1031,1347,1469,806,927,619,1439,708,1391,518,561]","trial_type":"fractal-mutation","trial_index":80,"time_elapsed":2593723,"internal_node_id":"0.0-5.0-26.0"},{"group":"hexagon_bi","fractal_assignment":["../images/org_blu.png","../images/ylw_slt.png","../images/blu_wht.png","../images/gry_blk.png","../images/cyn_red.png","../images/pnk_blu.png"],"mutagen_generator_assignment":[0,1],"goal":3,"start":2,"action_noise":0,"location_history":"[2,1,2,1,0,5,0,1,0,5,4,3]","action_history":"[0,0,0,1,0,0,1,1,0,1,0]","mutagen_history":"[0,0,0,1,0,0,1,1,0,1,0]","location_rts":"[7682,4076,4401,1063,2066,1250,401,785,556,463,835]","trial_type":"fractal-mutation","trial_index":81,"time_elapsed":2632848,"internal_node_id":"0.0-5.0-27.0"},{"group":"hexagon_bi","fractal_assignment":["../images/org_blu.png","../images/ylw_slt.png","../images/blu_wht.png","../images/gry_blk.png","../images/cyn_red.png","../images/pnk_blu.png"],"mutagen_generator_assignment":[0,1],"goal":0,"start":3,"action_noise":0,"location_history":"[3,4,5,0]","action_history":"[0,1,0]","mutagen_history":"[0,1,0]","location_rts":"[7429,944,607]","trial_type":"fractal-mutation","trial_index":82,"time_elapsed":2648980,"internal_node_id":"0.0-5.0-28.0"},{"group":"hexagon_bi","fractal_assignment":["../images/org_blu.png","../images/ylw_slt.png","../images/blu_wht.png","../images/gry_blk.png","../images/cyn_red.png","../images/pnk_blu.png"],"mutagen_generator_assignment":[0,1],"goal":1,"start":0,"action_noise":0,"location_history":"[0,1]","action_history":"[1]","mutagen_history":"[1]","location_rts":"[8449]","trial_type":"fractal-mutation","trial_index":83,"time_elapsed":2662475,"internal_node_id":"0.0-5.0-29.0"},{"group":"hexagon_bi","fractal_assignment":["../images/org_blu.png","../images/ylw_slt.png","../images/blu_wht.png","../images/gry_blk.png","../images/cyn_red.png","../images/pnk_blu.png"],"mutagen_generator_assignment":[0,1],"goal":4,"start":1,"action_noise":0,"location_history":"[1,2,3,4]","action_history":"[0,1,0]","mutagen_history":"[0,1,0]","location_rts":"[12410,946,568]","trial_type":"fractal-mutation","trial_index":84,"time_elapsed":2683625,"internal_node_id":"0.0-5.0-30.0"},{"group":"hexagon_bi","fractal_assignment":["../images/org_blu.png","../images/ylw_slt.png","../images/blu_wht.png","../images/gry_blk.png","../images/cyn_red.png","../images/pnk_blu.png"],"mutagen_generator_assignment":[0,1],"goal":5,"start":4,"action_noise":0,"location_history":"[4,5]","action_history":"[1]","mutagen_history":"[1]","location_rts":"[7910]","trial_type":"fractal-mutation","trial_index":85,"time_elapsed":2696587,"internal_node_id":"0.0-5.0-31.0"},{"group":"hexagon_bi","fractal_assignment":["../images/org_blu.png","../images/ylw_slt.png","../images/blu_wht.png","../images/gry_blk.png","../images/cyn_red.png","../images/pnk_blu.png"],"mutagen_generator_assignment":[0,1],"goal":0,"start":5,"action_noise":0,"location_history":"[5,0]","action_history":"[0]","mutagen_history":"[0]","location_rts":"[7831]","trial_type":"fractal-mutation","trial_index":86,"time_elapsed":2709447,"internal_node_id":"0.0-5.0-32.0"},{"group":"hexagon_bi","fractal_assignment":["../images/org_blu.png","../images/ylw_slt.png","../images/blu_wht.png","../images/gry_blk.png","../images/cyn_red.png","../images/pnk_blu.png"],"mutagen_generator_assignment":[0,1],"goal":3,"start":0,"action_noise":0,"location_history":"[0,5,4,5,0,1,2,3]","action_history":"[0,1,1,0,1,0,1]","mutagen_history":"[0,1,1,0,1,0,1]","location_rts":"[10200,6321,879,834,1231,627,963]","trial_type":"fractal-mutation","trial_index":87,"time_elapsed":2741986,"internal_node_id":"0.0-5.0-33.0"},{"group":"hexagon_bi","fractal_assignment":["../images/org_blu.png","../images/ylw_slt.png","../images/blu_wht.png","../images/gry_blk.png","../images/cyn_red.png","../images/pnk_blu.png"],"mutagen_generator_assignment":[0,1],"goal":1,"start":3,"action_noise":0,"location_history":"[3,2,1]","action_history":"[1,0]","mutagen_history":"[1,0]","location_rts":"[10797,817]","trial_type":"fractal-mutation","trial_index":88,"time_elapsed":2759813,"internal_node_id":"0.0-5.0-34.0"},{"group":"hexagon_bi","fractal_assignment":["../images/org_blu.png","../images/ylw_slt.png","../images/blu_wht.png","../images/gry_blk.png","../images/cyn_red.png","../images/pnk_blu.png"],"mutagen_generator_assignment":[0,1],"goal":2,"start":1,"action_noise":0,"location_history":"[1,2]","action_history":"[0]","mutagen_history":"[0]","location_rts":"[4552]","trial_type":"fractal-mutation","trial_index":89,"time_elapsed":2769410,"internal_node_id":"0.0-5.0-35.0"},{"group":"hexagon_bi","fractal_assignment":["../images/org_blu.png","../images/ylw_slt.png","../images/blu_wht.png","../images/gry_blk.png","../images/cyn_red.png","../images/pnk_blu.png"],"mutagen_generator_assignment":[0,1],"goal":4,"start":2,"action_noise":0,"location_history":"[2,1,2,3,4]","action_history":"[0,0,1,0]","mutagen_history":"[0,0,1,0]","location_rts":"[14191,3164,546,4216]","trial_type":"fractal-mutation","trial_index":90,"time_elapsed":2799756,"internal_node_id":"0.0-5.0-36.0"},{"group":"hexagon_bi","fractal_assignment":["../images/org_blu.png","../images/ylw_slt.png","../images/blu_wht.png","../images/gry_blk.png","../images/cyn_red.png","../images/pnk_blu.png"],"mutagen_generator_assignment":[0,1],"goal":5,"start":4,"action_noise":0,"location_history":"[4,5]","action_history":"[1]","mutagen_history":"[1]","location_rts":"[5714]","trial_type":"fractal-mutation","trial_index":91,"time_elapsed":2810517,"internal_node_id":"0.0-5.0-37.0"},{"group":"hexagon_bi","fractal_assignment":["../images/org_blu.png","../images/ylw_slt.png","../images/blu_wht.png","../images/gry_blk.png","../images/cyn_red.png","../images/pnk_blu.png"],"mutagen_generator_assignment":[0,1],"goal":1,"start":5,"action_noise":0,"location_history":"[5,0,1]","action_history":"[0,1]","mutagen_history":"[0,1]","location_rts":"[6001,634]","trial_type":"fractal-mutation","trial_index":92,"time_elapsed":2823230,"internal_node_id":"0.0-5.0-38.0"},{"group":"hexagon_bi","fractal_assignment":["../images/org_blu.png","../images/ylw_slt.png","../images/blu_wht.png","../images/gry_blk.png","../images/cyn_red.png","../images/pnk_blu.png"],"mutagen_generator_assignment":[0,1],"goal":4,"start":1,"action_noise":0,"location_history":"[1,0,1,2,1,2,1,0,1,2,3,4]","action_history":"[1,1,0,0,0,0,1,1,0,1,0]","mutagen_history":"[1,1,0,0,0,0,1,1,0,1,0]","location_rts":"[4873,3807,3764,3794,4074,3083,702,863,434,713,553]","trial_type":"fractal-mutation","trial_index":93,"time_elapsed":2865568,"internal_node_id":"0.0-5.0-39.0"},{"group":"hexagon_bi","fractal_assignment":["../images/org_blu.png","../images/ylw_slt.png","../images/blu_wht.png","../images/gry_blk.png","../images/cyn_red.png","../images/pnk_blu.png"],"mutagen_generator_assignment":[0,1],"goal":3,"start":4,"action_noise":0,"location_history":"[4,5,4,3]","action_history":"[1,1,0]","mutagen_history":"[1,1,0]","location_rts":"[4693,5262,2551]","trial_type":"fractal-mutation","trial_index":94,"time_elapsed":2885199,"internal_node_id":"0.0-5.0-40.0"},{"group":"hexagon_bi","fractal_assignment":["../images/org_blu.png","../images/ylw_slt.png","../images/blu_wht.png","../images/gry_blk.png","../images/cyn_red.png","../images/pnk_blu.png"],"mutagen_generator_assignment":[0,1],"goal":2,"start":3,"action_noise":0,"location_history":"[3,4,5,0,1,2]","action_history":"[0,1,0,1,0]","mutagen_history":"[0,1,0,1,0]","location_rts":"[4811,2256,664,667,653]","trial_type":"fractal-mutation","trial_index":95,"time_elapsed":2903574,"internal_node_id":"0.0-5.0-41.0"},{"group":"hexagon_bi","fractal_assignment":["../images/org_blu.png","../images/ylw_slt.png","../images/blu_wht.png","../images/gry_blk.png","../images/cyn_red.png","../images/pnk_blu.png"],"mutagen_generator_assignment":[0,1],"goal":0,"start":2,"action_noise":0,"location_history":"[2,1,2,1,0]","action_history":"[0,0,0,1]","mutagen_history":"[0,0,0,1]","location_rts":"[7270,5196,8751,528]","trial_type":"fractal-mutation","trial_index":96,"time_elapsed":2933575,"internal_node_id":"0.0-5.0-42.0"},{"group":"hexagon_bi","fractal_assignment":["../images/org_blu.png","../images/ylw_slt.png","../images/blu_wht.png","../images/gry_blk.png","../images/cyn_red.png","../images/pnk_blu.png"],"mutagen_generator_assignment":[0,1],"goal":5,"start":0,"action_noise":0,"location_history":"[0,5]","action_history":"[0]","mutagen_history":"[0]","location_rts":"[8183]","trial_type":"fractal-mutation","trial_index":97,"time_elapsed":2946836,"internal_node_id":"0.0-5.0-43.0"},{"group":"hexagon_bi","fractal_assignment":["../images/org_blu.png","../images/ylw_slt.png","../images/blu_wht.png","../images/gry_blk.png","../images/cyn_red.png","../images/pnk_blu.png"],"mutagen_generator_assignment":[0,1],"goal":0,"start":5,"action_noise":0,"location_history":"[5,4,3,2,1,0]","action_history":"[1,0,1,0,1]","mutagen_history":"[1,0,1,0,1]","location_rts":"[7186,1084,627,709,602]","trial_type":"fractal-mutation","trial_index":98,"time_elapsed":2966384,"internal_node_id":"0.0-5.0-44.0"},{"group":"hexagon_bi","fractal_assignment":["../images/org_blu.png","../images/ylw_slt.png","../images/blu_wht.png","../images/gry_blk.png","../images/cyn_red.png","../images/pnk_blu.png"],"mutagen_generator_assignment":[0,1],"goal":2,"start":0,"action_noise":0,"location_history":"[0,5,4,5,0,1,2]","action_history":"[0,1,1,0,1,0]","mutagen_history":"[0,1,1,0,1,0]","location_rts":"[11151,695,346,1285,597,537]","trial_type":"fractal-mutation","trial_index":99,"time_elapsed":2991294,"internal_node_id":"0.0-5.0-45.0"},{"group":"hexagon_bi","fractal_assignment":["../images/org_blu.png","../images/ylw_slt.png","../images/blu_wht.png","../images/gry_blk.png","../images/cyn_red.png","../images/pnk_blu.png"],"mutagen_generator_assignment":[0,1],"goal":4,"start":2,"action_noise":0,"location_history":"[2,1,0,5,4]","action_history":"[0,1,0,1]","mutagen_history":"[0,1,0,1]","location_rts":"[5615,774,996,744]","trial_type":"fractal-mutation","trial_index":100,"time_elapsed":3007572,"internal_node_id":"0.0-5.0-46.0"},{"group":"hexagon_bi","fractal_assignment":["../images/org_blu.png","../images/ylw_slt.png","../images/blu_wht.png","../images/gry_blk.png","../images/cyn_red.png","../images/pnk_blu.png"],"mutagen_generator_assignment":[0,1],"goal":1,"start":4,"action_noise":0,"location_history":"[4,3,2,1]","action_history":"[0,1,0]","mutagen_history":"[0,1,0]","location_rts":"[5652,625,499]","trial_type":"fractal-mutation","trial_index":101,"time_elapsed":3021465,"internal_node_id":"0.0-5.0-47.0"},{"group":"hexagon_bi","fractal_assignment":["../images/org_blu.png","../images/ylw_slt.png","../images/blu_wht.png","../images/gry_blk.png","../images/cyn_red.png","../images/pnk_blu.png"],"mutagen_generator_assignment":[0,1],"goal":5,"start":1,"action_noise":0,"location_history":"[1,2,3,4,5]","action_history":"[0,1,0,1]","mutagen_history":"[0,1,0,1]","location_rts":"[5796,656,639,585]","trial_type":"fractal-mutation","trial_index":102,"time_elapsed":3037382,"internal_node_id":"0.0-5.0-48.0"},{"group":"hexagon_bi","fractal_assignment":["../images/org_blu.png","../images/ylw_slt.png","../images/blu_wht.png","../images/gry_blk.png","../images/cyn_red.png","../images/pnk_blu.png"],"mutagen_generator_assignment":[0,1],"goal":3,"start":5,"action_noise":0,"location_history":"[5,0,1,2,3]","action_history":"[0,1,0,1]","mutagen_history":"[0,1,0,1]","location_rts":"[9080,760,660,507]","trial_type":"fractal-mutation","trial_index":103,"time_elapsed":3056613,"internal_node_id":"0.0-5.0-49.0"},{"view_history":"[{\"page_index\":0,\"viewing_time\":8765}]","rt":8767,"trial_type":"instructions","trial_index":104,"time_elapsed":3066381,"internal_node_id":"0.0-6.0"},{"rt":6549,"responses":"{\"Q0\":\"nope\"}","trial_type":"survey-text","trial_index":105,"time_elapsed":3073941,"internal_node_id":"0.0-7.0"}]