[{"view_history":"[{\"page_index\":0,\"viewing_time\":148092},{\"page_index\":1,\"viewing_time\":56434}]","rt":204526,"trial_type":"instructions","trial_index":0,"time_elapsed":204527,"internal_node_id":"0.0-0.0"},{"view_history":"[{\"page_index\":0,\"viewing_time\":1577},{\"page_index\":1,\"viewing_time\":36646}]","rt":38223,"trial_type":"instructions","trial_index":1,"time_elapsed":243752,"internal_node_id":"0.0-1.0"},{"group":"hexagon_bi","room_assignment":["yellow","purple","green","grey","blue","red"],"door_color_assignment":["black","white"],"door_generator_assignment":[0,1],"goal":3,"start":5,"action_noise":0,"location_history":"[5,0,1,2,3]","action_history":"[0,1,0,1]","door_history":"[0,1,0,1]","location_rts":"[1974,544,761,881]","trial_type":"two-door-navigation","trial_index":2,"time_elapsed":255998,"internal_node_id":"0.0-2.0-0.0"},{"group":"hexagon_bi","room_assignment":["yellow","purple","green","grey","blue","red"],"door_color_assignment":["black","white"],"door_generator_assignment":[0,1],"goal":1,"start":3,"action_noise":0,"location_history":"[3,4,5,0,5,4,3,2,1]","action_history":"[0,1,0,0,1,0,1,0]","door_history":"[0,1,0,0,1,0,1,0]","location_rts":"[3077,669,465,458,154,494,371,698]","trial_type":"two-door-navigation","trial_index":3,"time_elapsed":274544,"internal_node_id":"0.0-2.0-1.0"},{"group":"hexagon_bi","room_assignment":["yellow","purple","green","grey","blue","red"],"door_color_assignment":["black","white"],"door_generator_assignment":[0,1],"goal":0,"start":1,"action_noise":0,"location_history":"[1,0]","action_history":"[1]","door_history":"[1]","location_rts":"[855]","trial_type":"two-door-navigation","trial_index":4,"time_elapsed":280426,"internal_node_id":"0.0-2.0-2.0"},{"group":"hexagon_bi","room_assignment":["yellow","purple","green","grey","blue","red"],"door_color_assignment":["black","white"],"door_generator_assignment":[0,1],"goal":3,"start":0,"action_noise":0,"location_history":"[0,5,4,3]","action_history":"[0,1,0]","door_history":"[0,1,0]","location_rts":"[1050,675,652]","trial_type":"two-door-navigation","trial_index":5,"time_elapsed":289877,"internal_node_id":"0.0-2.0-3.0"},{"group":"hexagon_bi","room_assignment":["yellow","purple","green","grey","blue","red"],"door_color_assignment":["black","white"],"door_generator_assignment":[0,1],"goal":4,"start":3,"action_noise":0,"location_history":"[3,2,1,0,5,4]","action_history":"[1,0,1,0,1]","door_history":"[1,0,1,0,1]","location_rts":"[2060,391,770,896,610]","trial_type":"two-door-navigation","trial_index":6,"time_elapsed":303698,"internal_node_id":"0.0-2.0-4.0"},{"group":"hexagon_bi","room_assignment":["yellow","purple","green","grey","blue","red"],"door_color_assignment":["black","white"],"door_generator_assignment":[0,1],"goal":2,"start":4,"action_noise":0,"location_history":"[4,3,2]","action_history":"[0,1]","door_history":"[0,1]","location_rts":"[1046,426]","trial_type":"two-door-navigation","trial_index":7,"time_elapsed":311214,"internal_node_id":"0.0-2.0-5.0"},{"group":"hexagon_bi","room_assignment":["yellow","purple","green","grey","blue","red"],"door_color_assignment":["black","white"],"door_generator_assignment":[0,1],"goal":1,"start":2,"action_noise":0,"location_history":"[2,1]","action_history":"[0]","door_history":"[0]","location_rts":"[918]","trial_type":"two-door-navigation","trial_index":8,"time_elapsed":317160,"internal_node_id":"0.0-2.0-6.0"},{"group":"hexagon_bi","room_assignment":["yellow","purple","green","grey","blue","red"],"door_color_assignment":["black","white"],"door_generator_assignment":[0,1],"goal":5,"start":1,"action_noise":0,"location_history":"[1,2,3,4,5]","action_history":"[0,1,0,1]","door_history":"[0,1,0,1]","location_rts":"[16768,338,507,586]","trial_type":"two-door-navigation","trial_index":9,"time_elapsed":343444,"internal_node_id":"0.0-2.0-7.0"},{"group":"hexagon_bi","room_assignment":["yellow","purple","green","grey","blue","red"],"door_color_assignment":["black","white"],"door_generator_assignment":[0,1],"goal":4,"start":5,"action_noise":0,"location_history":"[5,0,1,2,3,4]","action_history":"[0,1,0,1,0]","door_history":"[0,1,0,1,0]","location_rts":"[869,572,408,589,677]","trial_type":"two-door-navigation","trial_index":10,"time_elapsed":355667,"internal_node_id":"0.0-2.0-8.0"},{"group":"hexagon_bi","room_assignment":["yellow","purple","green","grey","blue","red"],"door_color_assignment":["black","white"],"door_generator_assignment":[0,1],"goal":2,"start":4,"action_noise":0,"location_history":"[4,3,2]","action_history":"[0,1]","door_history":"[0,1]","location_rts":"[1407,414]","trial_type":"two-door-navigation","trial_index":11,"time_elapsed":363534,"internal_node_id":"0.0-2.0-9.0"},{"group":"hexagon_bi","room_assignment":["yellow","purple","green","grey","blue","red"],"door_color_assignment":["black","white"],"door_generator_assignment":[0,1],"goal":0,"start":2,"action_noise":0,"location_history":"[2,3,4,5,0]","action_history":"[1,0,1,0]","door_history":"[1,0,1,0]","location_rts":"[1607,508,737,643]","trial_type":"two-door-navigation","trial_index":12,"time_elapsed":375114,"internal_node_id":"0.0-2.0-10.0"},{"group":"hexagon_bi","room_assignment":["yellow","purple","green","grey","blue","red"],"door_color_assignment":["black","white"],"door_generator_assignment":[0,1],"goal":1,"start":0,"action_noise":0,"location_history":"[0,5,4,3,2,1]","action_history":"[0,1,0,1,0]","door_history":"[0,1,0,1,0]","location_rts":"[1494,277,1947,429,358]","trial_type":"two-door-navigation","trial_index":13,"time_elapsed":388717,"internal_node_id":"0.0-2.0-11.0"},{"group":"hexagon_bi","room_assignment":["yellow","purple","green","grey","blue","red"],"door_color_assignment":["black","white"],"door_generator_assignment":[0,1],"goal":3,"start":1,"action_noise":0,"location_history":"[1,0,5,4,3]","action_history":"[1,0,1,0]","door_history":"[1,0,1,0]","location_rts":"[752,387,330,417]","trial_type":"two-door-navigation","trial_index":14,"time_elapsed":398687,"internal_node_id":"0.0-2.0-12.0"},{"group":"hexagon_bi","room_assignment":["yellow","purple","green","grey","blue","red"],"door_color_assignment":["black","white"],"door_generator_assignment":[0,1],"goal":5,"start":3,"action_noise":0,"location_history":"[3,4,5]","action_history":"[0,1]","door_history":"[0,1]","location_rts":"[993,223]","trial_type":"two-door-navigation","trial_index":15,"time_elapsed":405945,"internal_node_id":"0.0-2.0-13.0"},{"group":"hexagon_bi","room_assignment":["yellow","purple","green","grey","blue","red"],"door_color_assignment":["black","white"],"door_generator_assignment":[0,1],"goal":4,"start":5,"action_noise":0,"location_history":"[5,0,1,2,3,4]","action_history":"[0,1,0,1,0]","door_history":"[0,1,0,1,0]","location_rts":"[873,296,542,416,592]","trial_type":"two-door-navigation","trial_index":16,"time_elapsed":417763,"internal_node_id":"0.0-2.0-14.0"},{"group":"hexagon_bi","room_assignment":["yellow","purple","green","grey","blue","red"],"door_color_assignment":["black","white"],"door_generator_assignment":[0,1],"goal":0,"start":4,"action_noise":0,"location_history":"[4,5,0]","action_history":"[1,0]","door_history":"[1,0]","location_rts":"[792,350]","trial_type":"two-door-navigation","trial_index":17,"time_elapsed":424944,"internal_node_id":"0.0-2.0-15.0"},{"group":"hexagon_bi","room_assignment":["yellow","purple","green","grey","blue","red"],"door_color_assignment":["black","white"],"door_generator_assignment":[0,1],"goal":3,"start":0,"action_noise":0,"location_history":"[0,1,2,3]","action_history":"[1,0,1]","door_history":"[1,0,1]","location_rts":"[1739,726,358]","trial_type":"two-door-navigation","trial_index":18,"time_elapsed":434832,"internal_node_id":"0.0-2.0-16.0"},{"group":"hexagon_bi","room_assignment":["yellow","purple","green","grey","blue","red"],"door_color_assignment":["black","white"],"door_generator_assignment":[0,1],"goal":1,"start":3,"action_noise":0,"location_history":"[3,4,5,0,1]","action_history":"[0,1,0,1]","door_history":"[0,1,0,1]","location_rts":"[649,386,445,446]","trial_type":"two-door-navigation","trial_index":19,"time_elapsed":444840,"internal_node_id":"0.0-2.0-17.0"},{"group":"hexagon_bi","room_assignment":["yellow","purple","green","grey","blue","red"],"door_color_assignment":["black","white"],"door_generator_assignment":[0,1],"goal":5,"start":1,"action_noise":0,"location_history":"[1,2,3,4,5]","action_history":"[0,1,0,1]","door_history":"[0,1,0,1]","location_rts":"[1948,342,2759,353]","trial_type":"two-door-navigation","trial_index":20,"time_elapsed":459103,"internal_node_id":"0.0-2.0-18.0"},{"group":"hexagon_bi","room_assignment":["yellow","purple","green","grey","blue","red"],"door_color_assignment":["black","white"],"door_generator_assignment":[0,1],"goal":2,"start":5,"action_noise":0,"location_history":"[5,4,3,2]","action_history":"[1,0,1]","door_history":"[1,0,1]","location_rts":"[29247,306,423]","trial_type":"two-door-navigation","trial_index":21,"time_elapsed":496140,"internal_node_id":"0.0-2.0-19.0"},{"group":"hexagon_bi","room_assignment":["yellow","purple","green","grey","blue","red"],"door_color_assignment":["black","white"],"door_generator_assignment":[0,1],"goal":4,"start":2,"action_noise":0,"location_history":"[2,1,0,5,4]","action_history":"[0,1,0,1]","door_history":"[0,1,0,1]","location_rts":"[1165,277,287,940]","trial_type":"two-door-navigation","trial_index":22,"time_elapsed":506881,"internal_node_id":"0.0-2.0-20.0"},{"group":"hexagon_bi","room_assignment":["yellow","purple","green","grey","blue","red"],"door_color_assignment":["black","white"],"door_generator_assignment":[0,1],"goal":1,"start":4,"action_noise":0,"location_history":"[4,5,0,1]","action_history":"[1,0,1]","door_history":"[1,0,1]","location_rts":"[9341,282,287]","trial_type":"two-door-navigation","trial_index":23,"time_elapsed":523853,"internal_node_id":"0.0-2.0-21.0"},{"group":"hexagon_bi","room_assignment":["yellow","purple","green","grey","blue","red"],"door_color_assignment":["black","white"],"door_generator_assignment":[0,1],"goal":3,"start":1,"action_noise":0,"location_history":"[1,0,5,4,3]","action_history":"[1,0,1,0]","door_history":"[1,0,1,0]","location_rts":"[397,271,281,774]","trial_type":"two-door-navigation","trial_index":24,"time_elapsed":533650,"internal_node_id":"0.0-2.0-22.0"},{"group":"hexagon_bi","room_assignment":["yellow","purple","green","grey","blue","red"],"door_color_assignment":["black","white"],"door_generator_assignment":[0,1],"goal":2,"start":3,"action_noise":0,"location_history":"[3,2]","action_history":"[1]","door_history":"[1]","location_rts":"[343]","trial_type":"two-door-navigation","trial_index":25,"time_elapsed":539013,"internal_node_id":"0.0-2.0-23.0"},{"group":"hexagon_bi","room_assignment":["yellow","purple","green","grey","blue","red"],"door_color_assignment":["black","white"],"door_generator_assignment":[0,1],"goal":0,"start":2,"action_noise":0,"location_history":"[2,1,0]","action_history":"[0,1]","door_history":"[0,1]","location_rts":"[417,390]","trial_type":"two-door-navigation","trial_index":26,"time_elapsed":545865,"internal_node_id":"0.0-2.0-24.0"},{"group":"hexagon_bi","room_assignment":["yellow","purple","green","grey","blue","red"],"door_color_assignment":["black","white"],"door_generator_assignment":[0,1],"goal":5,"start":0,"action_noise":0,"location_history":"[0,5]","action_history":"[0]","door_history":"[0]","location_rts":"[681]","trial_type":"two-door-navigation","trial_index":27,"time_elapsed":551575,"internal_node_id":"0.0-2.0-25.0"},{"group":"hexagon_bi","room_assignment":["yellow","purple","green","grey","blue","red"],"door_color_assignment":["black","white"],"door_generator_assignment":[0,1],"goal":2,"start":5,"action_noise":0,"location_history":"[5,4,3,2]","action_history":"[1,0,1]","door_history":"[1,0,1]","location_rts":"[1236,445,407]","trial_type":"two-door-navigation","trial_index":28,"time_elapsed":560732,"internal_node_id":"0.0-2.0-26.0"},{"group":"hexagon_bi","room_assignment":["yellow","purple","green","grey","blue","red"],"door_color_assignment":["black","white"],"door_generator_assignment":[0,1],"goal":3,"start":2,"action_noise":0,"location_history":"[2,1,0,5,4,3]","action_history":"[0,1,0,1,0]","door_history":"[0,1,0,1,0]","location_rts":"[1012,375,660,425,674]","trial_type":"two-door-navigation","trial_index":29,"time_elapsed":572976,"internal_node_id":"0.0-2.0-27.0"},{"group":"hexagon_bi","room_assignment":["yellow","purple","green","grey","blue","red"],"door_color_assignment":["black","white"],"door_generator_assignment":[0,1],"goal":0,"start":3,"action_noise":0,"location_history":"[3,2,1,0]","action_history":"[1,0,1]","door_history":"[1,0,1]","location_rts":"[1119,349,475]","trial_type":"two-door-navigation","trial_index":30,"time_elapsed":581977,"internal_node_id":"0.0-2.0-28.0"},{"group":"hexagon_bi","room_assignment":["yellow","purple","green","grey","blue","red"],"door_color_assignment":["black","white"],"door_generator_assignment":[0,1],"goal":1,"start":0,"action_noise":0,"location_history":"[0,5,4,3,2,1]","action_history":"[0,1,0,1,0]","door_history":"[0,1,0,1,0]","location_rts":"[634,347,626,991,632]","trial_type":"two-door-navigation","trial_index":31,"time_elapsed":594311,"internal_node_id":"0.0-2.0-29.0"},{"group":"hexagon_bi","room_assignment":["yellow","purple","green","grey","blue","red"],"door_color_assignment":["black","white"],"door_generator_assignment":[0,1],"goal":4,"start":1,"action_noise":0,"location_history":"[1,2,3,4]","action_history":"[0,1,0]","door_history":"[0,1,0]","location_rts":"[752,184,500]","trial_type":"two-door-navigation","trial_index":32,"time_elapsed":602811,"internal_node_id":"0.0-2.0-30.0"},{"group":"hexagon_bi","room_assignment":["yellow","purple","green","grey","blue","red"],"door_color_assignment":["black","white"],"door_generator_assignment":[0,1],"goal":5,"start":4,"action_noise":0,"location_history":"[4,5]","action_history":"[1]","door_history":"[1]","location_rts":"[2951]","trial_type":"two-door-navigation","trial_index":33,"time_elapsed":610787,"internal_node_id":"0.0-2.0-31.0"},{"group":"hexagon_bi","room_assignment":["yellow","purple","green","grey","blue","red"],"door_color_assignment":["black","white"],"door_generator_assignment":[0,1],"goal":0,"start":5,"action_noise":0,"location_history":"[5,0]","action_history":"[0]","door_history":"[0]","location_rts":"[1127]","trial_type":"two-door-navigation","trial_index":34,"time_elapsed":616937,"internal_node_id":"0.0-2.0-32.0"},{"group":"hexagon_bi","room_assignment":["yellow","purple","green","grey","blue","red"],"door_color_assignment":["black","white"],"door_generator_assignment":[0,1],"goal":3,"start":0,"action_noise":0,"location_history":"[0,1,2,3]","action_history":"[1,0,1]","door_history":"[1,0,1]","location_rts":"[2079,641,477]","trial_type":"two-door-navigation","trial_index":35,"time_elapsed":627196,"internal_node_id":"0.0-2.0-33.0"},{"group":"hexagon_bi","room_assignment":["yellow","purple","green","grey","blue","red"],"door_color_assignment":["black","white"],"door_generator_assignment":[0,1],"goal":1,"start":3,"action_noise":0,"location_history":"[3,2,1]","action_history":"[1,0]","door_history":"[1,0]","location_rts":"[252,423]","trial_type":"two-door-navigation","trial_index":36,"time_elapsed":633914,"internal_node_id":"0.0-2.0-34.0"},{"group":"hexagon_bi","room_assignment":["yellow","purple","green","grey","blue","red"],"door_color_assignment":["black","white"],"door_generator_assignment":[0,1],"goal":2,"start":1,"action_noise":0,"location_history":"[1,0,5,4,3,2]","action_history":"[1,0,1,0,1]","door_history":"[1,0,1,0,1]","location_rts":"[1380,228,582,362,874]","trial_type":"two-door-navigation","trial_index":37,"time_elapsed":646443,"internal_node_id":"0.0-2.0-35.0"},{"group":"hexagon_bi","room_assignment":["yellow","purple","green","grey","blue","red"],"door_color_assignment":["black","white"],"door_generator_assignment":[0,1],"goal":4,"start":2,"action_noise":0,"location_history":"[2,1,0,5,4]","action_history":"[0,1,0,1]","door_history":"[0,1,0,1]","location_rts":"[1462,457,1565,995]","trial_type":"two-door-navigation","trial_index":38,"time_elapsed":659004,"internal_node_id":"0.0-2.0-36.0"},{"group":"hexagon_bi","room_assignment":["yellow","purple","green","grey","blue","red"],"door_color_assignment":["black","white"],"door_generator_assignment":[0,1],"goal":5,"start":4,"action_noise":0,"location_history":"[4,3,2,1,0,5]","action_history":"[0,1,0,1,0]","door_history":"[0,1,0,1,0]","location_rts":"[1093,359,367,412,592]","trial_type":"two-door-navigation","trial_index":39,"time_elapsed":670921,"internal_node_id":"0.0-2.0-37.0"},{"group":"hexagon_bi","room_assignment":["yellow","purple","green","grey","blue","red"],"door_color_assignment":["black","white"],"door_generator_assignment":[0,1],"goal":1,"start":5,"action_noise":0,"location_history":"[5,4,3,2,1]","action_history":"[1,0,1,0]","door_history":"[1,0,1,0]","location_rts":"[1901,330,451,508]","trial_type":"two-door-navigation","trial_index":40,"time_elapsed":682197,"internal_node_id":"0.0-2.0-38.0"},{"group":"hexagon_bi","room_assignment":["yellow","purple","green","grey","blue","red"],"door_color_assignment":["black","white"],"door_generator_assignment":[0,1],"goal":4,"start":1,"action_noise":0,"location_history":"[1,0,5,4]","action_history":"[1,0,1]","door_history":"[1,0,1]","location_rts":"[592,388,466]","trial_type":"two-door-navigation","trial_index":41,"time_elapsed":690704,"internal_node_id":"0.0-2.0-39.0"},{"group":"hexagon_bi","room_assignment":["yellow","purple","green","grey","blue","red"],"door_color_assignment":["black","white"],"door_generator_assignment":[0,1],"goal":3,"start":4,"action_noise":0,"location_history":"[4,3]","action_history":"[0]","door_history":"[0]","location_rts":"[847]","trial_type":"two-door-navigation","trial_index":42,"time_elapsed":696576,"internal_node_id":"0.0-2.0-40.0"},{"group":"hexagon_bi","room_assignment":["yellow","purple","green","grey","blue","red"],"door_color_assignment":["black","white"],"door_generator_assignment":[0,1],"goal":2,"start":3,"action_noise":0,"location_history":"[3,2]","action_history":"[1]","door_history":"[1]","location_rts":"[15642]","trial_type":"two-door-navigation","trial_index":43,"time_elapsed":717242,"internal_node_id":"0.0-2.0-41.0"},{"group":"hexagon_bi","room_assignment":["yellow","purple","green","grey","blue","red"],"door_color_assignment":["black","white"],"door_generator_assignment":[0,1],"goal":0,"start":2,"action_noise":0,"location_history":"[2,1,0]","action_history":"[0,1]","door_history":"[0,1]","location_rts":"[1471,423]","trial_type":"two-door-navigation","trial_index":44,"time_elapsed":725178,"internal_node_id":"0.0-2.0-42.0"},{"group":"hexagon_bi","room_assignment":["yellow","purple","green","grey","blue","red"],"door_color_assignment":["black","white"],"door_generator_assignment":[0,1],"goal":5,"start":0,"action_noise":0,"location_history":"[0,5]","action_history":"[0]","door_history":"[0]","location_rts":"[925]","trial_type":"two-door-navigation","trial_index":45,"time_elapsed":731130,"internal_node_id":"0.0-2.0-43.0"},{"group":"hexagon_bi","room_assignment":["yellow","purple","green","grey","blue","red"],"door_color_assignment":["black","white"],"door_generator_assignment":[0,1],"goal":0,"start":5,"action_noise":0,"location_history":"[5,4,3,2,1,0]","action_history":"[1,0,1,0,1]","door_history":"[1,0,1,0,1]","location_rts":"[944,384,616,1760,1059]","trial_type":"two-door-navigation","trial_index":46,"time_elapsed":744992,"internal_node_id":"0.0-2.0-44.0"},{"group":"hexagon_bi","room_assignment":["yellow","purple","green","grey","blue","red"],"door_color_assignment":["black","white"],"door_generator_assignment":[0,1],"goal":2,"start":0,"action_noise":0,"location_history":"[0,5,4,3,2]","action_history":"[0,1,0,1]","door_history":"[0,1,0,1]","location_rts":"[1111,326,412,499]","trial_type":"two-door-navigation","trial_index":47,"time_elapsed":755416,"internal_node_id":"0.0-2.0-45.0"},{"group":"hexagon_bi","room_assignment":["yellow","purple","green","grey","blue","red"],"door_color_assignment":["black","white"],"door_generator_assignment":[0,1],"goal":4,"start":2,"action_noise":0,"location_history":"[2,1,0,5,4]","action_history":"[0,1,0,1]","door_history":"[0,1,0,1]","location_rts":"[952,748,371,383]","trial_type":"two-door-navigation","trial_index":48,"time_elapsed":765972,"internal_node_id":"0.0-2.0-46.0"},{"group":"hexagon_bi","room_assignment":["yellow","purple","green","grey","blue","red"],"door_color_assignment":["black","white"],"door_generator_assignment":[0,1],"goal":1,"start":4,"action_noise":0,"location_history":"[4,5,0,1]","action_history":"[1,0,1]","door_history":"[1,0,1]","location_rts":"[776,315,405]","trial_type":"two-door-navigation","trial_index":49,"time_elapsed":774532,"internal_node_id":"0.0-2.0-47.0"},{"group":"hexagon_bi","room_assignment":["yellow","purple","green","grey","blue","red"],"door_color_assignment":["black","white"],"door_generator_assignment":[0,1],"goal":5,"start":1,"action_noise":0,"location_history":"[1,2,3,4,5]","action_history":"[0,1,0,1]","door_history":"[0,1,0,1]","location_rts":"[1329,2438,1295,1617]","trial_type":"two-door-navigation","trial_index":50,"time_elapsed":789303,"internal_node_id":"0.0-2.0-48.0"},{"group":"hexagon_bi","room_assignment":["yellow","purple","green","grey","blue","red"],"door_color_assignment":["black","white"],"door_generator_assignment":[0,1],"goal":3,"start":5,"action_noise":0,"location_history":"[5,0,1,2,3]","action_history":"[0,1,0,1]","door_history":"[0,1,0,1]","location_rts":"[1262,143,463,459]","trial_type":"two-door-navigation","trial_index":51,"time_elapsed":799697,"internal_node_id":"0.0-2.0-49.0"},{"view_history":"[{\"page_index\":0,\"viewing_time\":2529}]","rt":2529,"trial_type":"instructions","trial_index":52,"time_elapsed":803228,"internal_node_id":"0.0-3.0"},{"view_history":"[{\"page_index\":0,\"viewing_time\":1547},{\"page_index\":1,\"viewing_time\":5302}]","rt":6849,"trial_type":"instructions","trial_index":53,"time_elapsed":811078,"internal_node_id":"0.0-4.0"},{"group":"hexagon_tri","fractal_assignment":["../images/pnk_blu.png","../images/gry_blk.png","../images/org_blu.png","../images/cyn_red.png","../images/ylw_slt.png","../images/blu_wht.png"],"mutagen_generator_assignment":[0,1],"goal":3,"start":5,"action_noise":0,"location_history":"[5,0,5,0,5,0,5,0,5,0,1,3]","action_history":"[1,0,1,0,1,0,1,0,1,1,0]","mutagen_history":"[1,0,1,0,1,0,1,0,1,1,0]","location_rts":"[5103,48,442,1010,455,741,856,717,749,518,289]","trial_type":"fractal-mutation","trial_index":54,"time_elapsed":837495,"internal_node_id":"0.0-5.0-0.0"},{"group":"hexagon_tri","fractal_assignment":["../images/pnk_blu.png","../images/gry_blk.png","../images/org_blu.png","../images/cyn_red.png","../images/ylw_slt.png","../images/blu_wht.png"],"mutagen_generator_assignment":[0,1],"goal":1,"start":3,"action_noise":0,"location_history":"[3,4,0,1]","action_history":"[1,0,1]","mutagen_history":"[1,0,1]","location_rts":"[392,750,345]","trial_type":"fractal-mutation","trial_index":55,"time_elapsed":846118,"internal_node_id":"0.0-5.0-1.0"},{"group":"hexagon_tri","fractal_assignment":["../images/pnk_blu.png","../images/gry_blk.png","../images/org_blu.png","../images/cyn_red.png","../images/ylw_slt.png","../images/blu_wht.png"],"mutagen_generator_assignment":[0,1],"goal":0,"start":1,"action_noise":0,"location_history":"[1,3,4,0]","action_history":"[0,1,0]","mutagen_history":"[0,1,0]","location_rts":"[574,485,472]","trial_type":"fractal-mutation","trial_index":56,"time_elapsed":854783,"internal_node_id":"0.0-5.0-2.0"},{"group":"hexagon_tri","fractal_assignment":["../images/pnk_blu.png","../images/gry_blk.png","../images/org_blu.png","../images/cyn_red.png","../images/ylw_slt.png","../images/blu_wht.png"],"mutagen_generator_assignment":[0,1],"goal":3,"start":0,"action_noise":0,"location_history":"[0,1,3]","action_history":"[1,0]","mutagen_history":"[1,0]","location_rts":"[620,561]","trial_type":"fractal-mutation","trial_index":57,"time_elapsed":862047,"internal_node_id":"0.0-5.0-3.0"},{"group":"hexagon_tri","fractal_assignment":["../images/pnk_blu.png","../images/gry_blk.png","../images/org_blu.png","../images/cyn_red.png","../images/ylw_slt.png","../images/blu_wht.png"],"mutagen_generator_assignment":[0,1],"goal":4,"start":3,"action_noise":0,"location_history":"[3,2,3,4]","action_history":"[0,1,1]","mutagen_history":"[0,1,1]","location_rts":"[4950,369,621]","trial_type":"fractal-mutation","trial_index":58,"time_elapsed":875127,"internal_node_id":"0.0-5.0-4.0"},{"group":"hexagon_tri","fractal_assignment":["../images/pnk_blu.png","../images/gry_blk.png","../images/org_blu.png","../images/cyn_red.png","../images/ylw_slt.png","../images/blu_wht.png"],"mutagen_generator_assignment":[0,1],"goal":2,"start":4,"action_noise":0,"location_history":"[4,2]","action_history":"[1]","mutagen_history":"[1]","location_rts":"[533]","trial_type":"fractal-mutation","trial_index":59,"time_elapsed":880719,"internal_node_id":"0.0-5.0-5.0"},{"group":"hexagon_tri","fractal_assignment":["../images/pnk_blu.png","../images/gry_blk.png","../images/org_blu.png","../images/cyn_red.png","../images/ylw_slt.png","../images/blu_wht.png"],"mutagen_generator_assignment":[0,1],"goal":1,"start":2,"action_noise":0,"location_history":"[2,1]","action_history":"[0]","mutagen_history":"[0]","location_rts":"[455]","trial_type":"fractal-mutation","trial_index":60,"time_elapsed":886212,"internal_node_id":"0.0-5.0-6.0"},{"group":"hexagon_tri","fractal_assignment":["../images/pnk_blu.png","../images/gry_blk.png","../images/org_blu.png","../images/cyn_red.png","../images/ylw_slt.png","../images/blu_wht.png"],"mutagen_generator_assignment":[0,1],"goal":5,"start":1,"action_noise":0,"location_history":"[1,5]","action_history":"[1]","mutagen_history":"[1]","location_rts":"[448]","trial_type":"fractal-mutation","trial_index":61,"time_elapsed":891706,"internal_node_id":"0.0-5.0-7.0"},{"group":"hexagon_tri","fractal_assignment":["../images/pnk_blu.png","../images/gry_blk.png","../images/org_blu.png","../images/cyn_red.png","../images/ylw_slt.png","../images/blu_wht.png"],"mutagen_generator_assignment":[0,1],"goal":4,"start":5,"action_noise":0,"location_history":"[5,4]","action_history":"[0]","mutagen_history":"[0]","location_rts":"[750]","trial_type":"fractal-mutation","trial_index":62,"time_elapsed":897508,"internal_node_id":"0.0-5.0-8.0"},{"group":"hexagon_tri","fractal_assignment":["../images/pnk_blu.png","../images/gry_blk.png","../images/org_blu.png","../images/cyn_red.png","../images/ylw_slt.png","../images/blu_wht.png"],"mutagen_generator_assignment":[0,1],"goal":2,"start":4,"action_noise":0,"location_history":"[4,0,1,3,2]","action_history":"[0,1,0,0]","mutagen_history":"[0,1,0,0]","location_rts":"[785,847,790,478]","trial_type":"fractal-mutation","trial_index":63,"time_elapsed":908578,"internal_node_id":"0.0-5.0-9.0"},{"group":"hexagon_tri","fractal_assignment":["../images/pnk_blu.png","../images/gry_blk.png","../images/org_blu.png","../images/cyn_red.png","../images/ylw_slt.png","../images/blu_wht.png"],"mutagen_generator_assignment":[0,1],"goal":0,"start":2,"action_noise":0,"location_history":"[2,3,4,0]","action_history":"[1,1,0]","mutagen_history":"[1,1,0]","location_rts":"[8113,461,372]","trial_type":"fractal-mutation","trial_index":64,"time_elapsed":924656,"internal_node_id":"0.0-5.0-10.0"},{"group":"hexagon_tri","fractal_assignment":["../images/pnk_blu.png","../images/gry_blk.png","../images/org_blu.png","../images/cyn_red.png","../images/ylw_slt.png","../images/blu_wht.png"],"mutagen_generator_assignment":[0,1],"goal":1,"start":0,"action_noise":0,"location_history":"[0,1]","action_history":"[1]","mutagen_history":"[1]","location_rts":"[482]","trial_type":"fractal-mutation","trial_index":65,"time_elapsed":930181,"internal_node_id":"0.0-5.0-11.0"},{"group":"hexagon_tri","fractal_assignment":["../images/pnk_blu.png","../images/gry_blk.png","../images/org_blu.png","../images/cyn_red.png","../images/ylw_slt.png","../images/blu_wht.png"],"mutagen_generator_assignment":[0,1],"goal":3,"start":1,"action_noise":0,"location_history":"[1,3]","action_history":"[0]","mutagen_history":"[0]","location_rts":"[1056]","trial_type":"fractal-mutation","trial_index":66,"time_elapsed":936285,"internal_node_id":"0.0-5.0-12.0"},{"group":"hexagon_tri","fractal_assignment":["../images/pnk_blu.png","../images/gry_blk.png","../images/org_blu.png","../images/cyn_red.png","../images/ylw_slt.png","../images/blu_wht.png"],"mutagen_generator_assignment":[0,1],"goal":5,"start":3,"action_noise":0,"location_history":"[3,2,3,2,3,2,1,5]","action_history":"[0,1,0,1,0,0,1]","mutagen_history":"[0,1,0,1,0,0,1]","location_rts":"[437,590,423,465,205,540,619]","trial_type":"fractal-mutation","trial_index":67,"time_elapsed":950861,"internal_node_id":"0.0-5.0-13.0"},{"group":"hexagon_tri","fractal_assignment":["../images/pnk_blu.png","../images/gry_blk.png","../images/org_blu.png","../images/cyn_red.png","../images/ylw_slt.png","../images/blu_wht.png"],"mutagen_generator_assignment":[0,1],"goal":4,"start":5,"action_noise":0,"location_history":"[5,4]","action_history":"[0]","mutagen_history":"[0]","location_rts":"[678]","trial_type":"fractal-mutation","trial_index":68,"time_elapsed":956583,"internal_node_id":"0.0-5.0-14.0"},{"group":"hexagon_tri","fractal_assignment":["../images/pnk_blu.png","../images/gry_blk.png","../images/org_blu.png","../images/cyn_red.png","../images/ylw_slt.png","../images/blu_wht.png"],"mutagen_generator_assignment":[0,1],"goal":0,"start":4,"action_noise":0,"location_history":"[4,2,1,5,0]","action_history":"[1,0,1,1]","mutagen_history":"[1,0,1,1]","location_rts":"[653,664,451,909]","trial_type":"fractal-mutation","trial_index":69,"time_elapsed":967431,"internal_node_id":"0.0-5.0-15.0"},{"group":"hexagon_tri","fractal_assignment":["../images/pnk_blu.png","../images/gry_blk.png","../images/org_blu.png","../images/cyn_red.png","../images/ylw_slt.png","../images/blu_wht.png"],"mutagen_generator_assignment":[0,1],"goal":3,"start":0,"action_noise":0,"location_history":"[0,5,0,5,0,1,3]","action_history":"[0,1,0,1,1,0]","mutagen_history":"[0,1,0,1,1,0]","location_rts":"[355,401,996,677,664,403]","trial_type":"fractal-mutation","trial_index":70,"time_elapsed":981201,"internal_node_id":"0.0-5.0-16.0"},{"group":"hexagon_tri","fractal_assignment":["../images/pnk_blu.png","../images/gry_blk.png","../images/org_blu.png","../images/cyn_red.png","../images/ylw_slt.png","../images/blu_wht.png"],"mutagen_generator_assignment":[0,1],"goal":1,"start":3,"action_noise":0,"location_history":"[3,4,0,1]","action_history":"[1,0,1]","mutagen_history":"[1,0,1]","location_rts":"[705,690,416]","trial_type":"fractal-mutation","trial_index":71,"time_elapsed":990163,"internal_node_id":"0.0-5.0-17.0"},{"group":"hexagon_tri","fractal_assignment":["../images/pnk_blu.png","../images/gry_blk.png","../images/org_blu.png","../images/cyn_red.png","../images/ylw_slt.png","../images/blu_wht.png"],"mutagen_generator_assignment":[0,1],"goal":5,"start":1,"action_noise":0,"location_history":"[1,3,4,0,1,3,2,3,4,2,1,5]","action_history":"[0,1,0,1,0,0,1,1,1,0,1]","mutagen_history":"[0,1,0,1,0,0,1,1,1,0,1]","location_rts":"[664,523,438,598,837,916,480,423,717,87,464]","trial_type":"fractal-mutation","trial_index":72,"time_elapsed":1011658,"internal_node_id":"0.0-5.0-18.0"},{"group":"hexagon_tri","fractal_assignment":["../images/pnk_blu.png","../images/gry_blk.png","../images/org_blu.png","../images/cyn_red.png","../images/ylw_slt.png","../images/blu_wht.png"],"mutagen_generator_assignment":[0,1],"goal":2,"start":5,"action_noise":0,"location_history":"[5,0,5,4,2]","action_history":"[1,0,0,1]","mutagen_history":"[1,0,0,1]","location_rts":"[232,193,584,369]","trial_type":"fractal-mutation","trial_index":73,"time_elapsed":1021213,"internal_node_id":"0.0-5.0-19.0"},{"group":"hexagon_tri","fractal_assignment":["../images/pnk_blu.png","../images/gry_blk.png","../images/org_blu.png","../images/cyn_red.png","../images/ylw_slt.png","../images/blu_wht.png"],"mutagen_generator_assignment":[0,1],"goal":4,"start":2,"action_noise":0,"location_history":"[2,3,2,3,2,1,5,0,5,4]","action_history":"[1,0,1,0,0,1,1,0,0]","mutagen_history":"[1,0,1,0,0,1,1,0,0]","location_rts":"[656,576,526,1594,289,499,435,655,370]","trial_type":"fractal-mutation","trial_index":74,"time_elapsed":1040170,"internal_node_id":"0.0-5.0-20.0"},{"group":"hexagon_tri","fractal_assignment":["../images/pnk_blu.png","../images/gry_blk.png","../images/org_blu.png","../images/cyn_red.png","../images/ylw_slt.png","../images/blu_wht.png"],"mutagen_generator_assignment":[0,1],"goal":1,"start":4,"action_noise":0,"location_history":"[4,2,1]","action_history":"[1,0]","mutagen_history":"[1,0]","location_rts":"[568,471]","trial_type":"fractal-mutation","trial_index":75,"time_elapsed":1047293,"internal_node_id":"0.0-5.0-21.0"},{"group":"hexagon_tri","fractal_assignment":["../images/pnk_blu.png","../images/gry_blk.png","../images/org_blu.png","../images/cyn_red.png","../images/ylw_slt.png","../images/blu_wht.png"],"mutagen_generator_assignment":[0,1],"goal":3,"start":1,"action_noise":0,"location_history":"[1,5,4,2,1,5,4,0,1,5,4,2,1,5,4,2,3]","action_history":"[1,0,1,0,1,0,0,1,1,0,1,0,1,0,1,1]","mutagen_history":"[1,0,1,0,1,0,0,1,1,0,1,0,1,0,1,1]","location_rts":"[334,443,420,599,434,492,630,657,469,230,451,605,494,569,719,532]","trial_type":"fractal-mutation","trial_index":76,"time_elapsed":1075952,"internal_node_id":"0.0-5.0-22.0"},{"group":"hexagon_tri","fractal_assignment":["../images/pnk_blu.png","../images/gry_blk.png","../images/org_blu.png","../images/cyn_red.png","../images/ylw_slt.png","../images/blu_wht.png"],"mutagen_generator_assignment":[0,1],"goal":2,"start":3,"action_noise":0,"location_history":"[3,4,0,1,3,4,2]","action_history":"[1,0,1,0,1,1]","mutagen_history":"[1,0,1,0,1,1]","location_rts":"[547,410,452,380,503,622]","trial_type":"fractal-mutation","trial_index":77,"time_elapsed":1089063,"internal_node_id":"0.0-5.0-23.0"},{"group":"hexagon_tri","fractal_assignment":["../images/pnk_blu.png","../images/gry_blk.png","../images/org_blu.png","../images/cyn_red.png","../images/ylw_slt.png","../images/blu_wht.png"],"mutagen_generator_assignment":[0,1],"goal":0,"start":2,"action_noise":0,"location_history":"[2,1,5,4,0]","action_history":"[0,1,0,0]","mutagen_history":"[0,1,0,0]","location_rts":"[1228,346,822,589]","trial_type":"fractal-mutation","trial_index":78,"time_elapsed":1100159,"internal_node_id":"0.0-5.0-24.0"},{"group":"hexagon_tri","fractal_assignment":["../images/pnk_blu.png","../images/gry_blk.png","../images/org_blu.png","../images/cyn_red.png","../images/ylw_slt.png","../images/blu_wht.png"],"mutagen_generator_assignment":[0,1],"goal":5,"start":0,"action_noise":0,"location_history":"[0,1,3,4,2,1,5]","action_history":"[1,0,1,1,0,1]","mutagen_history":"[1,0,1,1,0,1]","location_rts":"[5817,356,422,462,397,275]","trial_type":"fractal-mutation","trial_index":79,"time_elapsed":1118170,"internal_node_id":"0.0-5.0-25.0"},{"group":"hexagon_tri","fractal_assignment":["../images/pnk_blu.png","../images/gry_blk.png","../images/org_blu.png","../images/cyn_red.png","../images/ylw_slt.png","../images/blu_wht.png"],"mutagen_generator_assignment":[0,1],"goal":2,"start":5,"action_noise":0,"location_history":"[5,4,2]","action_history":"[0,1]","mutagen_history":"[0,1]","location_rts":"[1027,737]","trial_type":"fractal-mutation","trial_index":80,"time_elapsed":1126026,"internal_node_id":"0.0-5.0-26.0"},{"group":"hexagon_tri","fractal_assignment":["../images/pnk_blu.png","../images/gry_blk.png","../images/org_blu.png","../images/cyn_red.png","../images/ylw_slt.png","../images/blu_wht.png"],"mutagen_generator_assignment":[0,1],"goal":3,"start":2,"action_noise":0,"location_history":"[2,1,5,0,5,0,5,0,5,0,1,3]","action_history":"[0,1,1,0,1,0,1,0,1,1,0]","mutagen_history":"[0,1,1,0,1,0,1,0,1,1,0]","location_rts":"[1025,432,586,341,362,1100,497,6962,625,556,438]","trial_type":"fractal-mutation","trial_index":81,"time_elapsed":1154399,"internal_node_id":"0.0-5.0-27.0"},{"group":"hexagon_tri","fractal_assignment":["../images/pnk_blu.png","../images/gry_blk.png","../images/org_blu.png","../images/cyn_red.png","../images/ylw_slt.png","../images/blu_wht.png"],"mutagen_generator_assignment":[0,1],"goal":0,"start":3,"action_noise":0,"location_history":"[3,4,0]","action_history":"[1,0]","mutagen_history":"[1,0]","location_rts":"[308,452]","trial_type":"fractal-mutation","trial_index":82,"time_elapsed":1161241,"internal_node_id":"0.0-5.0-28.0"},{"group":"hexagon_tri","fractal_assignment":["../images/pnk_blu.png","../images/gry_blk.png","../images/org_blu.png","../images/cyn_red.png","../images/ylw_slt.png","../images/blu_wht.png"],"mutagen_generator_assignment":[0,1],"goal":1,"start":0,"action_noise":0,"location_history":"[0,1]","action_history":"[1]","mutagen_history":"[1]","location_rts":"[634]","trial_type":"fractal-mutation","trial_index":83,"time_elapsed":1166925,"internal_node_id":"0.0-5.0-29.0"},{"group":"hexagon_tri","fractal_assignment":["../images/pnk_blu.png","../images/gry_blk.png","../images/org_blu.png","../images/cyn_red.png","../images/ylw_slt.png","../images/blu_wht.png"],"mutagen_generator_assignment":[0,1],"goal":4,"start":1,"action_noise":0,"location_history":"[1,3,2,3,2,3,2,1,5,4]","action_history":"[0,0,1,0,1,0,0,1,0]","mutagen_history":"[0,0,1,0,1,0,0,1,0]","location_rts":"[1484,5774,656,431,389,583,415,412,925]","trial_type":"fractal-mutation","trial_index":84,"time_elapsed":1191318,"internal_node_id":"0.0-5.0-30.0"},{"group":"hexagon_tri","fractal_assignment":["../images/pnk_blu.png","../images/gry_blk.png","../images/org_blu.png","../images/cyn_red.png","../images/ylw_slt.png","../images/blu_wht.png"],"mutagen_generator_assignment":[0,1],"goal":5,"start":4,"action_noise":0,"location_history":"[4,0,1,5]","action_history":"[0,1,1]","mutagen_history":"[0,1,1]","location_rts":"[6125,431,535]","trial_type":"fractal-mutation","trial_index":85,"time_elapsed":1205524,"internal_node_id":"0.0-5.0-31.0"},{"group":"hexagon_tri","fractal_assignment":["../images/pnk_blu.png","../images/gry_blk.png","../images/org_blu.png","../images/cyn_red.png","../images/ylw_slt.png","../images/blu_wht.png"],"mutagen_generator_assignment":[0,1],"goal":0,"start":5,"action_noise":0,"location_history":"[5,4,2,1,3,4,0]","action_history":"[0,1,0,0,1,0]","mutagen_history":"[0,1,0,0,1,0]","location_rts":"[107721,278,395,455,397,386]","trial_type":"fractal-mutation","trial_index":86,"time_elapsed":1325397,"internal_node_id":"0.0-5.0-32.0"},{"group":"hexagon_tri","fractal_assignment":["../images/pnk_blu.png","../images/gry_blk.png","../images/org_blu.png","../images/cyn_red.png","../images/ylw_slt.png","../images/blu_wht.png"],"mutagen_generator_assignment":[0,1],"goal":3,"start":0,"action_noise":0,"location_history":"[0,5,0,1,3]","action_history":"[0,1,1,0]","mutagen_history":"[0,1,1,0]","location_rts":"[727,234,409,396]","trial_type":"fractal-mutation","trial_index":87,"time_elapsed":1335315,"internal_node_id":"0.0-5.0-33.0"},{"group":"hexagon_tri","fractal_assignment":["../images/pnk_blu.png","../images/gry_blk.png","../images/org_blu.png","../images/cyn_red.png","../images/ylw_slt.png","../images/blu_wht.png"],"mutagen_generator_assignment":[0,1],"goal":1,"start":3,"action_noise":0,"location_history":"[3,2,3,2,3,2,3,2,3,2,3,4,0,1]","action_history":"[0,1,0,1,0,1,0,1,0,1,1,0,1]","mutagen_history":"[0,1,0,1,0,1,0,1,0,1,1,0,1]","location_rts":"[400,121,783,500,502,512,579,567,9929,359,431,310,397]","trial_type":"fractal-mutation","trial_index":88,"time_elapsed":1368195,"internal_node_id":"0.0-5.0-34.0"},{"group":"hexagon_tri","fractal_assignment":["../images/pnk_blu.png","../images/gry_blk.png","../images/org_blu.png","../images/cyn_red.png","../images/ylw_slt.png","../images/blu_wht.png"],"mutagen_generator_assignment":[0,1],"goal":2,"start":1,"action_noise":0,"location_history":"[1,3,4,0,1,3,4,2]","action_history":"[0,1,0,1,0,1,1]","mutagen_history":"[0,1,0,1,0,1,1]","location_rts":"[840,557,499,516,1205,582,369]","trial_type":"fractal-mutation","trial_index":89,"time_elapsed":1383987,"internal_node_id":"0.0-5.0-35.0"},{"group":"hexagon_tri","fractal_assignment":["../images/pnk_blu.png","../images/gry_blk.png","../images/org_blu.png","../images/cyn_red.png","../images/ylw_slt.png","../images/blu_wht.png"],"mutagen_generator_assignment":[0,1],"goal":4,"start":2,"action_noise":0,"location_history":"[2,1,5,4]","action_history":"[0,1,0]","mutagen_history":"[0,1,0]","location_rts":"[320,215,437]","trial_type":"fractal-mutation","trial_index":90,"time_elapsed":1392060,"internal_node_id":"0.0-5.0-36.0"},{"group":"hexagon_tri","fractal_assignment":["../images/pnk_blu.png","../images/gry_blk.png","../images/org_blu.png","../images/cyn_red.png","../images/ylw_slt.png","../images/blu_wht.png"],"mutagen_generator_assignment":[0,1],"goal":5,"start":4,"action_noise":0,"location_history":"[4,0,1,5]","action_history":"[0,1,1]","mutagen_history":"[0,1,1]","location_rts":"[3631,200,888]","trial_type":"fractal-mutation","trial_index":91,"time_elapsed":1403890,"internal_node_id":"0.0-5.0-37.0"},{"group":"hexagon_tri","fractal_assignment":["../images/pnk_blu.png","../images/gry_blk.png","../images/org_blu.png","../images/cyn_red.png","../images/ylw_slt.png","../images/blu_wht.png"],"mutagen_generator_assignment":[0,1],"goal":1,"start":5,"action_noise":0,"location_history":"[5,4,2,3,2,1]","action_history":"[0,1,1,0,0]","mutagen_history":"[0,1,1,0,0]","location_rts":"[490,655,651,650,773]","trial_type":"fractal-mutation","trial_index":92,"time_elapsed":1416302,"internal_node_id":"0.0-5.0-38.0"},{"group":"hexagon_tri","fractal_assignment":["../images/pnk_blu.png","../images/gry_blk.png","../images/org_blu.png","../images/cyn_red.png","../images/ylw_slt.png","../images/blu_wht.png"],"mutagen_generator_assignment":[0,1],"goal":4,"start":1,"action_noise":0,"location_history":"[1,5,4]","action_history":"[1,0]","mutagen_history":"[1,0]","location_rts":"[497,258]","trial_type":"fractal-mutation","trial_index":93,"time_elapsed":1423129,"internal_node_id":"0.0-5.0-39.0"},{"group":"hexagon_tri","fractal_assignment":["../images/pnk_blu.png","../images/gry_blk.png","../images/org_blu.png","../images/cyn_red.png","../images/ylw_slt.png","../images/blu_wht.png"],"mutagen_generator_assignment":[0,1],"goal":3,"start":4,"action_noise":0,"location_history":"[4,0,1,3]","action_history":"[0,1,0]","mutagen_history":"[0,1,0]","location_rts":"[370,487,423]","trial_type":"fractal-mutation","trial_index":94,"time_elapsed":1431528,"internal_node_id":"0.0-5.0-40.0"},{"group":"hexagon_tri","fractal_assignment":["../images/pnk_blu.png","../images/gry_blk.png","../images/org_blu.png","../images/cyn_red.png","../images/ylw_slt.png","../images/blu_wht.png"],"mutagen_generator_assignment":[0,1],"goal":2,"start":3,"action_noise":0,"location_history":"[3,2]","action_history":"[0]","mutagen_history":"[0]","location_rts":"[609]","trial_type":"fractal-mutation","trial_index":95,"time_elapsed":1437178,"internal_node_id":"0.0-5.0-41.0"},{"group":"hexagon_tri","fractal_assignment":["../images/pnk_blu.png","../images/gry_blk.png","../images/org_blu.png","../images/cyn_red.png","../images/ylw_slt.png","../images/blu_wht.png"],"mutagen_generator_assignment":[0,1],"goal":0,"start":2,"action_noise":0,"location_history":"[2,3,2,3,4,0]","action_history":"[1,0,1,1,0]","mutagen_history":"[1,0,1,1,0]","location_rts":"[714,822,455,491,478]","trial_type":"fractal-mutation","trial_index":96,"time_elapsed":1449338,"internal_node_id":"0.0-5.0-42.0"},{"group":"hexagon_tri","fractal_assignment":["../images/pnk_blu.png","../images/gry_blk.png","../images/org_blu.png","../images/cyn_red.png","../images/ylw_slt.png","../images/blu_wht.png"],"mutagen_generator_assignment":[0,1],"goal":5,"start":0,"action_noise":0,"location_history":"[0,5]","action_history":"[0]","mutagen_history":"[0]","location_rts":"[465]","trial_type":"fractal-mutation","trial_index":97,"time_elapsed":1454848,"internal_node_id":"0.0-5.0-43.0"},{"group":"hexagon_tri","fractal_assignment":["../images/pnk_blu.png","../images/gry_blk.png","../images/org_blu.png","../images/cyn_red.png","../images/ylw_slt.png","../images/blu_wht.png"],"mutagen_generator_assignment":[0,1],"goal":0,"start":5,"action_noise":0,"location_history":"[5,4,2,1,5,4,0]","action_history":"[0,1,0,1,0,0]","mutagen_history":"[0,1,0,1,0,0]","location_rts":"[357,456,460,530,378,643]","trial_type":"fractal-mutation","trial_index":98,"time_elapsed":1467885,"internal_node_id":"0.0-5.0-44.0"},{"group":"hexagon_tri","fractal_assignment":["../images/pnk_blu.png","../images/gry_blk.png","../images/org_blu.png","../images/cyn_red.png","../images/ylw_slt.png","../images/blu_wht.png"],"mutagen_generator_assignment":[0,1],"goal":2,"start":0,"action_noise":0,"location_history":"[0,5,0,5,4,2]","action_history":"[0,1,0,0,1]","mutagen_history":"[0,1,0,0,1]","location_rts":"[1411,320,700,460,366]","trial_type":"fractal-mutation","trial_index":99,"time_elapsed":1480355,"internal_node_id":"0.0-5.0-45.0"},{"group":"hexagon_tri","fractal_assignment":["../images/pnk_blu.png","../images/gry_blk.png","../images/org_blu.png","../images/cyn_red.png","../images/ylw_slt.png","../images/blu_wht.png"],"mutagen_generator_assignment":[0,1],"goal":4,"start":2,"action_noise":0,"location_history":"[2,1,5,0,5,0,1,3,2,3,4]","action_history":"[0,1,1,0,1,1,0,0,1,1]","mutagen_history":"[0,1,1,0,1,1,0,0,1,1]","location_rts":"[731,576,813,435,774,800,3271,532,710,3244]","trial_type":"fractal-mutation","trial_index":100,"time_elapsed":1506666,"internal_node_id":"0.0-5.0-46.0"},{"group":"hexagon_tri","fractal_assignment":["../images/pnk_blu.png","../images/gry_blk.png","../images/org_blu.png","../images/cyn_red.png","../images/ylw_slt.png","../images/blu_wht.png"],"mutagen_generator_assignment":[0,1],"goal":1,"start":4,"action_noise":0,"location_history":"[4,2,3,2,3,2,1]","action_history":"[1,1,0,1,0,0]","mutagen_history":"[1,1,0,1,0,0]","location_rts":"[954,689,356,446,339,453]","trial_type":"fractal-mutation","trial_index":101,"time_elapsed":1520136,"internal_node_id":"0.0-5.0-47.0"},{"group":"hexagon_tri","fractal_assignment":["../images/pnk_blu.png","../images/gry_blk.png","../images/org_blu.png","../images/cyn_red.png","../images/ylw_slt.png","../images/blu_wht.png"],"mutagen_generator_assignment":[0,1],"goal":5,"start":1,"action_noise":0,"location_history":"[1,5]","action_history":"[1]","mutagen_history":"[1]","location_rts":"[571]","trial_type":"fractal-mutation","trial_index":102,"time_elapsed":1525750,"internal_node_id":"0.0-5.0-48.0"},{"group":"hexagon_tri","fractal_assignment":["../images/pnk_blu.png","../images/gry_blk.png","../images/org_blu.png","../images/cyn_red.png","../images/ylw_slt.png","../images/blu_wht.png"],"mutagen_generator_assignment":[0,1],"goal":3,"start":5,"action_noise":0,"location_history":"[5,0,5,4,0,1,3]","action_history":"[1,0,0,0,1,0]","mutagen_history":"[1,0,0,0,1,0]","location_rts":"[367,495,560,1044,702,566]","trial_type":"fractal-mutation","trial_index":103,"time_elapsed":1539709,"internal_node_id":"0.0-5.0-49.0"},{"view_history":"[{\"page_index\":0,\"viewing_time\":5224}]","rt":5224,"trial_type":"instructions","trial_index":104,"time_elapsed":1545934,"internal_node_id":"0.0-6.0"},{"rt":1829,"responses":"{\"Q0\":\"\"}","trial_type":"survey-text","trial_index":105,"time_elapsed":1548768,"internal_node_id":"0.0-7.0"}]