[{"view_history":"[{\"page_index\":0,\"viewing_time\":144993},{\"page_index\":1,\"viewing_time\":2539}]","rt":147533,"trial_type":"instructions","trial_index":0,"time_elapsed":147536,"internal_node_id":"0.0-0.0"},{"view_history":"[{\"page_index\":0,\"viewing_time\":6971},{\"page_index\":1,\"viewing_time\":3472}]","rt":10444,"trial_type":"instructions","trial_index":1,"time_elapsed":158986,"internal_node_id":"0.0-1.0"},{"group":"hexagon_tri","room_assignment":["grey","yellow","blue","green","red","purple"],"door_color_assignment":["black","white"],"door_generator_assignment":[1,0],"goal":3,"start":5,"action_noise":0,"location_history":"[5,0,5,4,0,1,5,0,5,0,1,5,0,5,4,2,3]","action_history":"[1,0,0,0,1,1,1,0,1,1,1,1,0,0,1,1]","door_history":"[0,1,1,1,0,0,0,1,0,0,0,0,1,1,0,0]","location_rts":"[3537,1206,543,537,667,397,369,1251,80870,780,473,537,587,1410,1052,1403]","trial_type":"two-door-navigation","trial_index":2,"time_elapsed":275340,"internal_node_id":"0.0-2.0-0.0"},{"group":"hexagon_tri","room_assignment":["grey","yellow","blue","green","red","purple"],"door_color_assignment":["black","white"],"door_generator_assignment":[1,0],"goal":1,"start":3,"action_noise":0,"location_history":"[3,4,0,1]","action_history":"[1,0,1]","door_history":"[0,1,0]","location_rts":"[28905,1131,731]","trial_type":"two-door-navigation","trial_index":3,"time_elapsed":313171,"internal_node_id":"0.0-2.0-1.0"},{"group":"hexagon_tri","room_assignment":["grey","yellow","blue","green","red","purple"],"door_color_assignment":["black","white"],"door_generator_assignment":[1,0],"goal":0,"start":1,"action_noise":0,"location_history":"[1,5,0]","action_history":"[1,1]","door_history":"[0,0]","location_rts":"[24846,2413]","trial_type":"two-door-navigation","trial_index":4,"time_elapsed":346475,"internal_node_id":"0.0-2.0-2.0"},{"group":"hexagon_tri","room_assignment":["grey","yellow","blue","green","red","purple"],"door_color_assignment":["black","white"],"door_generator_assignment":[1,0],"goal":3,"start":0,"action_noise":0,"location_history":"[0,1,5,0,5,4,2,3]","action_history":"[1,1,1,0,0,1,1]","door_history":"[0,0,0,1,1,0,0]","location_rts":"[80738,531,467,558,670,2511,465]","trial_type":"two-door-navigation","trial_index":5,"time_elapsed":443533,"internal_node_id":"0.0-2.0-3.0"},{"group":"hexagon_tri","room_assignment":["grey","yellow","blue","green","red","purple"],"door_color_assignment":["black","white"],"door_generator_assignment":[1,0],"goal":4,"start":3,"action_noise":0,"location_history":"[3,4]","action_history":"[1]","door_history":"[0]","location_rts":"[3677]","trial_type":"two-door-navigation","trial_index":6,"time_elapsed":452242,"internal_node_id":"0.0-2.0-4.0"},{"group":"hexagon_tri","room_assignment":["grey","yellow","blue","green","red","purple"],"door_color_assignment":["black","white"],"door_generator_assignment":[1,0],"goal":2,"start":4,"action_noise":0,"location_history":"[4,2]","action_history":"[1]","door_history":"[0]","location_rts":"[607074]","trial_type":"two-door-navigation","trial_index":7,"time_elapsed":1064338,"internal_node_id":"0.0-2.0-5.0"},{"group":"hexagon_tri","room_assignment":["grey","yellow","blue","green","red","purple"],"door_color_assignment":["black","white"],"door_generator_assignment":[1,0],"goal":1,"start":2,"action_noise":0,"location_history":"[2,3,2,1]","action_history":"[1,0,0]","door_history":"[0,1,1]","location_rts":"[1500,536,838]","trial_type":"two-door-navigation","trial_index":8,"time_elapsed":1074272,"internal_node_id":"0.0-2.0-6.0"},{"group":"hexagon_tri","room_assignment":["grey","yellow","blue","green","red","purple"],"door_color_assignment":["black","white"],"door_generator_assignment":[1,0],"goal":5,"start":1,"action_noise":0,"location_history":"[1,5]","action_history":"[1]","door_history":"[0]","location_rts":"[1256]","trial_type":"two-door-navigation","trial_index":9,"time_elapsed":1080556,"internal_node_id":"0.0-2.0-7.0"},{"group":"hexagon_tri","room_assignment":["grey","yellow","blue","green","red","purple"],"door_color_assignment":["black","white"],"door_generator_assignment":[1,0],"goal":4,"start":5,"action_noise":0,"location_history":"[5,0,5,0,1,5,4]","action_history":"[1,0,1,1,1,0]","door_history":"[0,1,0,0,0,1]","location_rts":"[65564,3069,5611,747,525,1076]","trial_type":"two-door-navigation","trial_index":10,"time_elapsed":1167326,"internal_node_id":"0.0-2.0-8.0"},{"group":"hexagon_tri","room_assignment":["grey","yellow","blue","green","red","purple"],"door_color_assignment":["black","white"],"door_generator_assignment":[1,0],"goal":2,"start":4,"action_noise":0,"location_history":"[4,2]","action_history":"[1]","door_history":"[0]","location_rts":"[76906]","trial_type":"two-door-navigation","trial_index":11,"time_elapsed":1249257,"internal_node_id":"0.0-2.0-9.0"},{"group":"hexagon_tri","room_assignment":["grey","yellow","blue","green","red","purple"],"door_color_assignment":["black","white"],"door_generator_assignment":[1,0],"goal":0,"start":2,"action_noise":0,"location_history":"[2,1,3,2,3,4,2,3,2,3,4,0]","action_history":"[0,0,0,1,1,1,1,0,1,1,0]","door_history":"[1,1,1,0,0,0,0,1,0,0,1]","location_rts":"[3769,1291,742,704,1982,886,1444,1461,21632,851,1525]","trial_type":"two-door-navigation","trial_index":12,"time_elapsed":1300940,"internal_node_id":"0.0-2.0-10.0"},{"group":"hexagon_tri","room_assignment":["grey","yellow","blue","green","red","purple"],"door_color_assignment":["black","white"],"door_generator_assignment":[1,0],"goal":1,"start":0,"action_noise":0,"location_history":"[0,1]","action_history":"[1]","door_history":"[0]","location_rts":"[6155]","trial_type":"two-door-navigation","trial_index":13,"time_elapsed":1312122,"internal_node_id":"0.0-2.0-11.0"},{"group":"hexagon_tri","room_assignment":["grey","yellow","blue","green","red","purple"],"door_color_assignment":["black","white"],"door_generator_assignment":[1,0],"goal":3,"start":1,"action_noise":0,"location_history":"[1,3]","action_history":"[0]","door_history":"[1]","location_rts":"[5819]","trial_type":"two-door-navigation","trial_index":14,"time_elapsed":1323198,"internal_node_id":"0.0-2.0-12.0"},{"group":"hexagon_tri","room_assignment":["grey","yellow","blue","green","red","purple"],"door_color_assignment":["black","white"],"door_generator_assignment":[1,0],"goal":5,"start":3,"action_noise":0,"location_history":"[3,4,2,3,2,1,3,2,3,4,0,5]","action_history":"[1,1,1,0,0,0,0,1,1,0,0]","door_history":"[0,0,0,1,1,1,1,0,0,1,1]","location_rts":"[5550,1018,3143,984,5991,1382,924,1207,739,1239,647]","trial_type":"two-door-navigation","trial_index":15,"time_elapsed":1361542,"internal_node_id":"0.0-2.0-13.0"},{"group":"hexagon_tri","room_assignment":["grey","yellow","blue","green","red","purple"],"door_color_assignment":["black","white"],"door_generator_assignment":[1,0],"goal":4,"start":5,"action_noise":0,"location_history":"[5,0,5,0,5,4]","action_history":"[1,0,1,0,0]","door_history":"[0,1,0,1,1]","location_rts":"[5163,1700,1609,1131,476]","trial_type":"two-door-navigation","trial_index":16,"time_elapsed":1381202,"internal_node_id":"0.0-2.0-14.0"},{"group":"hexagon_tri","room_assignment":["grey","yellow","blue","green","red","purple"],"door_color_assignment":["black","white"],"door_generator_assignment":[1,0],"goal":0,"start":4,"action_noise":0,"location_history":"[4,2,3,2,1,3,2,3,4,2,3,2,1,3,4,2,1,3,2,3,4,2,1,3,2,1,3,4,2,1,3,4,2,1,3,2,1,5,0]","action_history":"[1,1,0,0,0,0,1,1,1,1,0,0,0,1,1,0,0,0,1,1,1,0,0,0,0,0,1,1,0,0,1,1,0,0,0,0,1,1]","door_history":"[0,0,1,1,1,1,0,0,0,0,1,1,1,0,0,1,1,1,0,0,0,1,1,1,1,1,0,0,1,1,0,0,1,1,1,1,0,0]","location_rts":"[3699,23890,746,419,2190,13342,346,569,787,559,679,402,441,1261,625,688,880,913,1899,1100,730,1381,417,396,269,421,925,443,1862,475,826,671,1080,980,877,1218,950,619]","trial_type":"two-door-navigation","trial_index":17,"time_elapsed":1494850,"internal_node_id":"0.0-2.0-15.0"},{"group":"hexagon_tri","room_assignment":["grey","yellow","blue","green","red","purple"],"door_color_assignment":["black","white"],"door_generator_assignment":[1,0],"goal":3,"start":0,"action_noise":0,"location_history":"[0,1,5,4,0,5,4,2,3]","action_history":"[1,1,0,0,0,0,1,1]","door_history":"[0,0,1,1,1,1,0,0]","location_rts":"[5954,2823,1629,2337,855,676,1256,666]","trial_type":"two-door-navigation","trial_index":18,"time_elapsed":1523635,"internal_node_id":"0.0-2.0-16.0"},{"group":"hexagon_tri","room_assignment":["grey","yellow","blue","green","red","purple"],"door_color_assignment":["black","white"],"door_generator_assignment":[1,0],"goal":1,"start":3,"action_noise":0,"location_history":"[3,4,2,1]","action_history":"[1,1,0]","door_history":"[0,0,1]","location_rts":"[6164,653,1226]","trial_type":"two-door-navigation","trial_index":19,"time_elapsed":1539260,"internal_node_id":"0.0-2.0-17.0"},{"group":"hexagon_tri","room_assignment":["grey","yellow","blue","green","red","purple"],"door_color_assignment":["black","white"],"door_generator_assignment":[1,0],"goal":5,"start":1,"action_noise":0,"location_history":"[1,5]","action_history":"[1]","door_history":"[0]","location_rts":"[8261]","trial_type":"two-door-navigation","trial_index":20,"time_elapsed":1552559,"internal_node_id":"0.0-2.0-18.0"},{"group":"hexagon_tri","room_assignment":["grey","yellow","blue","green","red","purple"],"door_color_assignment":["black","white"],"door_generator_assignment":[1,0],"goal":2,"start":5,"action_noise":0,"location_history":"[5,0,5,4,2]","action_history":"[1,0,0,1]","door_history":"[0,1,1,0]","location_rts":"[101898,1915,626,7826]","trial_type":"two-door-navigation","trial_index":21,"time_elapsed":1672910,"internal_node_id":"0.0-2.0-19.0"},{"group":"hexagon_tri","room_assignment":["grey","yellow","blue","green","red","purple"],"door_color_assignment":["black","white"],"door_generator_assignment":[1,0],"goal":4,"start":2,"action_noise":0,"location_history":"[2,3,2,1,5,0,5,4]","action_history":"[1,0,0,1,1,0,0]","door_history":"[0,1,1,0,0,1,1]","location_rts":"[26949,1315,1084,1480,588,1321,474]","trial_type":"two-door-navigation","trial_index":22,"time_elapsed":1717552,"internal_node_id":"0.0-2.0-20.0"},{"group":"hexagon_tri","room_assignment":["grey","yellow","blue","green","red","purple"],"door_color_assignment":["black","white"],"door_generator_assignment":[1,0],"goal":1,"start":4,"action_noise":0,"location_history":"[4,2,3,4,0,1]","action_history":"[1,1,1,0,1]","door_history":"[0,0,0,1,0]","location_rts":"[84941,1334,8792,1390,1160]","trial_type":"two-door-navigation","trial_index":23,"time_elapsed":1824271,"internal_node_id":"0.0-2.0-21.0"},{"group":"hexagon_tri","room_assignment":["grey","yellow","blue","green","red","purple"],"door_color_assignment":["black","white"],"door_generator_assignment":[1,0],"goal":3,"start":1,"action_noise":0,"location_history":"[1,5,0,5,4,0,1,5,0,1,3]","action_history":"[1,1,0,0,0,1,1,1,1,0]","door_history":"[0,0,1,1,1,0,0,0,0,1]","location_rts":"[4525,6035,1180,443,919,5826,711,4729,9087,1435]","trial_type":"two-door-navigation","trial_index":24,"time_elapsed":1873658,"internal_node_id":"0.0-2.0-22.0"},{"group":"hexagon_tri","room_assignment":["grey","yellow","blue","green","red","purple"],"door_color_assignment":["black","white"],"door_generator_assignment":[1,0],"goal":2,"start":3,"action_noise":0,"location_history":"[3,4,2]","action_history":"[1,1]","door_history":"[0,0]","location_rts":"[2239,815]","trial_type":"two-door-navigation","trial_index":25,"time_elapsed":1883020,"internal_node_id":"0.0-2.0-23.0"},{"group":"hexagon_tri","room_assignment":["grey","yellow","blue","green","red","purple"],"door_color_assignment":["black","white"],"door_generator_assignment":[1,0],"goal":0,"start":2,"action_noise":0,"location_history":"[2,3,2,1,5,0]","action_history":"[1,0,0,1,1]","door_history":"[0,1,1,0,0]","location_rts":"[39959,1842,555,5805,542]","trial_type":"two-door-navigation","trial_index":26,"time_elapsed":1940814,"internal_node_id":"0.0-2.0-24.0"},{"group":"hexagon_tri","room_assignment":["grey","yellow","blue","green","red","purple"],"door_color_assignment":["black","white"],"door_generator_assignment":[1,0],"goal":5,"start":0,"action_noise":0,"location_history":"[0,1,3,2,3,4,2,3,4,0,5]","action_history":"[1,0,0,1,1,1,1,1,0,0]","door_history":"[0,1,1,0,0,0,0,0,1,1]","location_rts":"[3624,944,623,4071,394,6804,595,686,1157,963]","trial_type":"two-door-navigation","trial_index":27,"time_elapsed":1975441,"internal_node_id":"0.0-2.0-25.0"},{"group":"hexagon_tri","room_assignment":["grey","yellow","blue","green","red","purple"],"door_color_assignment":["black","white"],"door_generator_assignment":[1,0],"goal":2,"start":5,"action_noise":0,"location_history":"[5,0,1,5,4,2]","action_history":"[1,1,1,0,1]","door_history":"[0,0,0,1,0]","location_rts":"[1476,488,441,1033,1068]","trial_type":"two-door-navigation","trial_index":28,"time_elapsed":1989023,"internal_node_id":"0.0-2.0-26.0"},{"group":"hexagon_tri","room_assignment":["grey","yellow","blue","green","red","purple"],"door_color_assignment":["black","white"],"door_generator_assignment":[1,0],"goal":3,"start":2,"action_noise":0,"location_history":"[2,3]","action_history":"[1]","door_history":"[0]","location_rts":"[41928]","trial_type":"two-door-navigation","trial_index":29,"time_elapsed":2036010,"internal_node_id":"0.0-2.0-27.0"},{"group":"hexagon_tri","room_assignment":["grey","yellow","blue","green","red","purple"],"door_color_assignment":["black","white"],"door_generator_assignment":[1,0],"goal":0,"start":3,"action_noise":0,"location_history":"[3,4,2,1,5,0]","action_history":"[1,1,0,1,1]","door_history":"[0,0,1,0,0]","location_rts":"[8286,6850,1431,1767,1564]","trial_type":"two-door-navigation","trial_index":30,"time_elapsed":2064981,"internal_node_id":"0.0-2.0-28.0"},{"group":"hexagon_tri","room_assignment":["grey","yellow","blue","green","red","purple"],"door_color_assignment":["black","white"],"door_generator_assignment":[1,0],"goal":1,"start":0,"action_noise":0,"location_history":"[0,1]","action_history":"[1]","door_history":"[0]","location_rts":"[2557]","trial_type":"two-door-navigation","trial_index":31,"time_elapsed":2072566,"internal_node_id":"0.0-2.0-29.0"},{"group":"hexagon_tri","room_assignment":["grey","yellow","blue","green","red","purple"],"door_color_assignment":["black","white"],"door_generator_assignment":[1,0],"goal":4,"start":1,"action_noise":0,"location_history":"[1,3,4]","action_history":"[0,1]","door_history":"[1,0]","location_rts":"[2103,394]","trial_type":"two-door-navigation","trial_index":32,"time_elapsed":2081098,"internal_node_id":"0.0-2.0-30.0"},{"group":"hexagon_tri","room_assignment":["grey","yellow","blue","green","red","purple"],"door_color_assignment":["black","white"],"door_generator_assignment":[1,0],"goal":5,"start":4,"action_noise":0,"location_history":"[4,2,3,2,1,3,4,2,3,2,1,3,4,2,1,5]","action_history":"[1,1,0,0,0,1,1,1,0,0,0,1,1,0,1]","door_history":"[0,0,1,1,1,0,0,0,1,1,1,0,0,1,0]","location_rts":"[5307,698,1044,578,976,7539,419,544,484,695,673,4606,551,1426,1699]","trial_type":"two-door-navigation","trial_index":33,"time_elapsed":2127585,"internal_node_id":"0.0-2.0-31.0"},{"group":"hexagon_tri","room_assignment":["grey","yellow","blue","green","red","purple"],"door_color_assignment":["black","white"],"door_generator_assignment":[1,0],"goal":0,"start":5,"action_noise":0,"location_history":"[5,4,0]","action_history":"[0,0]","door_history":"[1,1]","location_rts":"[1949,352]","trial_type":"two-door-navigation","trial_index":34,"time_elapsed":2136082,"internal_node_id":"0.0-2.0-32.0"},{"group":"hexagon_tri","room_assignment":["grey","yellow","blue","green","red","purple"],"door_color_assignment":["black","white"],"door_generator_assignment":[1,0],"goal":3,"start":0,"action_noise":0,"location_history":"[0,1,5,4,2,3]","action_history":"[1,1,0,1,1]","door_history":"[0,0,1,0,0]","location_rts":"[14918,802,1530,1217,494]","trial_type":"two-door-navigation","trial_index":35,"time_elapsed":2164173,"internal_node_id":"0.0-2.0-33.0"},{"group":"hexagon_tri","room_assignment":["grey","yellow","blue","green","red","purple"],"door_color_assignment":["black","white"],"door_generator_assignment":[1,0],"goal":1,"start":3,"action_noise":0,"location_history":"[3,4,2,1]","action_history":"[1,1,0]","door_history":"[0,0,1]","location_rts":"[2528,4242,466]","trial_type":"two-door-navigation","trial_index":36,"time_elapsed":2178467,"internal_node_id":"0.0-2.0-34.0"},{"group":"hexagon_tri","room_assignment":["grey","yellow","blue","green","red","purple"],"door_color_assignment":["black","white"],"door_generator_assignment":[1,0],"goal":2,"start":1,"action_noise":0,"location_history":"[1,5,4,0,1,5,4,2]","action_history":"[1,0,0,1,1,0,1]","door_history":"[0,1,1,0,0,1,0]","location_rts":"[10965,1291,440,813,476,688,478]","trial_type":"two-door-navigation","trial_index":37,"time_elapsed":2205124,"internal_node_id":"0.0-2.0-35.0"},{"group":"hexagon_tri","room_assignment":["grey","yellow","blue","green","red","purple"],"door_color_assignment":["black","white"],"door_generator_assignment":[1,0],"goal":4,"start":2,"action_noise":0,"location_history":"[2,1,5,4]","action_history":"[0,1,0]","door_history":"[1,0,1]","location_rts":"[2050,1061,1096]","trial_type":"two-door-navigation","trial_index":38,"time_elapsed":2216383,"internal_node_id":"0.0-2.0-36.0"},{"group":"hexagon_tri","room_assignment":["grey","yellow","blue","green","red","purple"],"door_color_assignment":["black","white"],"door_generator_assignment":[1,0],"goal":5,"start":4,"action_noise":0,"location_history":"[4,2,3,4,0,1,5]","action_history":"[1,1,1,0,1,1]","door_history":"[0,0,0,1,0,0]","location_rts":"[1756,5852,15771,731,759,346]","trial_type":"two-door-navigation","trial_index":39,"time_elapsed":2252098,"internal_node_id":"0.0-2.0-37.0"},{"group":"hexagon_tri","room_assignment":["grey","yellow","blue","green","red","purple"],"door_color_assignment":["black","white"],"door_generator_assignment":[1,0],"goal":1,"start":5,"action_noise":0,"location_history":"[5,0,5,0,5,4,0,5,4,0,1]","action_history":"[1,0,1,0,0,0,0,0,0,1]","door_history":"[0,1,0,1,1,1,1,1,1,0]","location_rts":"[3286,2671,1250,1160,788,565,1384,830,686,1013]","trial_type":"two-door-navigation","trial_index":40,"time_elapsed":2280201,"internal_node_id":"0.0-2.0-38.0"},{"group":"hexagon_tri","room_assignment":["grey","yellow","blue","green","red","purple"],"door_color_assignment":["black","white"],"door_generator_assignment":[1,0],"goal":4,"start":1,"action_noise":0,"location_history":"[1,5,0,5,4]","action_history":"[1,1,0,0]","door_history":"[0,0,1,1]","location_rts":"[1705,637,982,763]","trial_type":"two-door-navigation","trial_index":41,"time_elapsed":2292647,"internal_node_id":"0.0-2.0-39.0"},{"group":"hexagon_tri","room_assignment":["grey","yellow","blue","green","red","purple"],"door_color_assignment":["black","white"],"door_generator_assignment":[1,0],"goal":3,"start":4,"action_noise":0,"location_history":"[4,2,3]","action_history":"[1,1]","door_history":"[0,0]","location_rts":"[1334,735]","trial_type":"two-door-navigation","trial_index":42,"time_elapsed":2300762,"internal_node_id":"0.0-2.0-40.0"},{"group":"hexagon_tri","room_assignment":["grey","yellow","blue","green","red","purple"],"door_color_assignment":["black","white"],"door_generator_assignment":[1,0],"goal":2,"start":3,"action_noise":0,"location_history":"[3,4,0,5,4,0,1,5,0,1,3,4,2]","action_history":"[1,0,0,0,0,1,1,1,1,0,1,1]","door_history":"[0,1,1,1,1,0,0,0,0,1,0,0]","location_rts":"[1287,706,492,459,384,606,475,443,1681,2748,27477,552]","trial_type":"two-door-navigation","trial_index":43,"time_elapsed":2354718,"internal_node_id":"0.0-2.0-41.0"},{"group":"hexagon_tri","room_assignment":["grey","yellow","blue","green","red","purple"],"door_color_assignment":["black","white"],"door_generator_assignment":[1,0],"goal":0,"start":2,"action_noise":0,"location_history":"[2,1,5,4,0]","action_history":"[0,1,0,0]","door_history":"[1,0,1,1]","location_rts":"[2143,727,376,329]","trial_type":"two-door-navigation","trial_index":44,"time_elapsed":2366359,"internal_node_id":"0.0-2.0-42.0"},{"group":"hexagon_tri","room_assignment":["grey","yellow","blue","green","red","purple"],"door_color_assignment":["black","white"],"door_generator_assignment":[1,0],"goal":5,"start":0,"action_noise":0,"location_history":"[0,1,5]","action_history":"[1,1]","door_history":"[0,0]","location_rts":"[1426,749]","trial_type":"two-door-navigation","trial_index":45,"time_elapsed":2374565,"internal_node_id":"0.0-2.0-43.0"},{"group":"hexagon_tri","room_assignment":["grey","yellow","blue","green","red","purple"],"door_color_assignment":["black","white"],"door_generator_assignment":[1,0],"goal":0,"start":5,"action_noise":0,"location_history":"[5,0]","action_history":"[1]","door_history":"[0]","location_rts":"[1214]","trial_type":"two-door-navigation","trial_index":46,"time_elapsed":2380809,"internal_node_id":"0.0-2.0-44.0"},{"group":"hexagon_tri","room_assignment":["grey","yellow","blue","green","red","purple"],"door_color_assignment":["black","white"],"door_generator_assignment":[1,0],"goal":2,"start":0,"action_noise":0,"location_history":"[0,1,3,2]","action_history":"[1,0,0]","door_history":"[0,1,1]","location_rts":"[1261,977,367]","trial_type":"two-door-navigation","trial_index":47,"time_elapsed":2390471,"internal_node_id":"0.0-2.0-45.0"},{"group":"hexagon_tri","room_assignment":["grey","yellow","blue","green","red","purple"],"door_color_assignment":["black","white"],"door_generator_assignment":[1,0],"goal":4,"start":2,"action_noise":0,"location_history":"[2,3,4]","action_history":"[1,1]","door_history":"[0,0]","location_rts":"[910,437]","trial_type":"two-door-navigation","trial_index":48,"time_elapsed":2397849,"internal_node_id":"0.0-2.0-46.0"},{"group":"hexagon_tri","room_assignment":["grey","yellow","blue","green","red","purple"],"door_color_assignment":["black","white"],"door_generator_assignment":[1,0],"goal":1,"start":4,"action_noise":0,"location_history":"[4,2,3,2,1]","action_history":"[1,1,0,0]","door_history":"[0,0,1,1]","location_rts":"[791,411,1009,406]","trial_type":"two-door-navigation","trial_index":49,"time_elapsed":2408533,"internal_node_id":"0.0-2.0-47.0"},{"group":"hexagon_tri","room_assignment":["grey","yellow","blue","green","red","purple"],"door_color_assignment":["black","white"],"door_generator_assignment":[1,0],"goal":5,"start":1,"action_noise":0,"location_history":"[1,5]","action_history":"[1]","door_history":"[0]","location_rts":"[3122]","trial_type":"two-door-navigation","trial_index":50,"time_elapsed":2416678,"internal_node_id":"0.0-2.0-48.0"},{"group":"hexagon_tri","room_assignment":["grey","yellow","blue","green","red","purple"],"door_color_assignment":["black","white"],"door_generator_assignment":[1,0],"goal":3,"start":5,"action_noise":0,"location_history":"[5,0,5,4,0,5,0,1,5,0,5,4,0,1,3]","action_history":"[1,0,0,0,0,1,1,1,1,0,0,0,1,0]","door_history":"[0,1,1,1,1,0,0,0,0,1,1,1,0,1]","location_rts":"[13105,695,396,465,446,311,330,934,448,1226,509,489,1328,1146]","trial_type":"two-door-navigation","trial_index":51,"time_elapsed":2456998,"internal_node_id":"0.0-2.0-49.0"},{"view_history":"[{\"page_index\":0,\"viewing_time\":1649}]","rt":1651,"trial_type":"instructions","trial_index":52,"time_elapsed":2459649,"internal_node_id":"0.0-3.0"},{"view_history":"[{\"page_index\":0,\"viewing_time\":1139},{\"page_index\":1,\"viewing_time\":9477}]","rt":10616,"trial_type":"instructions","trial_index":53,"time_elapsed":2471270,"internal_node_id":"0.0-4.0"},{"group":"hexagon_bi","fractal_assignment":["../images/ylw_slt.png","../images/org_blu.png","../images/blu_wht.png","../images/pnk_blu.png","../images/gry_blk.png","../images/cyn_red.png"],"mutagen_generator_assignment":[1,0],"goal":3,"start":5,"action_noise":0,"location_history":"[5,4,5,4,3]","action_history":"[1,1,1,0]","mutagen_history":"[0,0,0,1]","location_rts":"[4690,714,497,541]","trial_type":"fractal-mutation","trial_index":54,"time_elapsed":2486058,"internal_node_id":"0.0-5.0-0.0"},{"group":"hexagon_bi","fractal_assignment":["../images/ylw_slt.png","../images/org_blu.png","../images/blu_wht.png","../images/pnk_blu.png","../images/gry_blk.png","../images/cyn_red.png"],"mutagen_generator_assignment":[1,0],"goal":1,"start":3,"action_noise":0,"location_history":"[3,4,5,4,5,0,5,0,5,4,5,0,5,0,1]","action_history":"[0,1,1,1,0,0,0,0,1,1,0,0,0,1]","mutagen_history":"[1,0,0,0,1,1,1,1,0,0,1,1,1,0]","location_rts":"[863,473,378,343,343,492,576,859,701,597,6925,424,411,303]","trial_type":"fractal-mutation","trial_index":55,"time_elapsed":2519104,"internal_node_id":"0.0-5.0-1.0"},{"group":"hexagon_bi","fractal_assignment":["../images/ylw_slt.png","../images/org_blu.png","../images/blu_wht.png","../images/pnk_blu.png","../images/gry_blk.png","../images/cyn_red.png"],"mutagen_generator_assignment":[1,0],"goal":0,"start":1,"action_noise":0,"location_history":"[1,2,3,4,3,4,5,4,5,4,3,4,3,2,1,2,3,2,3,2,1,0]","action_history":"[0,1,0,0,0,1,1,1,1,0,0,0,1,0,0,1,1,1,1,0,1]","mutagen_history":"[1,0,1,1,1,0,0,0,0,1,1,1,0,1,1,0,0,0,0,1,0]","location_rts":"[1085,567,591,427,541,516,537,456,602,547,594,521,545,1341,905,713,837,423,604,445,666]","trial_type":"fractal-mutation","trial_index":56,"time_elapsed":2559161,"internal_node_id":"0.0-5.0-2.0"},{"group":"hexagon_bi","fractal_assignment":["../images/ylw_slt.png","../images/org_blu.png","../images/blu_wht.png","../images/pnk_blu.png","../images/gry_blk.png","../images/cyn_red.png"],"mutagen_generator_assignment":[1,0],"goal":3,"start":0,"action_noise":0,"location_history":"[0,1,0,5,0,5,4,5,4,5,4,3]","action_history":"[1,1,0,0,0,1,1,1,1,1,0]","mutagen_history":"[0,0,1,1,1,0,0,0,0,0,1]","location_rts":"[549408,501,492,385,522,538,455,374,90092,5347,714]","trial_type":"fractal-mutation","trial_index":57,"time_elapsed":3223636,"internal_node_id":"0.0-5.0-3.0"},{"group":"hexagon_bi","fractal_assignment":["../images/ylw_slt.png","../images/org_blu.png","../images/blu_wht.png","../images/pnk_blu.png","../images/gry_blk.png","../images/cyn_red.png"],"mutagen_generator_assignment":[1,0],"goal":4,"start":3,"action_noise":0,"location_history":"[3,2,1,2,1,0,1,0,1,0,1,2,1,2,1,0,1,0,1,2,1,2,3,2,3,2,1,2,3,2,3,2,1,2,1,2,1,2,1,2,1,2,1,0,1,2,3,2,3,2,3,4]","action_history":"[1,0,0,0,1,1,1,1,1,1,0,0,0,0,1,1,1,1,0,0,0,1,1,1,1,0,0,1,1,1,1,0,0,0,0,0,0,0,0,0,0,0,1,1,0,1,1,1,1,1,0]","mutagen_history":"[0,1,1,1,0,0,0,0,0,0,1,1,1,1,0,0,0,0,1,1,1,0,0,0,0,1,1,0,0,0,0,1,1,1,1,1,1,1,1,1,1,1,0,0,1,0,0,0,0,0,1]","location_rts":"[42571,570,389,409,397,418,422,996,3812,430,446,364,1179,527,15141,1193,480,711,356,2129,1060,406,603,709,617,389,345,388,251,401,621,419,375,430,466,644,550,505,4472,3294,6188,2562,1042,1224,5745,954,350,407,650,431,951]","trial_type":"fractal-mutation","trial_index":58,"time_elapsed":3391065,"internal_node_id":"0.0-5.0-4.0"},{"group":"hexagon_bi","fractal_assignment":["../images/ylw_slt.png","../images/org_blu.png","../images/blu_wht.png","../images/pnk_blu.png","../images/gry_blk.png","../images/cyn_red.png"],"mutagen_generator_assignment":[1,0],"goal":2,"start":4,"action_noise":0,"location_history":"[4,3,4,3,2]","action_history":"[0,0,0,1]","mutagen_history":"[1,1,1,0]","location_rts":"[2248,398,614,3320]","trial_type":"fractal-mutation","trial_index":59,"time_elapsed":3405968,"internal_node_id":"0.0-5.0-5.0"},{"group":"hexagon_bi","fractal_assignment":["../images/ylw_slt.png","../images/org_blu.png","../images/blu_wht.png","../images/pnk_blu.png","../images/gry_blk.png","../images/cyn_red.png"],"mutagen_generator_assignment":[1,0],"goal":1,"start":2,"action_noise":0,"location_history":"[2,3,2,3,2,1]","action_history":"[1,1,1,1,0]","mutagen_history":"[0,0,0,0,1]","location_rts":"[1790,384,341,1045,1178]","trial_type":"fractal-mutation","trial_index":60,"time_elapsed":3419924,"internal_node_id":"0.0-5.0-6.0"},{"group":"hexagon_bi","fractal_assignment":["../images/ylw_slt.png","../images/org_blu.png","../images/blu_wht.png","../images/pnk_blu.png","../images/gry_blk.png","../images/cyn_red.png"],"mutagen_generator_assignment":[1,0],"goal":5,"start":1,"action_noise":0,"location_history":"[1,0,1,0,1,0,5]","action_history":"[1,1,1,1,1,0]","mutagen_history":"[0,0,0,0,0,1]","location_rts":"[21716,500,659,865,526,323]","trial_type":"fractal-mutation","trial_index":61,"time_elapsed":3454982,"internal_node_id":"0.0-5.0-7.0"},{"group":"hexagon_bi","fractal_assignment":["../images/ylw_slt.png","../images/org_blu.png","../images/blu_wht.png","../images/pnk_blu.png","../images/gry_blk.png","../images/cyn_red.png"],"mutagen_generator_assignment":[1,0],"goal":4,"start":5,"action_noise":0,"location_history":"[5,4]","action_history":"[1]","mutagen_history":"[0]","location_rts":"[848]","trial_type":"fractal-mutation","trial_index":62,"time_elapsed":3460923,"internal_node_id":"0.0-5.0-8.0"},{"group":"hexagon_bi","fractal_assignment":["../images/ylw_slt.png","../images/org_blu.png","../images/blu_wht.png","../images/pnk_blu.png","../images/gry_blk.png","../images/cyn_red.png"],"mutagen_generator_assignment":[1,0],"goal":2,"start":4,"action_noise":0,"location_history":"[4,5,4,5,0,5,4,5,4,3,4,3,4,3,2]","action_history":"[1,1,1,0,0,1,1,1,0,0,0,0,0,1]","mutagen_history":"[0,0,0,1,1,0,0,0,1,1,1,1,1,0]","location_rts":"[754,411,457,345,550,9054,445,433,414,359,347,505,465,306]","trial_type":"fractal-mutation","trial_index":63,"time_elapsed":3494382,"internal_node_id":"0.0-5.0-9.0"},{"group":"hexagon_bi","fractal_assignment":["../images/ylw_slt.png","../images/org_blu.png","../images/blu_wht.png","../images/pnk_blu.png","../images/gry_blk.png","../images/cyn_red.png"],"mutagen_generator_assignment":[1,0],"goal":0,"start":2,"action_noise":0,"location_history":"[2,3,2,3,4,3,4,3,2,3,2,3,2,1,2,1,2,1,0]","action_history":"[1,1,1,0,0,0,0,1,1,1,1,1,0,0,0,0,0,1]","mutagen_history":"[0,0,0,1,1,1,1,0,0,0,0,0,1,1,1,1,1,0]","location_rts":"[1136,785,414,583,377,2449,6459,326,361,474,394,430,359,414,476,484,757,1129]","trial_type":"fractal-mutation","trial_index":64,"time_elapsed":3534931,"internal_node_id":"0.0-5.0-10.0"},{"group":"hexagon_bi","fractal_assignment":["../images/ylw_slt.png","../images/org_blu.png","../images/blu_wht.png","../images/pnk_blu.png","../images/gry_blk.png","../images/cyn_red.png"],"mutagen_generator_assignment":[1,0],"goal":1,"start":0,"action_noise":0,"location_history":"[0,1]","action_history":"[1]","mutagen_history":"[0]","location_rts":"[807]","trial_type":"fractal-mutation","trial_index":65,"time_elapsed":3540796,"internal_node_id":"0.0-5.0-11.0"},{"group":"hexagon_bi","fractal_assignment":["../images/ylw_slt.png","../images/org_blu.png","../images/blu_wht.png","../images/pnk_blu.png","../images/gry_blk.png","../images/cyn_red.png"],"mutagen_generator_assignment":[1,0],"goal":3,"start":1,"action_noise":0,"location_history":"[1,0,5,0,5,0,5,4,5,4,5,0,5,0,1,0,1,2,1,2,3]","action_history":"[1,0,0,0,0,0,1,1,1,1,0,0,0,1,1,1,0,0,0,1]","mutagen_history":"[0,1,1,1,1,1,0,0,0,0,1,1,1,0,0,0,1,1,1,0]","location_rts":"[1179,508,381,534,435,487,335,365,442,662,597,790,535,1186,523,569,463,577,1061,1077]","trial_type":"fractal-mutation","trial_index":66,"time_elapsed":3578422,"internal_node_id":"0.0-5.0-12.0"},{"group":"hexagon_bi","fractal_assignment":["../images/ylw_slt.png","../images/org_blu.png","../images/blu_wht.png","../images/pnk_blu.png","../images/gry_blk.png","../images/cyn_red.png"],"mutagen_generator_assignment":[1,0],"goal":5,"start":3,"action_noise":0,"location_history":"[3,2,1,2,1,0,1,0,1,0,1,0,1,0,5]","action_history":"[1,0,0,0,1,1,1,1,1,1,1,1,1,0]","mutagen_history":"[0,1,1,1,0,0,0,0,0,0,0,0,0,1]","location_rts":"[24004,2933,611,711,1128,479,521,343,686,432,12397,598,738,371]","trial_type":"fractal-mutation","trial_index":67,"time_elapsed":3643227,"internal_node_id":"0.0-5.0-13.0"},{"group":"hexagon_bi","fractal_assignment":["../images/ylw_slt.png","../images/org_blu.png","../images/blu_wht.png","../images/pnk_blu.png","../images/gry_blk.png","../images/cyn_red.png"],"mutagen_generator_assignment":[1,0],"goal":4,"start":5,"action_noise":0,"location_history":"[5,4]","action_history":"[1]","mutagen_history":"[0]","location_rts":"[16869]","trial_type":"fractal-mutation","trial_index":68,"time_elapsed":3665139,"internal_node_id":"0.0-5.0-14.0"},{"group":"hexagon_bi","fractal_assignment":["../images/ylw_slt.png","../images/org_blu.png","../images/blu_wht.png","../images/pnk_blu.png","../images/gry_blk.png","../images/cyn_red.png"],"mutagen_generator_assignment":[1,0],"goal":0,"start":4,"action_noise":0,"location_history":"[4,5,4,3,4,3,4,3,2,3,4,3,4,5,4,5,4,3,2,3,2,3,4,3,4,5,4,5,4,3,4,3,4,3,4,5,4,5,0]","action_history":"[1,1,0,0,0,0,0,1,1,0,0,0,1,1,1,1,0,1,1,1,1,0,0,0,1,1,1,1,0,0,0,0,0,0,1,1,1,0]","mutagen_history":"[0,0,1,1,1,1,1,0,0,1,1,1,0,0,0,0,1,0,0,0,0,1,1,1,0,0,0,0,1,1,1,1,1,1,0,0,0,1]","location_rts":"[2184,647,361,378,425,457,553,614,474,686,283,603,581,655,1073,1388,582,80511,562,108338,420,512,330,493,370,389,376,388,400,499,440,803,485,3309,410,364,469,908]","trial_type":"fractal-mutation","trial_index":69,"time_elapsed":3922282,"internal_node_id":"0.0-5.0-15.0"},{"group":"hexagon_bi","fractal_assignment":["../images/ylw_slt.png","../images/org_blu.png","../images/blu_wht.png","../images/pnk_blu.png","../images/gry_blk.png","../images/cyn_red.png"],"mutagen_generator_assignment":[1,0],"goal":3,"start":0,"action_noise":0,"location_history":"[0,1,0,1,2,1,2,1,2,3]","action_history":"[1,1,1,0,0,0,0,0,1]","mutagen_history":"[0,0,0,1,1,1,1,1,0]","location_rts":"[2582,484,655,503,615,446,499,378,433]","trial_type":"fractal-mutation","trial_index":70,"time_elapsed":3942348,"internal_node_id":"0.0-5.0-16.0"},{"group":"hexagon_bi","fractal_assignment":["../images/ylw_slt.png","../images/org_blu.png","../images/blu_wht.png","../images/pnk_blu.png","../images/gry_blk.png","../images/cyn_red.png"],"mutagen_generator_assignment":[1,0],"goal":1,"start":3,"action_noise":0,"location_history":"[3,2,3,4,3,4,3,4,5,4,5,0,5,0,5,0,1]","action_history":"[1,1,0,0,0,0,0,1,1,1,0,0,0,0,0,1]","mutagen_history":"[0,0,1,1,1,1,1,0,0,0,1,1,1,1,1,0]","location_rts":"[2419,416,729,421,376,530,704,1240,2935,399,423,382,369,376,783,387]","trial_type":"fractal-mutation","trial_index":71,"time_elapsed":3976546,"internal_node_id":"0.0-5.0-17.0"},{"group":"hexagon_bi","fractal_assignment":["../images/ylw_slt.png","../images/org_blu.png","../images/blu_wht.png","../images/pnk_blu.png","../images/gry_blk.png","../images/cyn_red.png"],"mutagen_generator_assignment":[1,0],"goal":5,"start":1,"action_noise":0,"location_history":"[1,0,1,0,5]","action_history":"[1,1,1,0]","mutagen_history":"[0,0,0,1]","location_rts":"[23890,377,326,498]","trial_type":"fractal-mutation","trial_index":72,"time_elapsed":4009796,"internal_node_id":"0.0-5.0-18.0"},{"group":"hexagon_bi","fractal_assignment":["../images/ylw_slt.png","../images/org_blu.png","../images/blu_wht.png","../images/pnk_blu.png","../images/gry_blk.png","../images/cyn_red.png"],"mutagen_generator_assignment":[1,0],"goal":2,"start":5,"action_noise":0,"location_history":"[5,4,5,0,5,0,5,4,5,4,5,4,3,4,3,4,5,4,5,0,5,0,1,0,1,0,1,2]","action_history":"[1,1,0,0,0,0,1,1,1,1,1,0,0,0,0,1,1,1,0,0,0,1,1,1,1,1,0]","mutagen_history":"[0,0,1,1,1,1,0,0,0,0,0,1,1,1,1,0,0,0,1,1,1,0,0,0,0,0,1]","location_rts":"[1688,795,669,586,476,704,414,482,478,483,426,471,1818,616,505,488,15078,1347,214,606,553,457,478,541,416,561,624]","trial_type":"fractal-mutation","trial_index":73,"time_elapsed":4074111,"internal_node_id":"0.0-5.0-19.0"},{"group":"hexagon_bi","fractal_assignment":["../images/ylw_slt.png","../images/org_blu.png","../images/blu_wht.png","../images/pnk_blu.png","../images/gry_blk.png","../images/cyn_red.png"],"mutagen_generator_assignment":[1,0],"goal":4,"start":2,"action_noise":0,"location_history":"[2,3,2,3,4]","action_history":"[1,1,1,0]","mutagen_history":"[0,0,0,1]","location_rts":"[839,401,91,388]","trial_type":"fractal-mutation","trial_index":74,"time_elapsed":4083987,"internal_node_id":"0.0-5.0-20.0"},{"group":"hexagon_bi","fractal_assignment":["../images/ylw_slt.png","../images/org_blu.png","../images/blu_wht.png","../images/pnk_blu.png","../images/gry_blk.png","../images/cyn_red.png"],"mutagen_generator_assignment":[1,0],"goal":1,"start":4,"action_noise":0,"location_history":"[4,5,4,5,0,5,0,5,4,5,4,3,4,5,4,5,4,3,4,3,4,5,4,5,0,5,0,5,4,5,4,5,4,3,2,3,4,3,4,3,2,3,2,1]","action_history":"[1,1,1,0,0,0,0,1,1,1,0,0,1,1,1,1,0,0,0,0,1,1,1,0,0,0,0,1,1,1,1,1,0,1,1,0,0,0,0,1,1,1,0]","mutagen_history":"[0,0,0,1,1,1,1,0,0,0,1,1,0,0,0,0,1,1,1,1,0,0,0,1,1,1,1,0,0,0,0,0,1,0,0,1,1,1,1,0,0,0,1]","location_rts":"[738,341,363,662,150,461,401,377,360,427,327,554,380,330,1519,564,1013,438,349,393,357,363,20,718,440,22,399,294,324,345,390,428,215,1027,605,518,498,423,457,408,102,430,871]","trial_type":"fractal-mutation","trial_index":75,"time_elapsed":4153137,"internal_node_id":"0.0-5.0-21.0"},{"group":"hexagon_bi","fractal_assignment":["../images/ylw_slt.png","../images/org_blu.png","../images/blu_wht.png","../images/pnk_blu.png","../images/gry_blk.png","../images/cyn_red.png"],"mutagen_generator_assignment":[1,0],"goal":3,"start":1,"action_noise":0,"location_history":"[1,0,1,0,5,0,5,4,5,0,5,4,5,4,5,0,5,0,5,4,5,0,5,4,5,0,5,0,5,4,3]","action_history":"[1,1,1,0,0,0,1,1,0,0,1,1,1,1,0,0,0,0,1,1,0,0,1,1,0,0,0,0,1,0]","mutagen_history":"[0,0,0,1,1,1,0,0,1,1,0,0,0,0,1,1,1,1,0,0,1,1,0,0,1,1,1,1,0,1]","location_rts":"[1090,453,369,361,451,500,750,747,1062,482,582,469,527,518,651,408,450,522,581,451,305,564,632,440,508,459,108,521,416,409]","trial_type":"fractal-mutation","trial_index":76,"time_elapsed":4204468,"internal_node_id":"0.0-5.0-22.0"},{"group":"hexagon_bi","fractal_assignment":["../images/ylw_slt.png","../images/org_blu.png","../images/blu_wht.png","../images/pnk_blu.png","../images/gry_blk.png","../images/cyn_red.png"],"mutagen_generator_assignment":[1,0],"goal":2,"start":3,"action_noise":0,"location_history":"[3,2]","action_history":"[1]","mutagen_history":"[0]","location_rts":"[2928]","trial_type":"fractal-mutation","trial_index":77,"time_elapsed":4212436,"internal_node_id":"0.0-5.0-23.0"},{"group":"hexagon_bi","fractal_assignment":["../images/ylw_slt.png","../images/org_blu.png","../images/blu_wht.png","../images/pnk_blu.png","../images/gry_blk.png","../images/cyn_red.png"],"mutagen_generator_assignment":[1,0],"goal":0,"start":2,"action_noise":0,"location_history":"[2,3,4,3,4,5,0]","action_history":"[1,0,0,0,1,0]","mutagen_history":"[0,1,1,1,0,1]","location_rts":"[5623,767,475,661,2469,427]","trial_type":"fractal-mutation","trial_index":78,"time_elapsed":4233172,"internal_node_id":"0.0-5.0-24.0"},{"group":"hexagon_bi","fractal_assignment":["../images/ylw_slt.png","../images/org_blu.png","../images/blu_wht.png","../images/pnk_blu.png","../images/gry_blk.png","../images/cyn_red.png"],"mutagen_generator_assignment":[1,0],"goal":5,"start":0,"action_noise":0,"location_history":"[0,1,2,3,4,3,4,3,2,3,2,1,0,1,0,1,0,5]","action_history":"[1,0,1,0,0,0,0,1,1,1,0,1,1,1,1,1,0]","mutagen_history":"[0,1,0,1,1,1,1,0,0,0,1,0,0,0,0,0,1]","location_rts":"[1224,715,433,426,366,396,367,352,346,485,450,859,384,521,348,645,370]","trial_type":"fractal-mutation","trial_index":79,"time_elapsed":4263842,"internal_node_id":"0.0-5.0-25.0"},{"group":"hexagon_bi","fractal_assignment":["../images/ylw_slt.png","../images/org_blu.png","../images/blu_wht.png","../images/pnk_blu.png","../images/gry_blk.png","../images/cyn_red.png"],"mutagen_generator_assignment":[1,0],"goal":2,"start":5,"action_noise":0,"location_history":"[5,4,3,2]","action_history":"[1,0,1]","mutagen_history":"[0,1,0]","location_rts":"[802,463,444]","trial_type":"fractal-mutation","trial_index":80,"time_elapsed":4272674,"internal_node_id":"0.0-5.0-26.0"},{"group":"hexagon_bi","fractal_assignment":["../images/ylw_slt.png","../images/org_blu.png","../images/blu_wht.png","../images/pnk_blu.png","../images/gry_blk.png","../images/cyn_red.png"],"mutagen_generator_assignment":[1,0],"goal":3,"start":2,"action_noise":0,"location_history":"[2,3]","action_history":"[1]","mutagen_history":"[0]","location_rts":"[3343]","trial_type":"fractal-mutation","trial_index":81,"time_elapsed":4281070,"internal_node_id":"0.0-5.0-27.0"},{"group":"hexagon_bi","fractal_assignment":["../images/ylw_slt.png","../images/org_blu.png","../images/blu_wht.png","../images/pnk_blu.png","../images/gry_blk.png","../images/cyn_red.png"],"mutagen_generator_assignment":[1,0],"goal":0,"start":3,"action_noise":0,"location_history":"[3,2,1,2,1,2,3,2,3,2,3,4,5,4,5,4,3,4,3,2,3,4,3,2,1,2,1,2,1,0]","action_history":"[1,0,0,0,0,1,1,1,1,1,0,1,1,1,1,0,0,0,1,1,0,0,1,0,0,0,0,0,1]","mutagen_history":"[0,1,1,1,1,0,0,0,0,0,1,0,0,0,0,1,1,1,0,0,1,1,0,1,1,1,1,1,0]","location_rts":"[733,475,526,412,403,338,457,433,492,618,1760,1452,420,1954,582,358,542,441,677,176,362,535,613,394,353,440,533,611,413]","trial_type":"fractal-mutation","trial_index":82,"time_elapsed":4333752,"internal_node_id":"0.0-5.0-28.0"},{"group":"hexagon_bi","fractal_assignment":["../images/ylw_slt.png","../images/org_blu.png","../images/blu_wht.png","../images/pnk_blu.png","../images/gry_blk.png","../images/cyn_red.png"],"mutagen_generator_assignment":[1,0],"goal":1,"start":0,"action_noise":0,"location_history":"[0,1]","action_history":"[1]","mutagen_history":"[0]","location_rts":"[816]","trial_type":"fractal-mutation","trial_index":83,"time_elapsed":4339624,"internal_node_id":"0.0-5.0-29.0"},{"group":"hexagon_bi","fractal_assignment":["../images/ylw_slt.png","../images/org_blu.png","../images/blu_wht.png","../images/pnk_blu.png","../images/gry_blk.png","../images/cyn_red.png"],"mutagen_generator_assignment":[1,0],"goal":4,"start":1,"action_noise":0,"location_history":"[1,2,1,0,5,0,5,0,1,2,1,2,3,2,1,2,1,2,1,2,1,0,1,0,1,0,1,0,5,0,5,4]","action_history":"[0,0,1,0,0,0,0,1,0,0,0,1,1,0,0,0,0,0,0,0,1,1,1,1,1,1,1,0,0,0,1]","mutagen_history":"[1,1,0,1,1,1,1,0,1,1,1,0,0,1,1,1,1,1,1,1,0,0,0,0,0,0,0,1,1,1,0]","location_rts":"[547,440,343,319,308,375,312,536,402,500,416,500,450,610,406,464,605,619,564,1797,1659,489,487,824,413,473,479,291,352,337,316]","trial_type":"fractal-mutation","trial_index":84,"time_elapsed":4393144,"internal_node_id":"0.0-5.0-30.0"},{"group":"hexagon_bi","fractal_assignment":["../images/ylw_slt.png","../images/org_blu.png","../images/blu_wht.png","../images/pnk_blu.png","../images/gry_blk.png","../images/cyn_red.png"],"mutagen_generator_assignment":[1,0],"goal":5,"start":4,"action_noise":0,"location_history":"[4,3,2,3,2,1,0,5]","action_history":"[0,1,1,1,0,1,0]","mutagen_history":"[1,0,0,0,1,0,1]","location_rts":"[1681,355,774,323,704,672,476]","trial_type":"fractal-mutation","trial_index":85,"time_elapsed":4409428,"internal_node_id":"0.0-5.0-31.0"},{"group":"hexagon_bi","fractal_assignment":["../images/ylw_slt.png","../images/org_blu.png","../images/blu_wht.png","../images/pnk_blu.png","../images/gry_blk.png","../images/cyn_red.png"],"mutagen_generator_assignment":[1,0],"goal":0,"start":5,"action_noise":0,"location_history":"[5,0]","action_history":"[0]","mutagen_history":"[1]","location_rts":"[694]","trial_type":"fractal-mutation","trial_index":86,"time_elapsed":4415180,"internal_node_id":"0.0-5.0-32.0"},{"group":"hexagon_bi","fractal_assignment":["../images/ylw_slt.png","../images/org_blu.png","../images/blu_wht.png","../images/pnk_blu.png","../images/gry_blk.png","../images/cyn_red.png"],"mutagen_generator_assignment":[1,0],"goal":3,"start":0,"action_noise":0,"location_history":"[0,5,0,1,0,5,0,5,0,1,0,5,4,5,0,1,0,5,0,5,0,1,0,1,0,5,0,5,4,5,4,3]","action_history":"[0,0,1,1,0,0,0,0,1,1,0,1,1,0,1,1,0,0,0,0,1,1,1,1,0,0,0,1,1,1,0]","mutagen_history":"[1,1,0,0,1,1,1,1,0,0,1,0,0,1,0,0,1,1,1,1,0,0,0,0,1,1,1,0,0,0,1]","location_rts":"[582,510,376,558,312,280,352,374,333,357,472,623,376,449,530,1139,744,305,286,409,321,310,484,433,557,397,378,249,307,592,386]","trial_type":"fractal-mutation","trial_index":87,"time_elapsed":4465601,"internal_node_id":"0.0-5.0-33.0"},{"group":"hexagon_bi","fractal_assignment":["../images/ylw_slt.png","../images/org_blu.png","../images/blu_wht.png","../images/pnk_blu.png","../images/gry_blk.png","../images/cyn_red.png"],"mutagen_generator_assignment":[1,0],"goal":1,"start":3,"action_noise":0,"location_history":"[3,2,1]","action_history":"[1,0]","mutagen_history":"[0,1]","location_rts":"[7581,529]","trial_type":"fractal-mutation","trial_index":88,"time_elapsed":4479824,"internal_node_id":"0.0-5.0-34.0"},{"group":"hexagon_bi","fractal_assignment":["../images/ylw_slt.png","../images/org_blu.png","../images/blu_wht.png","../images/pnk_blu.png","../images/gry_blk.png","../images/cyn_red.png"],"mutagen_generator_assignment":[1,0],"goal":2,"start":1,"action_noise":0,"location_history":"[1,0,5,0,5,4,5,4,3,2]","action_history":"[1,0,0,0,1,1,1,0,1]","mutagen_history":"[0,1,1,1,0,0,0,1,0]","location_rts":"[718,438,572,491,312,317,355,529,452]","trial_type":"fractal-mutation","trial_index":89,"time_elapsed":4497702,"internal_node_id":"0.0-5.0-35.0"},{"group":"hexagon_bi","fractal_assignment":["../images/ylw_slt.png","../images/org_blu.png","../images/blu_wht.png","../images/pnk_blu.png","../images/gry_blk.png","../images/cyn_red.png"],"mutagen_generator_assignment":[1,0],"goal":4,"start":2,"action_noise":0,"location_history":"[2,1,2,3,2,3,4]","action_history":"[0,0,1,1,1,0]","mutagen_history":"[1,1,0,0,0,1]","location_rts":"[1079,629,180,302,4476,344]","trial_type":"fractal-mutation","trial_index":90,"time_elapsed":4515096,"internal_node_id":"0.0-5.0-36.0"},{"group":"hexagon_bi","fractal_assignment":["../images/ylw_slt.png","../images/org_blu.png","../images/blu_wht.png","../images/pnk_blu.png","../images/gry_blk.png","../images/cyn_red.png"],"mutagen_generator_assignment":[1,0],"goal":5,"start":4,"action_noise":0,"location_history":"[4,5]","action_history":"[1]","mutagen_history":"[0]","location_rts":"[1482]","trial_type":"fractal-mutation","trial_index":91,"time_elapsed":4521840,"internal_node_id":"0.0-5.0-37.0"},{"group":"hexagon_bi","fractal_assignment":["../images/ylw_slt.png","../images/org_blu.png","../images/blu_wht.png","../images/pnk_blu.png","../images/gry_blk.png","../images/cyn_red.png"],"mutagen_generator_assignment":[1,0],"goal":1,"start":5,"action_noise":0,"location_history":"[5,4,3,4,3,2,3,2,1]","action_history":"[1,0,0,0,1,1,1,0]","mutagen_history":"[0,1,1,1,0,0,0,1]","location_rts":"[898,338,399,457,335,746,413,253]","trial_type":"fractal-mutation","trial_index":92,"time_elapsed":4538165,"internal_node_id":"0.0-5.0-38.0"},{"group":"hexagon_bi","fractal_assignment":["../images/ylw_slt.png","../images/org_blu.png","../images/blu_wht.png","../images/pnk_blu.png","../images/gry_blk.png","../images/cyn_red.png"],"mutagen_generator_assignment":[1,0],"goal":4,"start":1,"action_noise":0,"location_history":"[1,0,1,2,1,2,3,4]","action_history":"[1,1,0,0,0,1,0]","mutagen_history":"[0,0,1,1,1,0,1]","location_rts":"[418,387,338,496,428,426,507]","trial_type":"fractal-mutation","trial_index":93,"time_elapsed":4552478,"internal_node_id":"0.0-5.0-39.0"},{"group":"hexagon_bi","fractal_assignment":["../images/ylw_slt.png","../images/org_blu.png","../images/blu_wht.png","../images/pnk_blu.png","../images/gry_blk.png","../images/cyn_red.png"],"mutagen_generator_assignment":[1,0],"goal":3,"start":4,"action_noise":0,"location_history":"[4,5,0,1,2,1,2,1,0,1,2,1,2,3]","action_history":"[1,0,1,0,0,0,0,1,1,0,0,0,1]","mutagen_history":"[0,1,0,1,1,1,1,0,0,1,1,1,0]","location_rts":"[1794,398,434,315,351,332,374,378,537,339,395,353,587]","trial_type":"fractal-mutation","trial_index":94,"time_elapsed":4576800,"internal_node_id":"0.0-5.0-40.0"},{"group":"hexagon_bi","fractal_assignment":["../images/ylw_slt.png","../images/org_blu.png","../images/blu_wht.png","../images/pnk_blu.png","../images/gry_blk.png","../images/cyn_red.png"],"mutagen_generator_assignment":[1,0],"goal":2,"start":3,"action_noise":0,"location_history":"[3,2]","action_history":"[1]","mutagen_history":"[0]","location_rts":"[2066]","trial_type":"fractal-mutation","trial_index":95,"time_elapsed":4583909,"internal_node_id":"0.0-5.0-41.0"},{"group":"hexagon_bi","fractal_assignment":["../images/ylw_slt.png","../images/org_blu.png","../images/blu_wht.png","../images/pnk_blu.png","../images/gry_blk.png","../images/cyn_red.png"],"mutagen_generator_assignment":[1,0],"goal":0,"start":2,"action_noise":0,"location_history":"[2,1,0]","action_history":"[0,1]","mutagen_history":"[1,0]","location_rts":"[676,639]","trial_type":"fractal-mutation","trial_index":96,"time_elapsed":4591601,"internal_node_id":"0.0-5.0-42.0"},{"group":"hexagon_bi","fractal_assignment":["../images/ylw_slt.png","../images/org_blu.png","../images/blu_wht.png","../images/pnk_blu.png","../images/gry_blk.png","../images/cyn_red.png"],"mutagen_generator_assignment":[1,0],"goal":5,"start":0,"action_noise":0,"location_history":"[0,5]","action_history":"[0]","mutagen_history":"[1]","location_rts":"[475]","trial_type":"fractal-mutation","trial_index":97,"time_elapsed":4597119,"internal_node_id":"0.0-5.0-43.0"},{"group":"hexagon_bi","fractal_assignment":["../images/ylw_slt.png","../images/org_blu.png","../images/blu_wht.png","../images/pnk_blu.png","../images/gry_blk.png","../images/cyn_red.png"],"mutagen_generator_assignment":[1,0],"goal":0,"start":5,"action_noise":0,"location_history":"[5,4,3,4,5,0]","action_history":"[1,0,0,1,0]","mutagen_history":"[0,1,1,0,1]","location_rts":"[530,568,532,377,111]","trial_type":"fractal-mutation","trial_index":98,"time_elapsed":4608444,"internal_node_id":"0.0-5.0-44.0"},{"group":"hexagon_bi","fractal_assignment":["../images/ylw_slt.png","../images/org_blu.png","../images/blu_wht.png","../images/pnk_blu.png","../images/gry_blk.png","../images/cyn_red.png"],"mutagen_generator_assignment":[1,0],"goal":2,"start":0,"action_noise":0,"location_history":"[0,5,0,1,0,5,0,5,0,1,0,1,2]","action_history":"[0,0,1,1,0,0,0,0,1,1,1,0]","mutagen_history":"[1,1,0,0,1,1,1,1,0,0,0,1]","location_rts":"[654,514,395,1492,933,375,327,395,265,321,639,419]","trial_type":"fractal-mutation","trial_index":99,"time_elapsed":4631668,"internal_node_id":"0.0-5.0-45.0"},{"group":"hexagon_bi","fractal_assignment":["../images/ylw_slt.png","../images/org_blu.png","../images/blu_wht.png","../images/pnk_blu.png","../images/gry_blk.png","../images/cyn_red.png"],"mutagen_generator_assignment":[1,0],"goal":4,"start":2,"action_noise":0,"location_history":"[2,3,4]","action_history":"[1,0]","mutagen_history":"[0,1]","location_rts":"[656,656]","trial_type":"fractal-mutation","trial_index":100,"time_elapsed":4639071,"internal_node_id":"0.0-5.0-46.0"},{"group":"hexagon_bi","fractal_assignment":["../images/ylw_slt.png","../images/org_blu.png","../images/blu_wht.png","../images/pnk_blu.png","../images/gry_blk.png","../images/cyn_red.png"],"mutagen_generator_assignment":[1,0],"goal":1,"start":4,"action_noise":0,"location_history":"[4,5,0,1]","action_history":"[1,0,1]","mutagen_history":"[0,1,0]","location_rts":"[565,420,8283]","trial_type":"fractal-mutation","trial_index":101,"time_elapsed":4655614,"internal_node_id":"0.0-5.0-47.0"},{"group":"hexagon_bi","fractal_assignment":["../images/ylw_slt.png","../images/org_blu.png","../images/blu_wht.png","../images/pnk_blu.png","../images/gry_blk.png","../images/cyn_red.png"],"mutagen_generator_assignment":[1,0],"goal":5,"start":1,"action_noise":0,"location_history":"[1,2,3,4,3,4,3,2,3,4,5]","action_history":"[0,1,0,0,0,0,1,1,0,1]","mutagen_history":"[1,0,1,1,1,1,0,0,1,0]","location_rts":"[660,350,299,383,366,384,322,327,319,322]","trial_type":"fractal-mutation","trial_index":102,"time_elapsed":4673888,"internal_node_id":"0.0-5.0-48.0"},{"group":"hexagon_bi","fractal_assignment":["../images/ylw_slt.png","../images/org_blu.png","../images/blu_wht.png","../images/pnk_blu.png","../images/gry_blk.png","../images/cyn_red.png"],"mutagen_generator_assignment":[1,0],"goal":3,"start":5,"action_noise":0,"location_history":"[5,4,5,0,5,0,1,0,1,0,1,2,1,0,5,0,1,0,1,0,1,2,1,0,1,0,5,0,1,0,1,0,1,2,1,2,1,2,1,0,1,0,1,0,5,4,3]","action_history":"[1,1,0,0,0,1,1,1,1,1,0,0,1,0,0,1,1,1,1,1,0,0,1,1,1,0,0,1,1,1,1,1,0,0,0,0,0,0,1,1,1,1,1,0,1,0]","mutagen_history":"[0,0,1,1,1,0,0,0,0,0,1,1,0,1,1,0,0,0,0,0,1,1,0,0,0,1,1,0,0,0,0,0,1,1,1,1,1,1,0,0,0,0,0,1,0,1]","location_rts":"[507,2124,500,393,463,323,3598,461,455,39941,854,538,1875,469,439,418,509,474,449,750,330,665,576,672,539,504,433,479,354,410,374,407,286,407,371,1540,904,1307,1047,458,542,561,526,797,935,1863]","trial_type":"fractal-mutation","trial_index":103,"time_elapsed":4799691,"internal_node_id":"0.0-5.0-49.0"},{"view_history":"[{\"page_index\":0,\"viewing_time\":6093}]","rt":6094,"trial_type":"instructions","trial_index":104,"time_elapsed":4806789,"internal_node_id":"0.0-6.0"},{"rt":4521,"responses":"{\"Q0\":\"\"}","trial_type":"survey-text","trial_index":105,"time_elapsed":4812322,"internal_node_id":"0.0-7.0"}]