[{"view_history":"[{\"page_index\":0,\"viewing_time\":122825},{\"page_index\":1,\"viewing_time\":10262}]","rt":133090,"trial_type":"instructions","trial_index":0,"time_elapsed":133094,"internal_node_id":"0.0-0.0"},{"view_history":"[{\"page_index\":0,\"viewing_time\":3265},{\"page_index\":1,\"viewing_time\":6356}]","rt":9622,"trial_type":"instructions","trial_index":1,"time_elapsed":143721,"internal_node_id":"0.0-1.0"},{"group":"hexagon_tri","room_assignment":["purple","yellow","red","blue","grey","green"],"door_color_assignment":["black","white"],"door_generator_assignment":[0,1],"goal":3,"start":5,"action_noise":0,"location_history":"[5,4,0,5,0,1,3]","action_history":"[0,0,0,1,1,0]","door_history":"[0,0,0,1,1,0]","location_rts":"[3306,2764,1025,725,2579,2485]","trial_type":"two-door-navigation","trial_index":2,"time_elapsed":166902,"internal_node_id":"0.0-2.0-0.0"},{"group":"hexagon_tri","room_assignment":["purple","yellow","red","blue","grey","green"],"door_color_assignment":["black","white"],"door_generator_assignment":[0,1],"goal":1,"start":3,"action_noise":0,"location_history":"[3,4,2,1]","action_history":"[1,1,0]","door_history":"[1,1,0]","location_rts":"[2680,2633,1666]","trial_type":"two-door-navigation","trial_index":3,"time_elapsed":181000,"internal_node_id":"0.0-2.0-1.0"},{"group":"hexagon_tri","room_assignment":["purple","yellow","red","blue","grey","green"],"door_color_assignment":["black","white"],"door_generator_assignment":[0,1],"goal":0,"start":1,"action_noise":0,"location_history":"[1,5,4,0]","action_history":"[1,0,0]","door_history":"[1,0,0]","location_rts":"[4831,545,804]","trial_type":"two-door-navigation","trial_index":4,"time_elapsed":194330,"internal_node_id":"0.0-2.0-2.0"},{"group":"hexagon_tri","room_assignment":["purple","yellow","red","blue","grey","green"],"door_color_assignment":["black","white"],"door_generator_assignment":[0,1],"goal":3,"start":0,"action_noise":0,"location_history":"[0,5,4,2,1,5,0,5,4,0,5,0,1,5,0,1,3]","action_history":"[0,0,1,0,1,1,0,0,0,0,1,1,1,1,1,0]","door_history":"[0,0,1,0,1,1,0,0,0,0,1,1,1,1,1,0]","location_rts":"[1766,1459,948,482,1262,1179,1303,303,399,314,890,585,723,536,345,698]","trial_type":"two-door-navigation","trial_index":5,"time_elapsed":228230,"internal_node_id":"0.0-2.0-3.0"},{"group":"hexagon_tri","room_assignment":["purple","yellow","red","blue","grey","green"],"door_color_assignment":["black","white"],"door_generator_assignment":[0,1],"goal":4,"start":3,"action_noise":0,"location_history":"[3,2,3,2,1,3,2,1,5,4]","action_history":"[0,1,0,0,0,0,0,1,0]","door_history":"[0,1,0,0,0,0,0,1,0]","location_rts":"[2554,2899,727,374,887,498,1469,259,1190]","trial_type":"two-door-navigation","trial_index":6,"time_elapsed":252513,"internal_node_id":"0.0-2.0-4.0"},{"group":"hexagon_tri","room_assignment":["purple","yellow","red","blue","grey","green"],"door_color_assignment":["black","white"],"door_generator_assignment":[0,1],"goal":2,"start":4,"action_noise":0,"location_history":"[4,2]","action_history":"[1]","door_history":"[1]","location_rts":"[2130]","trial_type":"two-door-navigation","trial_index":7,"time_elapsed":259708,"internal_node_id":"0.0-2.0-5.0"},{"group":"hexagon_tri","room_assignment":["purple","yellow","red","blue","grey","green"],"door_color_assignment":["black","white"],"door_generator_assignment":[0,1],"goal":1,"start":2,"action_noise":0,"location_history":"[2,1]","action_history":"[0]","door_history":"[0]","location_rts":"[3528]","trial_type":"two-door-navigation","trial_index":8,"time_elapsed":268282,"internal_node_id":"0.0-2.0-6.0"},{"group":"hexagon_tri","room_assignment":["purple","yellow","red","blue","grey","green"],"door_color_assignment":["black","white"],"door_generator_assignment":[0,1],"goal":5,"start":1,"action_noise":0,"location_history":"[1,5]","action_history":"[1]","door_history":"[1]","location_rts":"[3248]","trial_type":"two-door-navigation","trial_index":9,"time_elapsed":276584,"internal_node_id":"0.0-2.0-7.0"},{"group":"hexagon_tri","room_assignment":["purple","yellow","red","blue","grey","green"],"door_color_assignment":["black","white"],"door_generator_assignment":[0,1],"goal":4,"start":5,"action_noise":0,"location_history":"[5,4]","action_history":"[0]","door_history":"[0]","location_rts":"[2789]","trial_type":"two-door-navigation","trial_index":10,"time_elapsed":284437,"internal_node_id":"0.0-2.0-8.0"},{"group":"hexagon_tri","room_assignment":["purple","yellow","red","blue","grey","green"],"door_color_assignment":["black","white"],"door_generator_assignment":[0,1],"goal":2,"start":4,"action_noise":0,"location_history":"[4,2]","action_history":"[1]","door_history":"[1]","location_rts":"[3517]","trial_type":"two-door-navigation","trial_index":11,"time_elapsed":293016,"internal_node_id":"0.0-2.0-9.0"},{"group":"hexagon_tri","room_assignment":["purple","yellow","red","blue","grey","green"],"door_color_assignment":["black","white"],"door_generator_assignment":[0,1],"goal":0,"start":2,"action_noise":0,"location_history":"[2,1,3,2,1,5,4,0]","action_history":"[0,0,0,0,1,0,0]","door_history":"[0,0,0,0,1,0,0]","location_rts":"[1777,5228,2962,1102,1357,688,690]","trial_type":"two-door-navigation","trial_index":12,"time_elapsed":318131,"internal_node_id":"0.0-2.0-10.0"},{"group":"hexagon_tri","room_assignment":["purple","yellow","red","blue","grey","green"],"door_color_assignment":["black","white"],"door_generator_assignment":[0,1],"goal":1,"start":0,"action_noise":0,"location_history":"[0,1]","action_history":"[1]","door_history":"[1]","location_rts":"[3182]","trial_type":"two-door-navigation","trial_index":13,"time_elapsed":326545,"internal_node_id":"0.0-2.0-11.0"},{"group":"hexagon_tri","room_assignment":["purple","yellow","red","blue","grey","green"],"door_color_assignment":["black","white"],"door_generator_assignment":[0,1],"goal":3,"start":1,"action_noise":0,"location_history":"[1,5,4,2,3]","action_history":"[1,0,1,1]","door_history":"[1,0,1,1]","location_rts":"[4632,995,1502,433]","trial_type":"two-door-navigation","trial_index":14,"time_elapsed":342332,"internal_node_id":"0.0-2.0-12.0"},{"group":"hexagon_tri","room_assignment":["purple","yellow","red","blue","grey","green"],"door_color_assignment":["black","white"],"door_generator_assignment":[0,1],"goal":5,"start":3,"action_noise":0,"location_history":"[3,4,2,3,2,1,5]","action_history":"[1,1,1,0,0,1]","door_history":"[1,1,1,0,0,1]","location_rts":"[2354,2141,396,630,1487,1758]","trial_type":"two-door-navigation","trial_index":15,"time_elapsed":361368,"internal_node_id":"0.0-2.0-13.0"},{"group":"hexagon_tri","room_assignment":["purple","yellow","red","blue","grey","green"],"door_color_assignment":["black","white"],"door_generator_assignment":[0,1],"goal":4,"start":5,"action_noise":0,"location_history":"[5,0,1,3,2,1,3,2,3,2,3,4]","action_history":"[1,1,0,0,0,0,0,1,0,1,1]","door_history":"[1,1,0,0,0,0,0,1,0,1,1]","location_rts":"[8479,1635,1522,543,343,993,932,482,776,650,515]","trial_type":"two-door-navigation","trial_index":16,"time_elapsed":393674,"internal_node_id":"0.0-2.0-14.0"},{"group":"hexagon_tri","room_assignment":["purple","yellow","red","blue","grey","green"],"door_color_assignment":["black","white"],"door_generator_assignment":[0,1],"goal":0,"start":4,"action_noise":0,"location_history":"[4,0]","action_history":"[0]","door_history":"[0]","location_rts":"[1536]","trial_type":"two-door-navigation","trial_index":17,"time_elapsed":400341,"internal_node_id":"0.0-2.0-15.0"},{"group":"hexagon_tri","room_assignment":["purple","yellow","red","blue","grey","green"],"door_color_assignment":["black","white"],"door_generator_assignment":[0,1],"goal":3,"start":0,"action_noise":0,"location_history":"[0,5,4,0,5,0,1,3]","action_history":"[0,0,0,0,1,1,0]","door_history":"[0,0,0,0,1,1,0]","location_rts":"[1445,1382,1570,696,584,1079,962]","trial_type":"two-door-navigation","trial_index":18,"time_elapsed":419319,"internal_node_id":"0.0-2.0-16.0"},{"group":"hexagon_tri","room_assignment":["purple","yellow","red","blue","grey","green"],"door_color_assignment":["black","white"],"door_generator_assignment":[0,1],"goal":1,"start":3,"action_noise":0,"location_history":"[3,4,0,1]","action_history":"[1,0,1]","door_history":"[1,0,1]","location_rts":"[1791,880,648]","trial_type":"two-door-navigation","trial_index":19,"time_elapsed":429761,"internal_node_id":"0.0-2.0-17.0"},{"group":"hexagon_tri","room_assignment":["purple","yellow","red","blue","grey","green"],"door_color_assignment":["black","white"],"door_generator_assignment":[0,1],"goal":5,"start":1,"action_noise":0,"location_history":"[1,3,4,2,3,2,1,3,2,1,5]","action_history":"[0,1,1,1,0,0,0,0,0,1]","door_history":"[0,1,1,1,0,0,0,0,0,1]","location_rts":"[3840,1328,1719,2316,711,1053,110,488,297,754]","trial_type":"two-door-navigation","trial_index":20,"time_elapsed":456928,"internal_node_id":"0.0-2.0-18.0"},{"group":"hexagon_tri","room_assignment":["purple","yellow","red","blue","grey","green"],"door_color_assignment":["black","white"],"door_generator_assignment":[0,1],"goal":2,"start":5,"action_noise":0,"location_history":"[5,4,2]","action_history":"[0,1]","door_history":"[0,1]","location_rts":"[2725,1152]","trial_type":"two-door-navigation","trial_index":21,"time_elapsed":466900,"internal_node_id":"0.0-2.0-19.0"},{"group":"hexagon_tri","room_assignment":["purple","yellow","red","blue","grey","green"],"door_color_assignment":["black","white"],"door_generator_assignment":[0,1],"goal":4,"start":2,"action_noise":0,"location_history":"[2,1,3,2,1,3,4]","action_history":"[0,0,0,0,0,1]","door_history":"[0,0,0,0,0,1]","location_rts":"[4415,2090,1786,476,535,245]","trial_type":"two-door-navigation","trial_index":22,"time_elapsed":486660,"internal_node_id":"0.0-2.0-20.0"},{"group":"hexagon_tri","room_assignment":["purple","yellow","red","blue","grey","green"],"door_color_assignment":["black","white"],"door_generator_assignment":[0,1],"goal":1,"start":4,"action_noise":0,"location_history":"[4,2,1]","action_history":"[1,0]","door_history":"[1,0]","location_rts":"[2901,1723]","trial_type":"two-door-navigation","trial_index":23,"time_elapsed":497377,"internal_node_id":"0.0-2.0-21.0"},{"group":"hexagon_tri","room_assignment":["purple","yellow","red","blue","grey","green"],"door_color_assignment":["black","white"],"door_generator_assignment":[0,1],"goal":3,"start":1,"action_noise":0,"location_history":"[1,5,4,2,1,5,0,1,3]","action_history":"[1,0,1,0,1,1,1,0]","door_history":"[1,0,1,0,1,1,1,0]","location_rts":"[1897,742,1051,537,1003,793,424,624]","trial_type":"two-door-navigation","trial_index":24,"time_elapsed":516761,"internal_node_id":"0.0-2.0-22.0"},{"group":"hexagon_tri","room_assignment":["purple","yellow","red","blue","grey","green"],"door_color_assignment":["black","white"],"door_generator_assignment":[0,1],"goal":2,"start":3,"action_noise":0,"location_history":"[3,2]","action_history":"[0]","door_history":"[0]","location_rts":"[3448]","trial_type":"two-door-navigation","trial_index":25,"time_elapsed":525379,"internal_node_id":"0.0-2.0-23.0"},{"group":"hexagon_tri","room_assignment":["purple","yellow","red","blue","grey","green"],"door_color_assignment":["black","white"],"door_generator_assignment":[0,1],"goal":0,"start":2,"action_noise":0,"location_history":"[2,1,5,4,0]","action_history":"[0,1,0,0]","door_history":"[0,1,0,0]","location_rts":"[3000,2346,740,1247]","trial_type":"two-door-navigation","trial_index":26,"time_elapsed":546553,"internal_node_id":"0.0-2.0-24.0"},{"group":"hexagon_tri","room_assignment":["purple","yellow","red","blue","grey","green"],"door_color_assignment":["black","white"],"door_generator_assignment":[0,1],"goal":5,"start":0,"action_noise":0,"location_history":"[0,1,3,2,1,5]","action_history":"[1,0,0,0,1]","door_history":"[1,0,0,0,1]","location_rts":"[1929,669,811,414,1020]","trial_type":"two-door-navigation","trial_index":27,"time_elapsed":560654,"internal_node_id":"0.0-2.0-25.0"},{"group":"hexagon_tri","room_assignment":["purple","yellow","red","blue","grey","green"],"door_color_assignment":["black","white"],"door_generator_assignment":[0,1],"goal":2,"start":5,"action_noise":0,"location_history":"[5,4,2]","action_history":"[0,1]","door_history":"[0,1]","location_rts":"[2030,1116]","trial_type":"two-door-navigation","trial_index":28,"time_elapsed":569903,"internal_node_id":"0.0-2.0-26.0"},{"group":"hexagon_tri","room_assignment":["purple","yellow","red","blue","grey","green"],"door_color_assignment":["black","white"],"door_generator_assignment":[0,1],"goal":3,"start":2,"action_noise":0,"location_history":"[2,3]","action_history":"[1]","door_history":"[1]","location_rts":"[3453]","trial_type":"two-door-navigation","trial_index":29,"time_elapsed":578403,"internal_node_id":"0.0-2.0-27.0"},{"group":"hexagon_tri","room_assignment":["purple","yellow","red","blue","grey","green"],"door_color_assignment":["black","white"],"door_generator_assignment":[0,1],"goal":0,"start":3,"action_noise":0,"location_history":"[3,4,0]","action_history":"[1,0]","door_history":"[1,0]","location_rts":"[2477,498]","trial_type":"two-door-navigation","trial_index":30,"time_elapsed":587470,"internal_node_id":"0.0-2.0-28.0"},{"group":"hexagon_tri","room_assignment":["purple","yellow","red","blue","grey","green"],"door_color_assignment":["black","white"],"door_generator_assignment":[0,1],"goal":1,"start":0,"action_noise":0,"location_history":"[0,5,0,5,4,2,3,4,2,3,2,1]","action_history":"[0,1,0,0,1,1,1,1,1,0,0]","door_history":"[0,1,0,0,1,1,1,1,1,0,0]","location_rts":"[2234,1295,1361,1162,2814,618,868,649,642,278,691]","trial_type":"two-door-navigation","trial_index":31,"time_elapsed":616040,"internal_node_id":"0.0-2.0-29.0"},{"group":"hexagon_tri","room_assignment":["purple","yellow","red","blue","grey","green"],"door_color_assignment":["black","white"],"door_generator_assignment":[0,1],"goal":4,"start":1,"action_noise":0,"location_history":"[1,3,2,3,4]","action_history":"[0,0,1,1]","door_history":"[0,0,1,1]","location_rts":"[1817,515,741,512]","trial_type":"two-door-navigation","trial_index":32,"time_elapsed":627843,"internal_node_id":"0.0-2.0-30.0"},{"group":"hexagon_tri","room_assignment":["purple","yellow","red","blue","grey","green"],"door_color_assignment":["black","white"],"door_generator_assignment":[0,1],"goal":5,"start":4,"action_noise":0,"location_history":"[4,2,1,5]","action_history":"[1,0,1]","door_history":"[1,0,1]","location_rts":"[1792,1589,3057]","trial_type":"two-door-navigation","trial_index":33,"time_elapsed":641403,"internal_node_id":"0.0-2.0-31.0"},{"group":"hexagon_tri","room_assignment":["purple","yellow","red","blue","grey","green"],"door_color_assignment":["black","white"],"door_generator_assignment":[0,1],"goal":0,"start":5,"action_noise":0,"location_history":"[5,4,0]","action_history":"[0,0]","door_history":"[0,0]","location_rts":"[1028,1378]","trial_type":"two-door-navigation","trial_index":34,"time_elapsed":649889,"internal_node_id":"0.0-2.0-32.0"},{"group":"hexagon_tri","room_assignment":["purple","yellow","red","blue","grey","green"],"door_color_assignment":["black","white"],"door_generator_assignment":[0,1],"goal":3,"start":0,"action_noise":0,"location_history":"[0,1,3]","action_history":"[1,0]","door_history":"[1,0]","location_rts":"[1664,699]","trial_type":"two-door-navigation","trial_index":35,"time_elapsed":658336,"internal_node_id":"0.0-2.0-33.0"},{"group":"hexagon_tri","room_assignment":["purple","yellow","red","blue","grey","green"],"door_color_assignment":["black","white"],"door_generator_assignment":[0,1],"goal":1,"start":3,"action_noise":0,"location_history":"[3,4,0,5,4,0,1]","action_history":"[1,0,0,0,0,1]","door_history":"[1,0,0,0,0,1]","location_rts":"[2671,489,879,311,691,1025]","trial_type":"two-door-navigation","trial_index":36,"time_elapsed":675266,"internal_node_id":"0.0-2.0-34.0"},{"group":"hexagon_tri","room_assignment":["purple","yellow","red","blue","grey","green"],"door_color_assignment":["black","white"],"door_generator_assignment":[0,1],"goal":2,"start":1,"action_noise":0,"location_history":"[1,3,2]","action_history":"[0,0]","door_history":"[0,0]","location_rts":"[1183,499]","trial_type":"two-door-navigation","trial_index":37,"time_elapsed":683052,"internal_node_id":"0.0-2.0-35.0"},{"group":"hexagon_tri","room_assignment":["purple","yellow","red","blue","grey","green"],"door_color_assignment":["black","white"],"door_generator_assignment":[0,1],"goal":4,"start":2,"action_noise":0,"location_history":"[2,3,2,1,3,2,1,5,0,1,5,4]","action_history":"[1,0,0,0,0,0,1,1,1,1,0]","door_history":"[1,0,0,0,0,0,1,1,1,1,0]","location_rts":"[1377,850,508,462,401,439,697,427,870,446,921]","trial_type":"two-door-navigation","trial_index":38,"time_elapsed":705906,"internal_node_id":"0.0-2.0-36.0"},{"group":"hexagon_tri","room_assignment":["purple","yellow","red","blue","grey","green"],"door_color_assignment":["black","white"],"door_generator_assignment":[0,1],"goal":5,"start":4,"action_noise":0,"location_history":"[4,0,1,5]","action_history":"[0,1,1]","door_history":"[0,1,1]","location_rts":"[3820,951,965]","trial_type":"two-door-navigation","trial_index":39,"time_elapsed":718760,"internal_node_id":"0.0-2.0-37.0"},{"group":"hexagon_tri","room_assignment":["purple","yellow","red","blue","grey","green"],"door_color_assignment":["black","white"],"door_generator_assignment":[0,1],"goal":1,"start":5,"action_noise":0,"location_history":"[5,4,2,3,2,3,2,1]","action_history":"[0,1,1,0,1,0,0]","door_history":"[0,1,1,0,1,0,0]","location_rts":"[1234,585,696,6095,7354,581,562]","trial_type":"two-door-navigation","trial_index":40,"time_elapsed":747148,"internal_node_id":"0.0-2.0-38.0"},{"group":"hexagon_tri","room_assignment":["purple","yellow","red","blue","grey","green"],"door_color_assignment":["black","white"],"door_generator_assignment":[0,1],"goal":4,"start":1,"action_noise":0,"location_history":"[1,5,4]","action_history":"[1,0]","door_history":"[1,0]","location_rts":"[1945,661]","trial_type":"two-door-navigation","trial_index":41,"time_elapsed":755851,"internal_node_id":"0.0-2.0-39.0"},{"group":"hexagon_tri","room_assignment":["purple","yellow","red","blue","grey","green"],"door_color_assignment":["black","white"],"door_generator_assignment":[0,1],"goal":3,"start":4,"action_noise":0,"location_history":"[4,2,1,5,0,5,4,0,1,5,0,1,3]","action_history":"[1,0,1,1,0,0,0,1,1,1,1,0]","door_history":"[1,0,1,1,0,0,0,1,1,1,1,0]","location_rts":"[868,628,722,519,437,485,402,476,683,696,531,475]","trial_type":"two-door-navigation","trial_index":42,"time_elapsed":779284,"internal_node_id":"0.0-2.0-40.0"},{"group":"hexagon_tri","room_assignment":["purple","yellow","red","blue","grey","green"],"door_color_assignment":["black","white"],"door_generator_assignment":[0,1],"goal":2,"start":3,"action_noise":0,"location_history":"[3,2]","action_history":"[0]","door_history":"[0]","location_rts":"[8881]","trial_type":"two-door-navigation","trial_index":43,"time_elapsed":793381,"internal_node_id":"0.0-2.0-41.0"},{"group":"hexagon_tri","room_assignment":["purple","yellow","red","blue","grey","green"],"door_color_assignment":["black","white"],"door_generator_assignment":[0,1],"goal":0,"start":2,"action_noise":0,"location_history":"[2,3,2,1,3,4,0]","action_history":"[1,0,0,0,1,0]","door_history":"[1,0,0,0,1,0]","location_rts":"[1082,706,439,366,1313,725]","trial_type":"two-door-navigation","trial_index":44,"time_elapsed":808246,"internal_node_id":"0.0-2.0-42.0"},{"group":"hexagon_tri","room_assignment":["purple","yellow","red","blue","grey","green"],"door_color_assignment":["black","white"],"door_generator_assignment":[0,1],"goal":5,"start":0,"action_noise":0,"location_history":"[0,1,3,4,0,5]","action_history":"[1,0,1,0,0]","door_history":"[1,0,1,0,0]","location_rts":"[1981,941,790,365,155]","trial_type":"two-door-navigation","trial_index":45,"time_elapsed":821670,"internal_node_id":"0.0-2.0-43.0"},{"group":"hexagon_tri","room_assignment":["purple","yellow","red","blue","grey","green"],"door_color_assignment":["black","white"],"door_generator_assignment":[0,1],"goal":0,"start":5,"action_noise":0,"location_history":"[5,4,0]","action_history":"[0,0]","door_history":"[0,0]","location_rts":"[33856,670]","trial_type":"two-door-navigation","trial_index":46,"time_elapsed":862276,"internal_node_id":"0.0-2.0-44.0"},{"group":"hexagon_tri","room_assignment":["purple","yellow","red","blue","grey","green"],"door_color_assignment":["black","white"],"door_generator_assignment":[0,1],"goal":2,"start":0,"action_noise":0,"location_history":"[0,5,4,2]","action_history":"[0,0,1]","door_history":"[0,0,1]","location_rts":"[2815,598,662]","trial_type":"two-door-navigation","trial_index":47,"time_elapsed":873474,"internal_node_id":"0.0-2.0-45.0"},{"group":"hexagon_tri","room_assignment":["purple","yellow","red","blue","grey","green"],"door_color_assignment":["black","white"],"door_generator_assignment":[0,1],"goal":4,"start":2,"action_noise":0,"location_history":"[2,1,3,4]","action_history":"[0,0,1]","door_history":"[0,0,1]","location_rts":"[3135,884,743]","trial_type":"two-door-navigation","trial_index":48,"time_elapsed":885370,"internal_node_id":"0.0-2.0-46.0"},{"group":"hexagon_tri","room_assignment":["purple","yellow","red","blue","grey","green"],"door_color_assignment":["black","white"],"door_generator_assignment":[0,1],"goal":1,"start":4,"action_noise":0,"location_history":"[4,2,1]","action_history":"[1,0]","door_history":"[1,0]","location_rts":"[1629,1152]","trial_type":"two-door-navigation","trial_index":49,"time_elapsed":894258,"internal_node_id":"0.0-2.0-47.0"},{"group":"hexagon_tri","room_assignment":["purple","yellow","red","blue","grey","green"],"door_color_assignment":["black","white"],"door_generator_assignment":[0,1],"goal":5,"start":1,"action_noise":0,"location_history":"[1,5]","action_history":"[1]","door_history":"[1]","location_rts":"[3353]","trial_type":"two-door-navigation","trial_index":50,"time_elapsed":902673,"internal_node_id":"0.0-2.0-48.0"},{"group":"hexagon_tri","room_assignment":["purple","yellow","red","blue","grey","green"],"door_color_assignment":["black","white"],"door_generator_assignment":[0,1],"goal":3,"start":5,"action_noise":0,"location_history":"[5,4,2,1,5,0,1,3]","action_history":"[0,1,0,1,1,1,0]","door_history":"[0,1,0,1,1,1,0]","location_rts":"[4040,757,687,738,755,718,560]","trial_type":"two-door-navigation","trial_index":51,"time_elapsed":922295,"internal_node_id":"0.0-2.0-49.0"},{"view_history":"[{\"page_index\":0,\"viewing_time\":2663}]","rt":2663,"trial_type":"instructions","trial_index":52,"time_elapsed":925961,"internal_node_id":"0.0-3.0"},{"view_history":"[{\"page_index\":0,\"viewing_time\":3532},{\"page_index\":1,\"viewing_time\":2074}]","rt":5607,"trial_type":"instructions","trial_index":53,"time_elapsed":932572,"internal_node_id":"0.0-4.0"},{"group":"hexagon_tri","fractal_assignment":["../images/gry_blk.png","../images/org_blu.png","../images/cyn_red.png","../images/blu_wht.png","../images/pnk_blu.png","../images/ylw_slt.png"],"mutagen_generator_assignment":[1,0],"goal":3,"start":5,"action_noise":0,"location_history":"[5,0,5,0,1,3]","action_history":"[1,0,1,1,0]","mutagen_history":"[0,1,0,0,1]","location_rts":"[5573,1108,579,715,466]","trial_type":"fractal-mutation","trial_index":54,"time_elapsed":950511,"internal_node_id":"0.0-5.0-0.0"},{"group":"hexagon_tri","fractal_assignment":["../images/gry_blk.png","../images/org_blu.png","../images/cyn_red.png","../images/blu_wht.png","../images/pnk_blu.png","../images/ylw_slt.png"],"mutagen_generator_assignment":[1,0],"goal":1,"start":3,"action_noise":0,"location_history":"[3,4,0,1]","action_history":"[1,0,1]","mutagen_history":"[0,1,0]","location_rts":"[2034,947,2282]","trial_type":"fractal-mutation","trial_index":55,"time_elapsed":963069,"internal_node_id":"0.0-5.0-1.0"},{"group":"hexagon_tri","fractal_assignment":["../images/gry_blk.png","../images/org_blu.png","../images/cyn_red.png","../images/blu_wht.png","../images/pnk_blu.png","../images/ylw_slt.png"],"mutagen_generator_assignment":[1,0],"goal":0,"start":1,"action_noise":0,"location_history":"[1,5,4,0]","action_history":"[1,0,0]","mutagen_history":"[0,1,1]","location_rts":"[1092,501,1336]","trial_type":"fractal-mutation","trial_index":56,"time_elapsed":973341,"internal_node_id":"0.0-5.0-2.0"},{"group":"hexagon_tri","fractal_assignment":["../images/gry_blk.png","../images/org_blu.png","../images/cyn_red.png","../images/blu_wht.png","../images/pnk_blu.png","../images/ylw_slt.png"],"mutagen_generator_assignment":[1,0],"goal":3,"start":0,"action_noise":0,"location_history":"[0,1,3]","action_history":"[1,0]","mutagen_history":"[0,1]","location_rts":"[2955,1401]","trial_type":"fractal-mutation","trial_index":57,"time_elapsed":984061,"internal_node_id":"0.0-5.0-3.0"},{"group":"hexagon_tri","fractal_assignment":["../images/gry_blk.png","../images/org_blu.png","../images/cyn_red.png","../images/blu_wht.png","../images/pnk_blu.png","../images/ylw_slt.png"],"mutagen_generator_assignment":[1,0],"goal":4,"start":3,"action_noise":0,"location_history":"[3,2,1,5,4]","action_history":"[0,0,1,0]","mutagen_history":"[1,1,0,1]","location_rts":"[1769,475,416,997]","trial_type":"fractal-mutation","trial_index":58,"time_elapsed":996240,"internal_node_id":"0.0-5.0-4.0"},{"group":"hexagon_tri","fractal_assignment":["../images/gry_blk.png","../images/org_blu.png","../images/cyn_red.png","../images/blu_wht.png","../images/pnk_blu.png","../images/ylw_slt.png"],"mutagen_generator_assignment":[1,0],"goal":2,"start":4,"action_noise":0,"location_history":"[4,2]","action_history":"[1]","mutagen_history":"[0]","location_rts":"[3069]","trial_type":"fractal-mutation","trial_index":59,"time_elapsed":1004402,"internal_node_id":"0.0-5.0-5.0"},{"group":"hexagon_tri","fractal_assignment":["../images/gry_blk.png","../images/org_blu.png","../images/cyn_red.png","../images/blu_wht.png","../images/pnk_blu.png","../images/ylw_slt.png"],"mutagen_generator_assignment":[1,0],"goal":1,"start":2,"action_noise":0,"location_history":"[2,3,4,0,1]","action_history":"[1,1,0,1]","mutagen_history":"[0,0,1,0]","location_rts":"[1578,837,442,597]","trial_type":"fractal-mutation","trial_index":60,"time_elapsed":1016243,"internal_node_id":"0.0-5.0-6.0"},{"group":"hexagon_tri","fractal_assignment":["../images/gry_blk.png","../images/org_blu.png","../images/cyn_red.png","../images/blu_wht.png","../images/pnk_blu.png","../images/ylw_slt.png"],"mutagen_generator_assignment":[1,0],"goal":5,"start":1,"action_noise":0,"location_history":"[1,5]","action_history":"[1]","mutagen_history":"[0]","location_rts":"[1526]","trial_type":"fractal-mutation","trial_index":61,"time_elapsed":1022849,"internal_node_id":"0.0-5.0-7.0"},{"group":"hexagon_tri","fractal_assignment":["../images/gry_blk.png","../images/org_blu.png","../images/cyn_red.png","../images/blu_wht.png","../images/pnk_blu.png","../images/ylw_slt.png"],"mutagen_generator_assignment":[1,0],"goal":4,"start":5,"action_noise":0,"location_history":"[5,0,5,4]","action_history":"[1,0,0]","mutagen_history":"[0,1,1]","location_rts":"[1915,637,844]","trial_type":"fractal-mutation","trial_index":62,"time_elapsed":1033556,"internal_node_id":"0.0-5.0-8.0"},{"group":"hexagon_tri","fractal_assignment":["../images/gry_blk.png","../images/org_blu.png","../images/cyn_red.png","../images/blu_wht.png","../images/pnk_blu.png","../images/ylw_slt.png"],"mutagen_generator_assignment":[1,0],"goal":2,"start":4,"action_noise":0,"location_history":"[4,2]","action_history":"[1]","mutagen_history":"[0]","location_rts":"[1326]","trial_type":"fractal-mutation","trial_index":63,"time_elapsed":1040019,"internal_node_id":"0.0-5.0-9.0"},{"group":"hexagon_tri","fractal_assignment":["../images/gry_blk.png","../images/org_blu.png","../images/cyn_red.png","../images/blu_wht.png","../images/pnk_blu.png","../images/ylw_slt.png"],"mutagen_generator_assignment":[1,0],"goal":0,"start":2,"action_noise":0,"location_history":"[2,1,5,4,0]","action_history":"[0,1,0,0]","mutagen_history":"[1,0,1,1]","location_rts":"[1360,671,528,695]","trial_type":"fractal-mutation","trial_index":64,"time_elapsed":1052073,"internal_node_id":"0.0-5.0-10.0"},{"group":"hexagon_tri","fractal_assignment":["../images/gry_blk.png","../images/org_blu.png","../images/cyn_red.png","../images/blu_wht.png","../images/pnk_blu.png","../images/ylw_slt.png"],"mutagen_generator_assignment":[1,0],"goal":1,"start":0,"action_noise":0,"location_history":"[0,1]","action_history":"[1]","mutagen_history":"[0]","location_rts":"[820]","trial_type":"fractal-mutation","trial_index":65,"time_elapsed":1057970,"internal_node_id":"0.0-5.0-11.0"},{"group":"hexagon_tri","fractal_assignment":["../images/gry_blk.png","../images/org_blu.png","../images/cyn_red.png","../images/blu_wht.png","../images/pnk_blu.png","../images/ylw_slt.png"],"mutagen_generator_assignment":[1,0],"goal":3,"start":1,"action_noise":0,"location_history":"[1,5,4,0,1,3]","action_history":"[1,0,0,1,0]","mutagen_history":"[0,1,1,0,1]","location_rts":"[2501,781,881,597,587]","trial_type":"fractal-mutation","trial_index":66,"time_elapsed":1072759,"internal_node_id":"0.0-5.0-12.0"},{"group":"hexagon_tri","fractal_assignment":["../images/gry_blk.png","../images/org_blu.png","../images/cyn_red.png","../images/blu_wht.png","../images/pnk_blu.png","../images/ylw_slt.png"],"mutagen_generator_assignment":[1,0],"goal":5,"start":3,"action_noise":0,"location_history":"[3,4,0,1,5]","action_history":"[1,0,1,1]","mutagen_history":"[0,1,0,0]","location_rts":"[4523,1280,532,510]","trial_type":"fractal-mutation","trial_index":67,"time_elapsed":1087933,"internal_node_id":"0.0-5.0-13.0"},{"group":"hexagon_tri","fractal_assignment":["../images/gry_blk.png","../images/org_blu.png","../images/cyn_red.png","../images/blu_wht.png","../images/pnk_blu.png","../images/ylw_slt.png"],"mutagen_generator_assignment":[1,0],"goal":4,"start":5,"action_noise":0,"location_history":"[5,0,5,4]","action_history":"[1,0,0]","mutagen_history":"[0,1,1]","location_rts":"[1362,1906,628]","trial_type":"fractal-mutation","trial_index":68,"time_elapsed":1099180,"internal_node_id":"0.0-5.0-14.0"},{"group":"hexagon_tri","fractal_assignment":["../images/gry_blk.png","../images/org_blu.png","../images/cyn_red.png","../images/blu_wht.png","../images/pnk_blu.png","../images/ylw_slt.png"],"mutagen_generator_assignment":[1,0],"goal":0,"start":4,"action_noise":0,"location_history":"[4,0]","action_history":"[0]","mutagen_history":"[1]","location_rts":"[1565]","trial_type":"fractal-mutation","trial_index":69,"time_elapsed":1105877,"internal_node_id":"0.0-5.0-15.0"},{"group":"hexagon_tri","fractal_assignment":["../images/gry_blk.png","../images/org_blu.png","../images/cyn_red.png","../images/blu_wht.png","../images/pnk_blu.png","../images/ylw_slt.png"],"mutagen_generator_assignment":[1,0],"goal":3,"start":0,"action_noise":0,"location_history":"[0,5,0,1,3]","action_history":"[0,1,1,0]","mutagen_history":"[1,0,0,1]","location_rts":"[3012,845,727,571]","trial_type":"fractal-mutation","trial_index":70,"time_elapsed":1119428,"internal_node_id":"0.0-5.0-16.0"},{"group":"hexagon_tri","fractal_assignment":["../images/gry_blk.png","../images/org_blu.png","../images/cyn_red.png","../images/blu_wht.png","../images/pnk_blu.png","../images/ylw_slt.png"],"mutagen_generator_assignment":[1,0],"goal":1,"start":3,"action_noise":0,"location_history":"[3,4,2,1]","action_history":"[1,1,0]","mutagen_history":"[0,0,1]","location_rts":"[1328,1398,917]","trial_type":"fractal-mutation","trial_index":71,"time_elapsed":1130310,"internal_node_id":"0.0-5.0-17.0"},{"group":"hexagon_tri","fractal_assignment":["../images/gry_blk.png","../images/org_blu.png","../images/cyn_red.png","../images/blu_wht.png","../images/pnk_blu.png","../images/ylw_slt.png"],"mutagen_generator_assignment":[1,0],"goal":5,"start":1,"action_noise":0,"location_history":"[1,5]","action_history":"[1]","mutagen_history":"[0]","location_rts":"[1086]","trial_type":"fractal-mutation","trial_index":72,"time_elapsed":1136507,"internal_node_id":"0.0-5.0-18.0"},{"group":"hexagon_tri","fractal_assignment":["../images/gry_blk.png","../images/org_blu.png","../images/cyn_red.png","../images/blu_wht.png","../images/pnk_blu.png","../images/ylw_slt.png"],"mutagen_generator_assignment":[1,0],"goal":2,"start":5,"action_noise":0,"location_history":"[5,0,1,5,4,2]","action_history":"[1,1,1,0,1]","mutagen_history":"[0,0,0,1,0]","location_rts":"[1179,859,966,846,856]","trial_type":"fractal-mutation","trial_index":73,"time_elapsed":1150780,"internal_node_id":"0.0-5.0-19.0"},{"group":"hexagon_tri","fractal_assignment":["../images/gry_blk.png","../images/org_blu.png","../images/cyn_red.png","../images/blu_wht.png","../images/pnk_blu.png","../images/ylw_slt.png"],"mutagen_generator_assignment":[1,0],"goal":4,"start":2,"action_noise":0,"location_history":"[2,3,4]","action_history":"[1,1]","mutagen_history":"[0,0]","location_rts":"[2036,1038]","trial_type":"fractal-mutation","trial_index":74,"time_elapsed":1160126,"internal_node_id":"0.0-5.0-20.0"},{"group":"hexagon_tri","fractal_assignment":["../images/gry_blk.png","../images/org_blu.png","../images/cyn_red.png","../images/blu_wht.png","../images/pnk_blu.png","../images/ylw_slt.png"],"mutagen_generator_assignment":[1,0],"goal":1,"start":4,"action_noise":0,"location_history":"[4,0,5,4,2,3,4,2,1]","action_history":"[0,0,0,1,1,1,1,0]","mutagen_history":"[1,1,1,0,0,0,0,1]","location_rts":"[4655,764,873,1088,753,564,614,643]","trial_type":"fractal-mutation","trial_index":75,"time_elapsed":1182875,"internal_node_id":"0.0-5.0-21.0"},{"group":"hexagon_tri","fractal_assignment":["../images/gry_blk.png","../images/org_blu.png","../images/cyn_red.png","../images/blu_wht.png","../images/pnk_blu.png","../images/ylw_slt.png"],"mutagen_generator_assignment":[1,0],"goal":3,"start":1,"action_noise":0,"location_history":"[1,3]","action_history":"[0]","mutagen_history":"[1]","location_rts":"[2319]","trial_type":"fractal-mutation","trial_index":76,"time_elapsed":1190298,"internal_node_id":"0.0-5.0-22.0"},{"group":"hexagon_tri","fractal_assignment":["../images/gry_blk.png","../images/org_blu.png","../images/cyn_red.png","../images/blu_wht.png","../images/pnk_blu.png","../images/ylw_slt.png"],"mutagen_generator_assignment":[1,0],"goal":2,"start":3,"action_noise":0,"location_history":"[3,4,2]","action_history":"[1,1]","mutagen_history":"[0,0]","location_rts":"[2734,1216]","trial_type":"fractal-mutation","trial_index":77,"time_elapsed":1200384,"internal_node_id":"0.0-5.0-23.0"},{"group":"hexagon_tri","fractal_assignment":["../images/gry_blk.png","../images/org_blu.png","../images/cyn_red.png","../images/blu_wht.png","../images/pnk_blu.png","../images/ylw_slt.png"],"mutagen_generator_assignment":[1,0],"goal":0,"start":2,"action_noise":0,"location_history":"[2,3,2,3,4,0]","action_history":"[1,0,1,1,0]","mutagen_history":"[0,1,0,0,1]","location_rts":"[1720,1466,571,365,823]","trial_type":"fractal-mutation","trial_index":78,"time_elapsed":1214910,"internal_node_id":"0.0-5.0-24.0"},{"group":"hexagon_tri","fractal_assignment":["../images/gry_blk.png","../images/org_blu.png","../images/cyn_red.png","../images/blu_wht.png","../images/pnk_blu.png","../images/ylw_slt.png"],"mutagen_generator_assignment":[1,0],"goal":5,"start":0,"action_noise":0,"location_history":"[0,1,5]","action_history":"[1,1]","mutagen_history":"[0,0]","location_rts":"[1805,749]","trial_type":"fractal-mutation","trial_index":79,"time_elapsed":1223650,"internal_node_id":"0.0-5.0-25.0"},{"group":"hexagon_tri","fractal_assignment":["../images/gry_blk.png","../images/org_blu.png","../images/cyn_red.png","../images/blu_wht.png","../images/pnk_blu.png","../images/ylw_slt.png"],"mutagen_generator_assignment":[1,0],"goal":2,"start":5,"action_noise":0,"location_history":"[5,4,2]","action_history":"[0,1]","mutagen_history":"[1,0]","location_rts":"[2695,508]","trial_type":"fractal-mutation","trial_index":80,"time_elapsed":1233080,"internal_node_id":"0.0-5.0-26.0"},{"group":"hexagon_tri","fractal_assignment":["../images/gry_blk.png","../images/org_blu.png","../images/cyn_red.png","../images/blu_wht.png","../images/pnk_blu.png","../images/ylw_slt.png"],"mutagen_generator_assignment":[1,0],"goal":3,"start":2,"action_noise":0,"location_history":"[2,3]","action_history":"[1]","mutagen_history":"[0]","location_rts":"[1976]","trial_type":"fractal-mutation","trial_index":81,"time_elapsed":1240139,"internal_node_id":"0.0-5.0-27.0"},{"group":"hexagon_tri","fractal_assignment":["../images/gry_blk.png","../images/org_blu.png","../images/cyn_red.png","../images/blu_wht.png","../images/pnk_blu.png","../images/ylw_slt.png"],"mutagen_generator_assignment":[1,0],"goal":0,"start":3,"action_noise":0,"location_history":"[3,2,3,4,0]","action_history":"[0,1,1,0]","mutagen_history":"[1,0,0,1]","location_rts":"[1334,732,474,663]","trial_type":"fractal-mutation","trial_index":82,"time_elapsed":1252152,"internal_node_id":"0.0-5.0-28.0"},{"group":"hexagon_tri","fractal_assignment":["../images/gry_blk.png","../images/org_blu.png","../images/cyn_red.png","../images/blu_wht.png","../images/pnk_blu.png","../images/ylw_slt.png"],"mutagen_generator_assignment":[1,0],"goal":1,"start":0,"action_noise":0,"location_history":"[0,5,4,2,1]","action_history":"[0,0,1,0]","mutagen_history":"[1,1,0,1]","location_rts":"[2524,679,367,811]","trial_type":"fractal-mutation","trial_index":83,"time_elapsed":1264853,"internal_node_id":"0.0-5.0-29.0"},{"group":"hexagon_tri","fractal_assignment":["../images/gry_blk.png","../images/org_blu.png","../images/cyn_red.png","../images/blu_wht.png","../images/pnk_blu.png","../images/ylw_slt.png"],"mutagen_generator_assignment":[1,0],"goal":4,"start":1,"action_noise":0,"location_history":"[1,5,0,5,4]","action_history":"[1,1,0,0]","mutagen_history":"[0,0,1,1]","location_rts":"[1615,1780,3282,569]","trial_type":"fractal-mutation","trial_index":84,"time_elapsed":1280506,"internal_node_id":"0.0-5.0-30.0"},{"group":"hexagon_tri","fractal_assignment":["../images/gry_blk.png","../images/org_blu.png","../images/cyn_red.png","../images/blu_wht.png","../images/pnk_blu.png","../images/ylw_slt.png"],"mutagen_generator_assignment":[1,0],"goal":5,"start":4,"action_noise":0,"location_history":"[4,2,3,4,2,1,3,2,3,4,0,1,3,2,1,3,2,3,2,1,5]","action_history":"[1,1,1,1,0,0,0,1,1,0,1,0,0,0,0,0,1,0,0,1]","mutagen_history":"[0,0,0,0,1,1,1,0,0,1,0,1,1,1,1,1,0,1,1,0]","location_rts":"[1267,1227,562,639,256,514,694,439,408,452,304,503,302,341,690,732,1743,619,634,940]","trial_type":"fractal-mutation","trial_index":85,"time_elapsed":1319828,"internal_node_id":"0.0-5.0-31.0"},{"group":"hexagon_tri","fractal_assignment":["../images/gry_blk.png","../images/org_blu.png","../images/cyn_red.png","../images/blu_wht.png","../images/pnk_blu.png","../images/ylw_slt.png"],"mutagen_generator_assignment":[1,0],"goal":0,"start":5,"action_noise":0,"location_history":"[5,0]","action_history":"[1]","mutagen_history":"[0]","location_rts":"[1366]","trial_type":"fractal-mutation","trial_index":86,"time_elapsed":1326276,"internal_node_id":"0.0-5.0-32.0"},{"group":"hexagon_tri","fractal_assignment":["../images/gry_blk.png","../images/org_blu.png","../images/cyn_red.png","../images/blu_wht.png","../images/pnk_blu.png","../images/ylw_slt.png"],"mutagen_generator_assignment":[1,0],"goal":3,"start":0,"action_noise":0,"location_history":"[0,5,4,0,1,5,0,1,3]","action_history":"[0,0,0,1,1,1,1,0]","mutagen_history":"[1,1,1,0,0,0,0,1]","location_rts":"[1319,949,624,653,421,577,720,521]","trial_type":"fractal-mutation","trial_index":87,"time_elapsed":1344738,"internal_node_id":"0.0-5.0-33.0"},{"group":"hexagon_tri","fractal_assignment":["../images/gry_blk.png","../images/org_blu.png","../images/cyn_red.png","../images/blu_wht.png","../images/pnk_blu.png","../images/ylw_slt.png"],"mutagen_generator_assignment":[1,0],"goal":1,"start":3,"action_noise":0,"location_history":"[3,2,1]","action_history":"[0,0]","mutagen_history":"[1,1]","location_rts":"[1333,1315]","trial_type":"fractal-mutation","trial_index":88,"time_elapsed":1353719,"internal_node_id":"0.0-5.0-34.0"},{"group":"hexagon_tri","fractal_assignment":["../images/gry_blk.png","../images/org_blu.png","../images/cyn_red.png","../images/blu_wht.png","../images/pnk_blu.png","../images/ylw_slt.png"],"mutagen_generator_assignment":[1,0],"goal":2,"start":1,"action_noise":0,"location_history":"[1,5,4,0,1,5,0,5,4,0,1,3,2]","action_history":"[1,0,0,1,1,1,0,0,0,1,0,0]","mutagen_history":"[0,1,1,0,0,0,1,1,1,0,1,1]","location_rts":"[2627,2040,598,484,707,493,666,331,780,411,323,353]","trial_type":"fractal-mutation","trial_index":89,"time_elapsed":1380866,"internal_node_id":"0.0-5.0-35.0"},{"group":"hexagon_tri","fractal_assignment":["../images/gry_blk.png","../images/org_blu.png","../images/cyn_red.png","../images/blu_wht.png","../images/pnk_blu.png","../images/ylw_slt.png"],"mutagen_generator_assignment":[1,0],"goal":4,"start":2,"action_noise":0,"location_history":"[2,3,2,1,3,4]","action_history":"[1,0,0,0,1]","mutagen_history":"[0,1,1,1,0]","location_rts":"[1275,603,498,666,486]","trial_type":"fractal-mutation","trial_index":90,"time_elapsed":1393953,"internal_node_id":"0.0-5.0-36.0"},{"group":"hexagon_tri","fractal_assignment":["../images/gry_blk.png","../images/org_blu.png","../images/cyn_red.png","../images/blu_wht.png","../images/pnk_blu.png","../images/ylw_slt.png"],"mutagen_generator_assignment":[1,0],"goal":5,"start":4,"action_noise":0,"location_history":"[4,0,1,5]","action_history":"[0,1,1]","mutagen_history":"[1,0,0]","location_rts":"[1500,480,443]","trial_type":"fractal-mutation","trial_index":91,"time_elapsed":1403622,"internal_node_id":"0.0-5.0-37.0"},{"group":"hexagon_tri","fractal_assignment":["../images/gry_blk.png","../images/org_blu.png","../images/cyn_red.png","../images/blu_wht.png","../images/pnk_blu.png","../images/ylw_slt.png"],"mutagen_generator_assignment":[1,0],"goal":1,"start":5,"action_noise":0,"location_history":"[5,0,5,0,1]","action_history":"[1,0,1,1]","mutagen_history":"[0,1,0,0]","location_rts":"[1391,1438,398,427]","trial_type":"fractal-mutation","trial_index":92,"time_elapsed":1415605,"internal_node_id":"0.0-5.0-38.0"},{"group":"hexagon_tri","fractal_assignment":["../images/gry_blk.png","../images/org_blu.png","../images/cyn_red.png","../images/blu_wht.png","../images/pnk_blu.png","../images/ylw_slt.png"],"mutagen_generator_assignment":[1,0],"goal":4,"start":1,"action_noise":0,"location_history":"[1,5,4]","action_history":"[1,0]","mutagen_history":"[0,1]","location_rts":"[781,475]","trial_type":"fractal-mutation","trial_index":93,"time_elapsed":1423104,"internal_node_id":"0.0-5.0-39.0"},{"group":"hexagon_tri","fractal_assignment":["../images/gry_blk.png","../images/org_blu.png","../images/cyn_red.png","../images/blu_wht.png","../images/pnk_blu.png","../images/ylw_slt.png"],"mutagen_generator_assignment":[1,0],"goal":3,"start":4,"action_noise":0,"location_history":"[4,2,1,3]","action_history":"[1,0,0]","mutagen_history":"[0,1,1]","location_rts":"[22973,786,352]","trial_type":"fractal-mutation","trial_index":94,"time_elapsed":1454584,"internal_node_id":"0.0-5.0-40.0"},{"group":"hexagon_tri","fractal_assignment":["../images/gry_blk.png","../images/org_blu.png","../images/cyn_red.png","../images/blu_wht.png","../images/pnk_blu.png","../images/ylw_slt.png"],"mutagen_generator_assignment":[1,0],"goal":2,"start":3,"action_noise":0,"location_history":"[3,4,0,5,0,1,3,4,0,5,4,0,5,4,2]","action_history":"[1,0,0,1,1,0,1,0,0,0,0,0,0,1]","mutagen_history":"[0,1,1,0,0,1,0,1,1,1,1,1,1,0]","location_rts":"[577,327,2954,814,947,335,397,399,435,384,520,435,403,367]","trial_type":"fractal-mutation","trial_index":95,"time_elapsed":1483232,"internal_node_id":"0.0-5.0-41.0"},{"group":"hexagon_tri","fractal_assignment":["../images/gry_blk.png","../images/org_blu.png","../images/cyn_red.png","../images/blu_wht.png","../images/pnk_blu.png","../images/ylw_slt.png"],"mutagen_generator_assignment":[1,0],"goal":0,"start":2,"action_noise":0,"location_history":"[2,3,2,3,4,0]","action_history":"[1,0,1,1,0]","mutagen_history":"[0,1,0,0,1]","location_rts":"[1100,881,432,427,608]","trial_type":"fractal-mutation","trial_index":96,"time_elapsed":1496230,"internal_node_id":"0.0-5.0-42.0"},{"group":"hexagon_tri","fractal_assignment":["../images/gry_blk.png","../images/org_blu.png","../images/cyn_red.png","../images/blu_wht.png","../images/pnk_blu.png","../images/ylw_slt.png"],"mutagen_generator_assignment":[1,0],"goal":5,"start":0,"action_noise":0,"location_history":"[0,1,5]","action_history":"[1,1]","mutagen_history":"[0,0]","location_rts":"[1295,1256]","trial_type":"fractal-mutation","trial_index":97,"time_elapsed":1504978,"internal_node_id":"0.0-5.0-43.0"},{"group":"hexagon_tri","fractal_assignment":["../images/gry_blk.png","../images/org_blu.png","../images/cyn_red.png","../images/blu_wht.png","../images/pnk_blu.png","../images/ylw_slt.png"],"mutagen_generator_assignment":[1,0],"goal":0,"start":5,"action_noise":0,"location_history":"[5,4,2,3,2,3,4,2,3,2,1,3,2,3,2,1,3,2,1,5,0]","action_history":"[0,1,1,0,1,1,1,1,0,0,0,0,1,0,0,0,0,0,1,1]","mutagen_history":"[1,0,0,1,0,0,0,0,1,1,1,1,0,1,1,1,1,1,0,0]","location_rts":"[703,882,648,437,357,251,658,899,381,265,347,590,428,368,237,307,444,304,254,1124]","trial_type":"fractal-mutation","trial_index":98,"time_elapsed":1540932,"internal_node_id":"0.0-5.0-44.0"},{"group":"hexagon_tri","fractal_assignment":["../images/gry_blk.png","../images/org_blu.png","../images/cyn_red.png","../images/blu_wht.png","../images/pnk_blu.png","../images/ylw_slt.png"],"mutagen_generator_assignment":[1,0],"goal":2,"start":0,"action_noise":0,"location_history":"[0,1,3,4,0,5,0,5,0,1,5,4,0,5,4,0,1,5,0,5,0,1,3,2]","action_history":"[1,0,1,0,0,1,0,1,1,1,0,0,0,0,0,1,1,1,0,1,1,0,0]","mutagen_history":"[0,1,0,1,1,0,1,0,0,0,1,1,1,1,1,0,0,0,1,0,0,1,1]","location_rts":"[1274,375,416,451,664,358,449,456,253,329,581,319,545,373,528,324,273,681,1003,243,462,325,419]","trial_type":"fractal-mutation","trial_index":99,"time_elapsed":1581335,"internal_node_id":"0.0-5.0-45.0"},{"group":"hexagon_tri","fractal_assignment":["../images/gry_blk.png","../images/org_blu.png","../images/cyn_red.png","../images/blu_wht.png","../images/pnk_blu.png","../images/ylw_slt.png"],"mutagen_generator_assignment":[1,0],"goal":4,"start":2,"action_noise":0,"location_history":"[2,3,2,1,5,4]","action_history":"[1,0,0,1,0]","mutagen_history":"[0,1,1,0,1]","location_rts":"[1373,359,428,1035,422]","trial_type":"fractal-mutation","trial_index":100,"time_elapsed":1594493,"internal_node_id":"0.0-5.0-46.0"},{"group":"hexagon_tri","fractal_assignment":["../images/gry_blk.png","../images/org_blu.png","../images/cyn_red.png","../images/blu_wht.png","../images/pnk_blu.png","../images/ylw_slt.png"],"mutagen_generator_assignment":[1,0],"goal":1,"start":4,"action_noise":0,"location_history":"[4,2,1]","action_history":"[1,0]","mutagen_history":"[0,1]","location_rts":"[3865,1335]","trial_type":"fractal-mutation","trial_index":101,"time_elapsed":1605913,"internal_node_id":"0.0-5.0-47.0"},{"group":"hexagon_tri","fractal_assignment":["../images/gry_blk.png","../images/org_blu.png","../images/cyn_red.png","../images/blu_wht.png","../images/pnk_blu.png","../images/ylw_slt.png"],"mutagen_generator_assignment":[1,0],"goal":5,"start":1,"action_noise":0,"location_history":"[1,3,4,2,3,4,0,1,3,2,1,3,2,3,4,2,3,2,1,3,2,1,5]","action_history":"[0,1,1,1,1,0,1,0,0,0,0,0,1,1,1,1,0,0,0,0,0,1]","mutagen_history":"[1,0,0,0,0,1,0,1,1,1,1,1,0,0,0,0,1,1,1,1,1,0]","location_rts":"[2482,377,606,957,827,700,570,340,82,333,1057,679,359,522,929,1035,880,629,993,767,979,467]","trial_type":"fractal-mutation","trial_index":102,"time_elapsed":1650567,"internal_node_id":"0.0-5.0-48.0"},{"group":"hexagon_tri","fractal_assignment":["../images/gry_blk.png","../images/org_blu.png","../images/cyn_red.png","../images/blu_wht.png","../images/pnk_blu.png","../images/ylw_slt.png"],"mutagen_generator_assignment":[1,0],"goal":3,"start":5,"action_noise":0,"location_history":"[5,0,5,0,1,3]","action_history":"[1,0,1,1,0]","mutagen_history":"[0,1,0,0,1]","location_rts":"[1513,717,754,242,400]","trial_type":"fractal-mutation","trial_index":103,"time_elapsed":1663723,"internal_node_id":"0.0-5.0-49.0"},{"view_history":"[{\"page_index\":0,\"viewing_time\":5550}]","rt":5551,"trial_type":"instructions","trial_index":104,"time_elapsed":1670276,"internal_node_id":"0.0-6.0"},{"rt":8599,"responses":"{\"Q0\":\"\"}","trial_type":"survey-text","trial_index":105,"time_elapsed":1680021,"internal_node_id":"0.0-7.0"}]