[{"view_history":"[{\"page_index\":0,\"viewing_time\":10508},{\"page_index\":1,\"viewing_time\":21234}]","rt":31742,"trial_type":"instructions","trial_index":0,"time_elapsed":31742,"internal_node_id":"0.0-0.0"},{"view_history":"[{\"page_index\":0,\"viewing_time\":2593},{\"page_index\":1,\"viewing_time\":8707}]","rt":11300,"trial_type":"instructions","trial_index":1,"time_elapsed":44044,"internal_node_id":"0.0-1.0"},{"group":"hexagon_bi","room_assignment":["yellow","grey","purple","blue","green","red"],"door_color_assignment":["white","black"],"door_generator_assignment":[0,1],"goal":3,"start":5,"action_noise":0.15,"location_history":"[5,4,3]","action_history":"[1,0]","door_history":"[1,0]","location_rts":"[4174,702]","trial_type":"two-door-navigation","trial_index":2,"time_elapsed":54479,"internal_node_id":"0.0-2.0-0.0"},{"group":"hexagon_bi","room_assignment":["yellow","grey","purple","blue","green","red"],"door_color_assignment":["white","black"],"door_generator_assignment":[0,1],"goal":1,"start":3,"action_noise":0.15,"location_history":"[3,4,3,2,1]","action_history":"[1,0,1,0]","door_history":"[1,0,1,0]","location_rts":"[4723,711,2646,460]","trial_type":"two-door-navigation","trial_index":3,"time_elapsed":70621,"internal_node_id":"0.0-2.0-1.0"},{"group":"hexagon_bi","room_assignment":["yellow","grey","purple","blue","green","red"],"door_color_assignment":["white","black"],"door_generator_assignment":[0,1],"goal":0,"start":1,"action_noise":0.15,"location_history":"[1,0]","action_history":"[1]","door_history":"[1]","location_rts":"[4409]","trial_type":"two-door-navigation","trial_index":4,"time_elapsed":79557,"internal_node_id":"0.0-2.0-2.0"},{"group":"hexagon_bi","room_assignment":["yellow","grey","purple","blue","green","red"],"door_color_assignment":["white","black"],"door_generator_assignment":[0,1],"goal":3,"start":0,"action_noise":0.15,"location_history":"[0,1,0,5,4,3]","action_history":"[0,1,0,1,0]","door_history":"[0,1,0,1,0]","location_rts":"[7199,374,313,817,413]","trial_type":"two-door-navigation","trial_index":5,"time_elapsed":97311,"internal_node_id":"0.0-2.0-3.0"},{"group":"hexagon_bi","room_assignment":["yellow","grey","purple","blue","green","red"],"door_color_assignment":["white","black"],"door_generator_assignment":[0,1],"goal":4,"start":3,"action_noise":0.15,"location_history":"[3,2,1,2,1,2,3,2,3,4]","action_history":"[0,0,0,0,0,1,0,1,0]","door_history":"[0,0,0,0,0,1,0,1,0]","location_rts":"[6713,2077,355,673,290,8061,595,5277,3751]","trial_type":"two-door-navigation","trial_index":6,"time_elapsed":137847,"internal_node_id":"0.0-2.0-4.0"},{"group":"hexagon_bi","room_assignment":["yellow","grey","purple","blue","green","red"],"door_color_assignment":["white","black"],"door_generator_assignment":[0,1],"goal":2,"start":4,"action_noise":0.15,"location_history":"[4,3,2]","action_history":"[0,1]","door_history":"[0,1]","location_rts":"[3378,312]","trial_type":"two-door-navigation","trial_index":7,"time_elapsed":147094,"internal_node_id":"0.0-2.0-5.0"},{"group":"hexagon_bi","room_assignment":["yellow","grey","purple","blue","green","red"],"door_color_assignment":["white","black"],"door_generator_assignment":[0,1],"goal":1,"start":2,"action_noise":0.15,"location_history":"[2,1]","action_history":"[0]","door_history":"[0]","location_rts":"[3836]","trial_type":"two-door-navigation","trial_index":8,"time_elapsed":155464,"internal_node_id":"0.0-2.0-6.0"},{"group":"hexagon_bi","room_assignment":["yellow","grey","purple","blue","green","red"],"door_color_assignment":["white","black"],"door_generator_assignment":[0,1],"goal":5,"start":1,"action_noise":0.15,"location_history":"[1,0,5]","action_history":"[1,0]","door_history":"[1,0]","location_rts":"[5359,5215]","trial_type":"two-door-navigation","trial_index":9,"time_elapsed":171591,"internal_node_id":"0.0-2.0-7.0"},{"group":"hexagon_bi","room_assignment":["yellow","grey","purple","blue","green","red"],"door_color_assignment":["white","black"],"door_generator_assignment":[0,1],"goal":4,"start":5,"action_noise":0.15,"location_history":"[5,4]","action_history":"[1]","door_history":"[1]","location_rts":"[3468]","trial_type":"two-door-navigation","trial_index":10,"time_elapsed":179589,"internal_node_id":"0.0-2.0-8.0"},{"group":"hexagon_bi","room_assignment":["yellow","grey","purple","blue","green","red"],"door_color_assignment":["white","black"],"door_generator_assignment":[0,1],"goal":2,"start":4,"action_noise":0.15,"location_history":"[4,3,4,3,2]","action_history":"[0,1,0,1]","door_history":"[0,1,0,1]","location_rts":"[4747,448,1524,371]","trial_type":"two-door-navigation","trial_index":11,"time_elapsed":194278,"internal_node_id":"0.0-2.0-9.0"},{"group":"hexagon_bi","room_assignment":["yellow","grey","purple","blue","green","red"],"door_color_assignment":["white","black"],"door_generator_assignment":[0,1],"goal":0,"start":2,"action_noise":0.15,"location_history":"[2,1,2,1,2,1,2,3,4,3,4,5,0]","action_history":"[0,1,0,1,0,1,1,0,1,0,1,0]","door_history":"[0,1,0,1,0,1,1,0,1,0,1,0]","location_rts":"[3320,275,1158,331,800,411,1618,635,3055,612,5203,677]","trial_type":"two-door-navigation","trial_index":12,"time_elapsed":228185,"internal_node_id":"0.0-2.0-10.0"},{"group":"hexagon_bi","room_assignment":["yellow","grey","purple","blue","green","red"],"door_color_assignment":["white","black"],"door_generator_assignment":[0,1],"goal":1,"start":0,"action_noise":0.15,"location_history":"[0,1]","action_history":"[1]","door_history":"[1]","location_rts":"[7402]","trial_type":"two-door-navigation","trial_index":13,"time_elapsed":240119,"internal_node_id":"0.0-2.0-11.0"},{"group":"hexagon_bi","room_assignment":["yellow","grey","purple","blue","green","red"],"door_color_assignment":["white","black"],"door_generator_assignment":[0,1],"goal":3,"start":1,"action_noise":0.15,"location_history":"[1,2,1,0,1,2,3]","action_history":"[0,1,0,1,0,1]","door_history":"[0,1,0,1,0,1]","location_rts":"[3240,535,1633,844,1141,338]","trial_type":"two-door-navigation","trial_index":14,"time_elapsed":257505,"internal_node_id":"0.0-2.0-12.0"},{"group":"hexagon_bi","room_assignment":["yellow","grey","purple","blue","green","red"],"door_color_assignment":["white","black"],"door_generator_assignment":[0,1],"goal":5,"start":3,"action_noise":0.15,"location_history":"[3,4,5]","action_history":"[0,1]","door_history":"[0,1]","location_rts":"[5868,281]","trial_type":"two-door-navigation","trial_index":15,"time_elapsed":269213,"internal_node_id":"0.0-2.0-13.0"},{"group":"hexagon_bi","room_assignment":["yellow","grey","purple","blue","green","red"],"door_color_assignment":["white","black"],"door_generator_assignment":[0,1],"goal":4,"start":5,"action_noise":0.15,"location_history":"[5,4]","action_history":"[1]","door_history":"[1]","location_rts":"[3180]","trial_type":"two-door-navigation","trial_index":16,"time_elapsed":276923,"internal_node_id":"0.0-2.0-14.0"},{"group":"hexagon_bi","room_assignment":["yellow","grey","purple","blue","green","red"],"door_color_assignment":["white","black"],"door_generator_assignment":[0,1],"goal":0,"start":4,"action_noise":0.15,"location_history":"[4,5,0]","action_history":"[1,0]","door_history":"[1,0]","location_rts":"[3982,434]","trial_type":"two-door-navigation","trial_index":17,"time_elapsed":286896,"internal_node_id":"0.0-2.0-15.0"},{"group":"hexagon_bi","room_assignment":["yellow","grey","purple","blue","green","red"],"door_color_assignment":["white","black"],"door_generator_assignment":[0,1],"goal":3,"start":0,"action_noise":0.15,"location_history":"[0,5,4,5,4,3]","action_history":"[0,1,0,1,0]","door_history":"[0,1,0,1,0]","location_rts":"[10571,445,1005,5450,418]","trial_type":"two-door-navigation","trial_index":18,"time_elapsed":313422,"internal_node_id":"0.0-2.0-16.0"},{"group":"hexagon_bi","room_assignment":["yellow","grey","purple","blue","green","red"],"door_color_assignment":["white","black"],"door_generator_assignment":[0,1],"goal":1,"start":3,"action_noise":0.15,"location_history":"[3,2,1]","action_history":"[1,0]","door_history":"[1,0]","location_rts":"[7016,433]","trial_type":"two-door-navigation","trial_index":19,"time_elapsed":326430,"internal_node_id":"0.0-2.0-17.0"},{"group":"hexagon_bi","room_assignment":["yellow","grey","purple","blue","green","red"],"door_color_assignment":["white","black"],"door_generator_assignment":[0,1],"goal":5,"start":1,"action_noise":0.15,"location_history":"[1,0,5]","action_history":"[1,0]","door_history":"[1,0]","location_rts":"[4936,657]","trial_type":"two-door-navigation","trial_index":20,"time_elapsed":337576,"internal_node_id":"0.0-2.0-18.0"},{"group":"hexagon_bi","room_assignment":["yellow","grey","purple","blue","green","red"],"door_color_assignment":["white","black"],"door_generator_assignment":[0,1],"goal":2,"start":5,"action_noise":0.15,"location_history":"[5,0,5,4,3,4,3,2]","action_history":"[1,0,1,0,1,0,1]","door_history":"[1,0,1,0,1,0,1]","location_rts":"[3269,266,330,3839,249,4073,311]","trial_type":"two-door-navigation","trial_index":21,"time_elapsed":360604,"internal_node_id":"0.0-2.0-19.0"},{"group":"hexagon_bi","room_assignment":["yellow","grey","purple","blue","green","red"],"door_color_assignment":["white","black"],"door_generator_assignment":[0,1],"goal":4,"start":2,"action_noise":0.15,"location_history":"[2,1,2,1,2,3,4]","action_history":"[1,0,1,0,1,0]","door_history":"[1,0,1,0,1,0]","location_rts":"[4415,301,1492,363,623,372]","trial_type":"two-door-navigation","trial_index":22,"time_elapsed":377824,"internal_node_id":"0.0-2.0-20.0"},{"group":"hexagon_bi","room_assignment":["yellow","grey","purple","blue","green","red"],"door_color_assignment":["white","black"],"door_generator_assignment":[0,1],"goal":1,"start":4,"action_noise":0.15,"location_history":"[4,3,2,1]","action_history":"[0,1,0]","door_history":"[0,1,0]","location_rts":"[3815,313,347]","trial_type":"two-door-navigation","trial_index":23,"time_elapsed":388877,"internal_node_id":"0.0-2.0-21.0"},{"group":"hexagon_bi","room_assignment":["yellow","grey","purple","blue","green","red"],"door_color_assignment":["white","black"],"door_generator_assignment":[0,1],"goal":3,"start":1,"action_noise":0.15,"location_history":"[1,2,3]","action_history":"[0,1]","door_history":"[0,1]","location_rts":"[4515,386]","trial_type":"two-door-navigation","trial_index":24,"time_elapsed":399332,"internal_node_id":"0.0-2.0-22.0"},{"group":"hexagon_bi","room_assignment":["yellow","grey","purple","blue","green","red"],"door_color_assignment":["white","black"],"door_generator_assignment":[0,1],"goal":2,"start":3,"action_noise":0.15,"location_history":"[3,2]","action_history":"[1]","door_history":"[1]","location_rts":"[4573]","trial_type":"two-door-navigation","trial_index":25,"time_elapsed":408437,"internal_node_id":"0.0-2.0-23.0"},{"group":"hexagon_bi","room_assignment":["yellow","grey","purple","blue","green","red"],"door_color_assignment":["white","black"],"door_generator_assignment":[0,1],"goal":0,"start":2,"action_noise":0.15,"location_history":"[2,3,2,1,0]","action_history":"[0,1,0,1]","door_history":"[0,1,0,1]","location_rts":"[4027,340,1547,4161]","trial_type":"two-door-navigation","trial_index":26,"time_elapsed":426125,"internal_node_id":"0.0-2.0-24.0"},{"group":"hexagon_bi","room_assignment":["yellow","grey","purple","blue","green","red"],"door_color_assignment":["white","black"],"door_generator_assignment":[0,1],"goal":5,"start":0,"action_noise":0.15,"location_history":"[0,5]","action_history":"[0]","door_history":"[0]","location_rts":"[3733]","trial_type":"two-door-navigation","trial_index":27,"time_elapsed":434386,"internal_node_id":"0.0-2.0-25.0"},{"group":"hexagon_bi","room_assignment":["yellow","grey","purple","blue","green","red"],"door_color_assignment":["white","black"],"door_generator_assignment":[0,1],"goal":2,"start":5,"action_noise":0.15,"location_history":"[5,4,3,2]","action_history":"[1,0,1]","door_history":"[1,0,1]","location_rts":"[3881,368,1004]","trial_type":"two-door-navigation","trial_index":28,"time_elapsed":446226,"internal_node_id":"0.0-2.0-26.0"},{"group":"hexagon_bi","room_assignment":["yellow","grey","purple","blue","green","red"],"door_color_assignment":["white","black"],"door_generator_assignment":[0,1],"goal":3,"start":2,"action_noise":0.15,"location_history":"[2,3]","action_history":"[1]","door_history":"[1]","location_rts":"[3524]","trial_type":"two-door-navigation","trial_index":29,"time_elapsed":454283,"internal_node_id":"0.0-2.0-27.0"},{"group":"hexagon_bi","room_assignment":["yellow","grey","purple","blue","green","red"],"door_color_assignment":["white","black"],"door_generator_assignment":[0,1],"goal":0,"start":3,"action_noise":0.15,"location_history":"[3,2,3,2,1,2,1,2,1,0]","action_history":"[1,0,1,0,1,0,1,0,1]","door_history":"[1,0,1,0,1,0,1,0,1]","location_rts":"[3225,1009,658,4468,289,3753,285,939,315]","trial_type":"two-door-navigation","trial_index":30,"time_elapsed":481959,"internal_node_id":"0.0-2.0-28.0"},{"group":"hexagon_bi","room_assignment":["yellow","grey","purple","blue","green","red"],"door_color_assignment":["white","black"],"door_generator_assignment":[0,1],"goal":1,"start":0,"action_noise":0.15,"location_history":"[0,1]","action_history":"[1]","door_history":"[1]","location_rts":"[5973]","trial_type":"two-door-navigation","trial_index":31,"time_elapsed":492459,"internal_node_id":"0.0-2.0-29.0"},{"group":"hexagon_bi","room_assignment":["yellow","grey","purple","blue","green","red"],"door_color_assignment":["white","black"],"door_generator_assignment":[0,1],"goal":4,"start":1,"action_noise":0.15,"location_history":"[1,0,5,4]","action_history":"[1,0,1]","door_history":"[1,0,1]","location_rts":"[3739,1046,1346]","trial_type":"two-door-navigation","trial_index":32,"time_elapsed":505169,"internal_node_id":"0.0-2.0-30.0"},{"group":"hexagon_bi","room_assignment":["yellow","grey","purple","blue","green","red"],"door_color_assignment":["white","black"],"door_generator_assignment":[0,1],"goal":5,"start":4,"action_noise":0.15,"location_history":"[4,5]","action_history":"[1]","door_history":"[1]","location_rts":"[3357]","trial_type":"two-door-navigation","trial_index":33,"time_elapsed":513051,"internal_node_id":"0.0-2.0-31.0"},{"group":"hexagon_bi","room_assignment":["yellow","grey","purple","blue","green","red"],"door_color_assignment":["white","black"],"door_generator_assignment":[0,1],"goal":0,"start":5,"action_noise":0.15,"location_history":"[5,4,5,0]","action_history":"[0,1,0]","door_history":"[0,1,0]","location_rts":"[6864,6054,359]","trial_type":"two-door-navigation","trial_index":34,"time_elapsed":532904,"internal_node_id":"0.0-2.0-32.0"},{"group":"hexagon_bi","room_assignment":["yellow","grey","purple","blue","green","red"],"door_color_assignment":["white","black"],"door_generator_assignment":[0,1],"goal":3,"start":0,"action_noise":0.15,"location_history":"[0,1,0,5,0,5,4,3]","action_history":"[0,1,0,1,0,1,0]","door_history":"[0,1,0,1,0,1,0]","location_rts":"[4652,238,294,490,395,666,352]","trial_type":"two-door-navigation","trial_index":35,"time_elapsed":550677,"internal_node_id":"0.0-2.0-33.0"},{"group":"hexagon_bi","room_assignment":["yellow","grey","purple","blue","green","red"],"door_color_assignment":["white","black"],"door_generator_assignment":[0,1],"goal":1,"start":3,"action_noise":0.15,"location_history":"[3,2,1]","action_history":"[1,0]","door_history":"[1,0]","location_rts":"[6080,535]","trial_type":"two-door-navigation","trial_index":36,"time_elapsed":562846,"internal_node_id":"0.0-2.0-34.0"},{"group":"hexagon_bi","room_assignment":["yellow","grey","purple","blue","green","red"],"door_color_assignment":["white","black"],"door_generator_assignment":[0,1],"goal":2,"start":1,"action_noise":0.15,"location_history":"[1,2]","action_history":"[0]","door_history":"[0]","location_rts":"[7189]","trial_type":"two-door-navigation","trial_index":37,"time_elapsed":574562,"internal_node_id":"0.0-2.0-35.0"},{"group":"hexagon_bi","room_assignment":["yellow","grey","purple","blue","green","red"],"door_color_assignment":["white","black"],"door_generator_assignment":[0,1],"goal":4,"start":2,"action_noise":0.15,"location_history":"[2,3,4]","action_history":"[1,0]","door_history":"[1,0]","location_rts":"[4562,391]","trial_type":"two-door-navigation","trial_index":38,"time_elapsed":585075,"internal_node_id":"0.0-2.0-36.0"},{"group":"hexagon_bi","room_assignment":["yellow","grey","purple","blue","green","red"],"door_color_assignment":["white","black"],"door_generator_assignment":[0,1],"goal":5,"start":4,"action_noise":0.15,"location_history":"[4,5]","action_history":"[1]","door_history":"[1]","location_rts":"[6913]","trial_type":"two-door-navigation","trial_index":39,"time_elapsed":596521,"internal_node_id":"0.0-2.0-37.0"},{"group":"hexagon_bi","room_assignment":["yellow","grey","purple","blue","green","red"],"door_color_assignment":["white","black"],"door_generator_assignment":[0,1],"goal":1,"start":5,"action_noise":0.15,"location_history":"[5,4,5,0,1]","action_history":"[0,1,0,1]","door_history":"[0,1,0,1]","location_rts":"[5765,294,1189,2567]","trial_type":"two-door-navigation","trial_index":40,"time_elapsed":613944,"internal_node_id":"0.0-2.0-38.0"},{"group":"hexagon_bi","room_assignment":["yellow","grey","purple","blue","green","red"],"door_color_assignment":["white","black"],"door_generator_assignment":[0,1],"goal":4,"start":1,"action_noise":0.15,"location_history":"[1,0,1,0,5,0,5,4]","action_history":"[1,0,1,0,1,0,1]","door_history":"[1,0,1,0,1,0,1]","location_rts":"[3653,493,321,840,399,5974,317]","trial_type":"two-door-navigation","trial_index":41,"time_elapsed":636639,"internal_node_id":"0.0-2.0-39.0"},{"group":"hexagon_bi","room_assignment":["yellow","grey","purple","blue","green","red"],"door_color_assignment":["white","black"],"door_generator_assignment":[0,1],"goal":3,"start":4,"action_noise":0.15,"location_history":"[4,3]","action_history":"[0]","door_history":"[0]","location_rts":"[3594]","trial_type":"two-door-navigation","trial_index":42,"time_elapsed":644764,"internal_node_id":"0.0-2.0-40.0"},{"group":"hexagon_bi","room_assignment":["yellow","grey","purple","blue","green","red"],"door_color_assignment":["white","black"],"door_generator_assignment":[0,1],"goal":2,"start":3,"action_noise":0.15,"location_history":"[3,2]","action_history":"[1]","door_history":"[1]","location_rts":"[8403]","trial_type":"two-door-navigation","trial_index":43,"time_elapsed":657699,"internal_node_id":"0.0-2.0-41.0"},{"group":"hexagon_bi","room_assignment":["yellow","grey","purple","blue","green","red"],"door_color_assignment":["white","black"],"door_generator_assignment":[0,1],"goal":0,"start":2,"action_noise":0.15,"location_history":"[2,1,2,3,4,5,0]","action_history":"[0,0,0,1,1,0]","door_history":"[0,0,0,1,1,0]","location_rts":"[3580,4261,8387,1518,4688,409]","trial_type":"two-door-navigation","trial_index":44,"time_elapsed":690197,"internal_node_id":"0.0-2.0-42.0"},{"group":"hexagon_bi","room_assignment":["yellow","grey","purple","blue","green","red"],"door_color_assignment":["white","black"],"door_generator_assignment":[0,1],"goal":5,"start":0,"action_noise":0.15,"location_history":"[0,5]","action_history":"[0]","door_history":"[0]","location_rts":"[4550]","trial_type":"two-door-navigation","trial_index":45,"time_elapsed":699280,"internal_node_id":"0.0-2.0-43.0"},{"group":"hexagon_bi","room_assignment":["yellow","grey","purple","blue","green","red"],"door_color_assignment":["white","black"],"door_generator_assignment":[0,1],"goal":0,"start":5,"action_noise":0.15,"location_history":"[5,0]","action_history":"[0]","door_history":"[0]","location_rts":"[4494]","trial_type":"two-door-navigation","trial_index":46,"time_elapsed":708305,"internal_node_id":"0.0-2.0-44.0"},{"group":"hexagon_bi","room_assignment":["yellow","grey","purple","blue","green","red"],"door_color_assignment":["white","black"],"door_generator_assignment":[0,1],"goal":2,"start":0,"action_noise":0.15,"location_history":"[0,1,2]","action_history":"[1,0]","door_history":"[1,0]","location_rts":"[5391,1245]","trial_type":"two-door-navigation","trial_index":47,"time_elapsed":720505,"internal_node_id":"0.0-2.0-45.0"},{"group":"hexagon_bi","room_assignment":["yellow","grey","purple","blue","green","red"],"door_color_assignment":["white","black"],"door_generator_assignment":[0,1],"goal":4,"start":2,"action_noise":0.15,"location_history":"[2,3,4]","action_history":"[1,0]","door_history":"[1,0]","location_rts":"[4035,382]","trial_type":"two-door-navigation","trial_index":48,"time_elapsed":730471,"internal_node_id":"0.0-2.0-46.0"},{"group":"hexagon_bi","room_assignment":["yellow","grey","purple","blue","green","red"],"door_color_assignment":["white","black"],"door_generator_assignment":[0,1],"goal":1,"start":4,"action_noise":0.15,"location_history":"[4,3,2,1]","action_history":"[0,1,0]","door_history":"[0,1,0]","location_rts":"[4754,406,541]","trial_type":"two-door-navigation","trial_index":49,"time_elapsed":742753,"internal_node_id":"0.0-2.0-47.0"},{"group":"hexagon_bi","room_assignment":["yellow","grey","purple","blue","green","red"],"door_color_assignment":["white","black"],"door_generator_assignment":[0,1],"goal":5,"start":1,"action_noise":0.15,"location_history":"[1,0,1,0,5]","action_history":"[1,0,1,0]","door_history":"[1,0,1,0]","location_rts":"[6512,298,948,280]","trial_type":"two-door-navigation","trial_index":50,"time_elapsed":758391,"internal_node_id":"0.0-2.0-48.0"},{"group":"hexagon_bi","room_assignment":["yellow","grey","purple","blue","green","red"],"door_color_assignment":["white","black"],"door_generator_assignment":[0,1],"goal":3,"start":5,"action_noise":0.15,"location_history":"[5,4,5,4,3]","action_history":"[1,0,1,0]","door_history":"[1,0,1,0]","location_rts":"[4251,341,944,331]","trial_type":"two-door-navigation","trial_index":51,"time_elapsed":771855,"internal_node_id":"0.0-2.0-49.0"},{"view_history":"[{\"page_index\":0,\"viewing_time\":82262}]","rt":82262,"trial_type":"instructions","trial_index":52,"time_elapsed":855118,"internal_node_id":"0.0-3.0"},{"view_history":"[{\"page_index\":0,\"viewing_time\":3216},{\"page_index\":1,\"viewing_time\":47377}]","rt":50593,"trial_type":"instructions","trial_index":53,"time_elapsed":906714,"internal_node_id":"0.0-4.0"},{"group":"hexagon_bi","fractal_assignment":["../images/blu_wht.png","../images/org_blu.png","../images/gry_blk.png","../images/cyn_red.png","../images/pnk_blu.png","../images/ylw_slt.png"],"mutagen_generator_assignment":[1,0],"goal":3,"start":5,"action_noise":0.15,"location_history":"[5,4,5,4,3]","action_history":"[1,1,1,0]","mutagen_history":"[0,0,0,1]","location_rts":"[4741,1490,639,403]","trial_type":"fractal-mutation","trial_index":54,"time_elapsed":921752,"internal_node_id":"0.0-5.0-0.0"},{"group":"hexagon_bi","fractal_assignment":["../images/blu_wht.png","../images/org_blu.png","../images/gry_blk.png","../images/cyn_red.png","../images/pnk_blu.png","../images/ylw_slt.png"],"mutagen_generator_assignment":[1,0],"goal":1,"start":3,"action_noise":0.15,"location_history":"[3,4,5,4,5,4,3,4,3,2,3,4,5,4,5,4,5,0,1]","action_history":"[0,1,1,1,1,0,0,0,0,1,0,1,1,1,1,1,1,1]","mutagen_history":"[1,0,0,0,0,1,1,1,1,0,1,0,0,0,0,0,0,0]","location_rts":"[2434,948,716,910,332,246,209,474,1508,654,1604,661,1428,838,645,1618,25087,4721]","trial_type":"fractal-mutation","trial_index":55,"time_elapsed":989519,"internal_node_id":"0.0-5.0-1.0"},{"group":"hexagon_bi","fractal_assignment":["../images/blu_wht.png","../images/org_blu.png","../images/gry_blk.png","../images/cyn_red.png","../images/pnk_blu.png","../images/ylw_slt.png"],"mutagen_generator_assignment":[1,0],"goal":0,"start":1,"action_noise":0.15,"location_history":"[1,0]","action_history":"[1]","mutagen_history":"[0]","location_rts":"[4633]","trial_type":"fractal-mutation","trial_index":56,"time_elapsed":998711,"internal_node_id":"0.0-5.0-2.0"},{"group":"hexagon_bi","fractal_assignment":["../images/blu_wht.png","../images/org_blu.png","../images/gry_blk.png","../images/cyn_red.png","../images/pnk_blu.png","../images/ylw_slt.png"],"mutagen_generator_assignment":[1,0],"goal":3,"start":0,"action_noise":0.15,"location_history":"[0,1,2,3]","action_history":"[1,0,1]","mutagen_history":"[0,1,0]","location_rts":"[1812,634,581]","trial_type":"fractal-mutation","trial_index":57,"time_elapsed":1008435,"internal_node_id":"0.0-5.0-3.0"},{"group":"hexagon_bi","fractal_assignment":["../images/blu_wht.png","../images/org_blu.png","../images/gry_blk.png","../images/cyn_red.png","../images/pnk_blu.png","../images/ylw_slt.png"],"mutagen_generator_assignment":[1,0],"goal":4,"start":3,"action_noise":0.15,"location_history":"[3,2,1,2,1,0,5,4]","action_history":"[1,0,1,1,0,0,1]","mutagen_history":"[0,1,0,0,1,1,0]","location_rts":"[1713,1190,614,412,1107,698,630]","trial_type":"fractal-mutation","trial_index":58,"time_elapsed":1025766,"internal_node_id":"0.0-5.0-4.0"},{"group":"hexagon_bi","fractal_assignment":["../images/blu_wht.png","../images/org_blu.png","../images/gry_blk.png","../images/cyn_red.png","../images/pnk_blu.png","../images/ylw_slt.png"],"mutagen_generator_assignment":[1,0],"goal":2,"start":4,"action_noise":0.15,"location_history":"[4,5,4,5,0,5,4,3,2]","action_history":"[1,1,1,0,1,1,0,1]","mutagen_history":"[0,0,0,1,0,0,1,0]","location_rts":"[461,329,310,352,577,618,519,1018]","trial_type":"fractal-mutation","trial_index":59,"time_elapsed":1041950,"internal_node_id":"0.0-5.0-5.0"},{"group":"hexagon_bi","fractal_assignment":["../images/blu_wht.png","../images/org_blu.png","../images/gry_blk.png","../images/cyn_red.png","../images/pnk_blu.png","../images/ylw_slt.png"],"mutagen_generator_assignment":[1,0],"goal":1,"start":2,"action_noise":0.15,"location_history":"[2,3,4,3,4,5,0,5,4,3,4,5,0,5,4,3,4,3,2,1]","action_history":"[1,0,0,0,1,0,1,1,0,0,1,1,0,1,0,0,0,1,0]","mutagen_history":"[0,1,1,1,0,1,0,0,1,1,0,0,1,0,1,1,1,0,1]","location_rts":"[473,348,254,719,353,910,764,598,487,525,386,525,1261,289,2376,1190,848,611,1288]","trial_type":"fractal-mutation","trial_index":60,"time_elapsed":1080075,"internal_node_id":"0.0-5.0-6.0"},{"group":"hexagon_bi","fractal_assignment":["../images/blu_wht.png","../images/org_blu.png","../images/gry_blk.png","../images/cyn_red.png","../images/pnk_blu.png","../images/ylw_slt.png"],"mutagen_generator_assignment":[1,0],"goal":5,"start":1,"action_noise":0.15,"location_history":"[1,2,3,2,3,2,1,0,1,0,5]","action_history":"[1,1,1,1,1,0,1,1,1,0]","mutagen_history":"[0,0,0,0,0,1,0,0,0,1]","location_rts":"[1661,699,605,765,749,348,739,745,905,528]","trial_type":"fractal-mutation","trial_index":61,"time_elapsed":1101930,"internal_node_id":"0.0-5.0-7.0"},{"group":"hexagon_bi","fractal_assignment":["../images/blu_wht.png","../images/org_blu.png","../images/gry_blk.png","../images/cyn_red.png","../images/pnk_blu.png","../images/ylw_slt.png"],"mutagen_generator_assignment":[1,0],"goal":4,"start":5,"action_noise":0.15,"location_history":"[5,4]","action_history":"[1]","mutagen_history":"[0]","location_rts":"[1322]","trial_type":"fractal-mutation","trial_index":62,"time_elapsed":1107810,"internal_node_id":"0.0-5.0-8.0"},{"group":"hexagon_bi","fractal_assignment":["../images/blu_wht.png","../images/org_blu.png","../images/gry_blk.png","../images/cyn_red.png","../images/pnk_blu.png","../images/ylw_slt.png"],"mutagen_generator_assignment":[1,0],"goal":2,"start":4,"action_noise":0.15,"location_history":"[4,3,2]","action_history":"[0,1]","mutagen_history":"[1,0]","location_rts":"[1777,1341]","trial_type":"fractal-mutation","trial_index":63,"time_elapsed":1116571,"internal_node_id":"0.0-5.0-9.0"},{"group":"hexagon_bi","fractal_assignment":["../images/blu_wht.png","../images/org_blu.png","../images/gry_blk.png","../images/cyn_red.png","../images/pnk_blu.png","../images/ylw_slt.png"],"mutagen_generator_assignment":[1,0],"goal":0,"start":2,"action_noise":0.15,"location_history":"[2,3,4,5,4,5,0]","action_history":"[1,0,1,1,1,1]","mutagen_history":"[0,1,0,0,0,0]","location_rts":"[2229,647,564,397,485,333]","trial_type":"fractal-mutation","trial_index":64,"time_elapsed":1131084,"internal_node_id":"0.0-5.0-10.0"},{"group":"hexagon_bi","fractal_assignment":["../images/blu_wht.png","../images/org_blu.png","../images/gry_blk.png","../images/cyn_red.png","../images/pnk_blu.png","../images/ylw_slt.png"],"mutagen_generator_assignment":[1,0],"goal":1,"start":0,"action_noise":0.15,"location_history":"[0,1]","action_history":"[1]","mutagen_history":"[0]","location_rts":"[2183]","trial_type":"fractal-mutation","trial_index":65,"time_elapsed":1137831,"internal_node_id":"0.0-5.0-11.0"},{"group":"hexagon_bi","fractal_assignment":["../images/blu_wht.png","../images/org_blu.png","../images/gry_blk.png","../images/cyn_red.png","../images/pnk_blu.png","../images/ylw_slt.png"],"mutagen_generator_assignment":[1,0],"goal":3,"start":1,"action_noise":0.15,"location_history":"[1,2,3]","action_history":"[0,1]","mutagen_history":"[1,0]","location_rts":"[1512,896]","trial_type":"fractal-mutation","trial_index":66,"time_elapsed":1145890,"internal_node_id":"0.0-5.0-12.0"},{"group":"hexagon_bi","fractal_assignment":["../images/blu_wht.png","../images/org_blu.png","../images/gry_blk.png","../images/cyn_red.png","../images/pnk_blu.png","../images/ylw_slt.png"],"mutagen_generator_assignment":[1,0],"goal":5,"start":3,"action_noise":0.15,"location_history":"[3,4,5]","action_history":"[0,1]","mutagen_history":"[1,0]","location_rts":"[2011,255]","trial_type":"fractal-mutation","trial_index":67,"time_elapsed":1153800,"internal_node_id":"0.0-5.0-13.0"},{"group":"hexagon_bi","fractal_assignment":["../images/blu_wht.png","../images/org_blu.png","../images/gry_blk.png","../images/cyn_red.png","../images/pnk_blu.png","../images/ylw_slt.png"],"mutagen_generator_assignment":[1,0],"goal":4,"start":5,"action_noise":0.15,"location_history":"[5,4]","action_history":"[1]","mutagen_history":"[0]","location_rts":"[1025]","trial_type":"fractal-mutation","trial_index":68,"time_elapsed":1159390,"internal_node_id":"0.0-5.0-14.0"},{"group":"hexagon_bi","fractal_assignment":["../images/blu_wht.png","../images/org_blu.png","../images/gry_blk.png","../images/cyn_red.png","../images/pnk_blu.png","../images/ylw_slt.png"],"mutagen_generator_assignment":[1,0],"goal":0,"start":4,"action_noise":0.15,"location_history":"[4,3,2,3,4,5,4,5,4,5,0]","action_history":"[0,1,1,1,1,1,1,1,1,0]","mutagen_history":"[1,0,0,0,0,0,0,0,0,1]","location_rts":"[1736,256,351,339,518,653,393,862,560,266]","trial_type":"fractal-mutation","trial_index":69,"time_elapsed":1179435,"internal_node_id":"0.0-5.0-15.0"},{"group":"hexagon_bi","fractal_assignment":["../images/blu_wht.png","../images/org_blu.png","../images/gry_blk.png","../images/cyn_red.png","../images/pnk_blu.png","../images/ylw_slt.png"],"mutagen_generator_assignment":[1,0],"goal":3,"start":0,"action_noise":0.15,"location_history":"[0,5,4,5,4,3]","action_history":"[0,1,1,1,0]","mutagen_history":"[1,0,0,0,1]","location_rts":"[1669,664,1035,964,365]","trial_type":"fractal-mutation","trial_index":70,"time_elapsed":1192976,"internal_node_id":"0.0-5.0-16.0"},{"group":"hexagon_bi","fractal_assignment":["../images/blu_wht.png","../images/org_blu.png","../images/gry_blk.png","../images/cyn_red.png","../images/pnk_blu.png","../images/ylw_slt.png"],"mutagen_generator_assignment":[1,0],"goal":1,"start":3,"action_noise":0.15,"location_history":"[3,4,5,4,3,2,1]","action_history":"[0,1,1,0,1,0]","mutagen_history":"[1,0,0,1,0,1]","location_rts":"[642,500,1854,603,505,1229]","trial_type":"fractal-mutation","trial_index":71,"time_elapsed":1208244,"internal_node_id":"0.0-5.0-17.0"},{"group":"hexagon_bi","fractal_assignment":["../images/blu_wht.png","../images/org_blu.png","../images/gry_blk.png","../images/cyn_red.png","../images/pnk_blu.png","../images/ylw_slt.png"],"mutagen_generator_assignment":[1,0],"goal":5,"start":1,"action_noise":0.15,"location_history":"[1,0,1,2,1,0,5]","action_history":"[1,1,1,0,1,0]","mutagen_history":"[0,0,0,1,0,1]","location_rts":"[1208,687,632,294,734,1101]","trial_type":"fractal-mutation","trial_index":72,"time_elapsed":1222800,"internal_node_id":"0.0-5.0-18.0"},{"group":"hexagon_bi","fractal_assignment":["../images/blu_wht.png","../images/org_blu.png","../images/gry_blk.png","../images/cyn_red.png","../images/pnk_blu.png","../images/ylw_slt.png"],"mutagen_generator_assignment":[1,0],"goal":2,"start":5,"action_noise":0.15,"location_history":"[5,0,1,2]","action_history":"[0,1,0]","mutagen_history":"[1,0,1]","location_rts":"[2317,677,744]","trial_type":"fractal-mutation","trial_index":73,"time_elapsed":1233279,"internal_node_id":"0.0-5.0-19.0"},{"group":"hexagon_bi","fractal_assignment":["../images/blu_wht.png","../images/org_blu.png","../images/gry_blk.png","../images/cyn_red.png","../images/pnk_blu.png","../images/ylw_slt.png"],"mutagen_generator_assignment":[1,0],"goal":4,"start":2,"action_noise":0.15,"location_history":"[2,3,2,3,4]","action_history":"[1,1,1,0]","mutagen_history":"[0,0,0,1]","location_rts":"[1413,943,711,341]","trial_type":"fractal-mutation","trial_index":74,"time_elapsed":1244456,"internal_node_id":"0.0-5.0-20.0"},{"group":"hexagon_bi","fractal_assignment":["../images/blu_wht.png","../images/org_blu.png","../images/gry_blk.png","../images/cyn_red.png","../images/pnk_blu.png","../images/ylw_slt.png"],"mutagen_generator_assignment":[1,0],"goal":1,"start":4,"action_noise":0.15,"location_history":"[4,3,4,3,2,3,2,1]","action_history":"[0,0,0,1,1,1,0]","mutagen_history":"[1,1,1,0,0,0,1]","location_rts":"[1309,987,958,324,1443,1087,703]","trial_type":"fractal-mutation","trial_index":75,"time_elapsed":1262301,"internal_node_id":"0.0-5.0-21.0"},{"group":"hexagon_bi","fractal_assignment":["../images/blu_wht.png","../images/org_blu.png","../images/gry_blk.png","../images/cyn_red.png","../images/pnk_blu.png","../images/ylw_slt.png"],"mutagen_generator_assignment":[1,0],"goal":3,"start":1,"action_noise":0.15,"location_history":"[1,0,1,0,1,2,3]","action_history":"[1,0,1,1,0,1]","mutagen_history":"[0,1,0,0,1,0]","location_rts":"[1660,1195,380,719,401,1337]","trial_type":"fractal-mutation","trial_index":76,"time_elapsed":1277884,"internal_node_id":"0.0-5.0-22.0"},{"group":"hexagon_bi","fractal_assignment":["../images/blu_wht.png","../images/org_blu.png","../images/gry_blk.png","../images/cyn_red.png","../images/pnk_blu.png","../images/ylw_slt.png"],"mutagen_generator_assignment":[1,0],"goal":2,"start":3,"action_noise":0.15,"location_history":"[3,2]","action_history":"[1]","mutagen_history":"[0]","location_rts":"[2915]","trial_type":"fractal-mutation","trial_index":77,"time_elapsed":1285361,"internal_node_id":"0.0-5.0-23.0"},{"group":"hexagon_bi","fractal_assignment":["../images/blu_wht.png","../images/org_blu.png","../images/gry_blk.png","../images/cyn_red.png","../images/pnk_blu.png","../images/ylw_slt.png"],"mutagen_generator_assignment":[1,0],"goal":0,"start":2,"action_noise":0.15,"location_history":"[2,1,2,3,2,1,0]","action_history":"[1,0,1,1,0,0]","mutagen_history":"[0,1,0,0,1,1]","location_rts":"[1276,668,578,911,553,598]","trial_type":"fractal-mutation","trial_index":78,"time_elapsed":1299875,"internal_node_id":"0.0-5.0-24.0"},{"group":"hexagon_bi","fractal_assignment":["../images/blu_wht.png","../images/org_blu.png","../images/gry_blk.png","../images/cyn_red.png","../images/pnk_blu.png","../images/ylw_slt.png"],"mutagen_generator_assignment":[1,0],"goal":5,"start":0,"action_noise":0.15,"location_history":"[0,5]","action_history":"[0]","mutagen_history":"[1]","location_rts":"[1387]","trial_type":"fractal-mutation","trial_index":79,"time_elapsed":1305851,"internal_node_id":"0.0-5.0-25.0"},{"group":"hexagon_bi","fractal_assignment":["../images/blu_wht.png","../images/org_blu.png","../images/gry_blk.png","../images/cyn_red.png","../images/pnk_blu.png","../images/ylw_slt.png"],"mutagen_generator_assignment":[1,0],"goal":2,"start":5,"action_noise":0.15,"location_history":"[5,0,1,2]","action_history":"[0,1,0]","mutagen_history":"[1,0,1]","location_rts":"[1896,1566,308]","trial_type":"fractal-mutation","trial_index":80,"time_elapsed":1316360,"internal_node_id":"0.0-5.0-26.0"},{"group":"hexagon_bi","fractal_assignment":["../images/blu_wht.png","../images/org_blu.png","../images/gry_blk.png","../images/cyn_red.png","../images/pnk_blu.png","../images/ylw_slt.png"],"mutagen_generator_assignment":[1,0],"goal":3,"start":2,"action_noise":0.15,"location_history":"[2,3]","action_history":"[1]","mutagen_history":"[0]","location_rts":"[1373]","trial_type":"fractal-mutation","trial_index":81,"time_elapsed":1322291,"internal_node_id":"0.0-5.0-27.0"},{"group":"hexagon_bi","fractal_assignment":["../images/blu_wht.png","../images/org_blu.png","../images/gry_blk.png","../images/cyn_red.png","../images/pnk_blu.png","../images/ylw_slt.png"],"mutagen_generator_assignment":[1,0],"goal":0,"start":3,"action_noise":0.15,"location_history":"[3,4,5,0]","action_history":"[0,1,1]","mutagen_history":"[1,0,0]","location_rts":"[1698,513,583]","trial_type":"fractal-mutation","trial_index":82,"time_elapsed":1331791,"internal_node_id":"0.0-5.0-28.0"},{"group":"hexagon_bi","fractal_assignment":["../images/blu_wht.png","../images/org_blu.png","../images/gry_blk.png","../images/cyn_red.png","../images/pnk_blu.png","../images/ylw_slt.png"],"mutagen_generator_assignment":[1,0],"goal":1,"start":0,"action_noise":0.15,"location_history":"[0,5,4,3,4,5,0,1]","action_history":"[0,1,1,0,1,1,1]","mutagen_history":"[1,0,0,1,0,0,0]","location_rts":"[2379,409,1408,550,765,2368,1379]","trial_type":"fractal-mutation","trial_index":83,"time_elapsed":1351997,"internal_node_id":"0.0-5.0-29.0"},{"group":"hexagon_bi","fractal_assignment":["../images/blu_wht.png","../images/org_blu.png","../images/gry_blk.png","../images/cyn_red.png","../images/pnk_blu.png","../images/ylw_slt.png"],"mutagen_generator_assignment":[1,0],"goal":4,"start":1,"action_noise":0.15,"location_history":"[1,2,3,2,3,4]","action_history":"[0,1,1,0,0]","mutagen_history":"[1,0,0,1,1]","location_rts":"[1725,491,1438,1666,453]","trial_type":"fractal-mutation","trial_index":84,"time_elapsed":1366637,"internal_node_id":"0.0-5.0-30.0"},{"group":"hexagon_bi","fractal_assignment":["../images/blu_wht.png","../images/org_blu.png","../images/gry_blk.png","../images/cyn_red.png","../images/pnk_blu.png","../images/ylw_slt.png"],"mutagen_generator_assignment":[1,0],"goal":5,"start":4,"action_noise":0.15,"location_history":"[4,3,2,3,2,1,2,3,4,3,2,1,2,3,4,3,2,3,2,3,2,1,2,1,2,1,0,5]","action_history":"[0,1,1,1,0,0,1,0,0,0,0,0,1,0,1,1,1,1,1,1,0,0,0,1,0,1,0]","mutagen_history":"[1,0,0,0,1,1,0,1,1,1,1,1,0,1,0,0,0,0,0,0,1,1,1,0,1,0,1]","location_rts":"[1701,552,1032,712,279,988,664,946,588,526,787,1208,1134,1570,515,560,493,435,435,1408,636,1338,1052,554,613,454,1179]","trial_type":"fractal-mutation","trial_index":85,"time_elapsed":1421403,"internal_node_id":"0.0-5.0-31.0"},{"group":"hexagon_bi","fractal_assignment":["../images/blu_wht.png","../images/org_blu.png","../images/gry_blk.png","../images/cyn_red.png","../images/pnk_blu.png","../images/ylw_slt.png"],"mutagen_generator_assignment":[1,0],"goal":0,"start":5,"action_noise":0.15,"location_history":"[5,4,5,4,5,4,3,2,1,0]","action_history":"[0,1,1,0,0,0,1,0,1]","mutagen_history":"[1,0,0,1,1,1,0,1,0]","location_rts":"[1813,343,429,565,367,540,701,814,1429]","trial_type":"fractal-mutation","trial_index":86,"time_elapsed":1441553,"internal_node_id":"0.0-5.0-32.0"},{"group":"hexagon_bi","fractal_assignment":["../images/blu_wht.png","../images/org_blu.png","../images/gry_blk.png","../images/cyn_red.png","../images/pnk_blu.png","../images/ylw_slt.png"],"mutagen_generator_assignment":[1,0],"goal":3,"start":0,"action_noise":0.15,"location_history":"[0,1,2,3]","action_history":"[1,0,1]","mutagen_history":"[0,1,0]","location_rts":"[1782,584,743]","trial_type":"fractal-mutation","trial_index":87,"time_elapsed":1451357,"internal_node_id":"0.0-5.0-33.0"},{"group":"hexagon_bi","fractal_assignment":["../images/blu_wht.png","../images/org_blu.png","../images/gry_blk.png","../images/cyn_red.png","../images/pnk_blu.png","../images/ylw_slt.png"],"mutagen_generator_assignment":[1,0],"goal":1,"start":3,"action_noise":0.15,"location_history":"[3,2,3,2,1]","action_history":"[1,1,1,0]","mutagen_history":"[0,0,0,1]","location_rts":"[1885,1557,768,336]","trial_type":"fractal-mutation","trial_index":88,"time_elapsed":1463659,"internal_node_id":"0.0-5.0-34.0"},{"group":"hexagon_bi","fractal_assignment":["../images/blu_wht.png","../images/org_blu.png","../images/gry_blk.png","../images/cyn_red.png","../images/pnk_blu.png","../images/ylw_slt.png"],"mutagen_generator_assignment":[1,0],"goal":2,"start":1,"action_noise":0.15,"location_history":"[1,2]","action_history":"[0]","mutagen_history":"[1]","location_rts":"[1942]","trial_type":"fractal-mutation","trial_index":89,"time_elapsed":1470190,"internal_node_id":"0.0-5.0-35.0"},{"group":"hexagon_bi","fractal_assignment":["../images/blu_wht.png","../images/org_blu.png","../images/gry_blk.png","../images/cyn_red.png","../images/pnk_blu.png","../images/ylw_slt.png"],"mutagen_generator_assignment":[1,0],"goal":4,"start":2,"action_noise":0.15,"location_history":"[2,1,0,5,4]","action_history":"[0,1,0,1]","mutagen_history":"[1,0,1,0]","location_rts":"[1362,639,1092,338]","trial_type":"fractal-mutation","trial_index":90,"time_elapsed":1481404,"internal_node_id":"0.0-5.0-36.0"},{"group":"hexagon_bi","fractal_assignment":["../images/blu_wht.png","../images/org_blu.png","../images/gry_blk.png","../images/cyn_red.png","../images/pnk_blu.png","../images/ylw_slt.png"],"mutagen_generator_assignment":[1,0],"goal":5,"start":4,"action_noise":0.15,"location_history":"[4,3,4,5]","action_history":"[0,1,1]","mutagen_history":"[1,0,0]","location_rts":"[2367,710,1298]","trial_type":"fractal-mutation","trial_index":91,"time_elapsed":1492485,"internal_node_id":"0.0-5.0-37.0"},{"group":"hexagon_bi","fractal_assignment":["../images/blu_wht.png","../images/org_blu.png","../images/gry_blk.png","../images/cyn_red.png","../images/pnk_blu.png","../images/ylw_slt.png"],"mutagen_generator_assignment":[1,0],"goal":1,"start":5,"action_noise":0.15,"location_history":"[5,0,5,0,1]","action_history":"[0,0,1,1]","mutagen_history":"[1,1,0,0]","location_rts":"[2114,1210,374,1069]","trial_type":"fractal-mutation","trial_index":92,"time_elapsed":1505036,"internal_node_id":"0.0-5.0-38.0"},{"group":"hexagon_bi","fractal_assignment":["../images/blu_wht.png","../images/org_blu.png","../images/gry_blk.png","../images/cyn_red.png","../images/pnk_blu.png","../images/ylw_slt.png"],"mutagen_generator_assignment":[1,0],"goal":4,"start":1,"action_noise":0.15,"location_history":"[1,0,5,4]","action_history":"[1,0,1]","mutagen_history":"[0,1,0]","location_rts":"[1669,1488,718]","trial_type":"fractal-mutation","trial_index":93,"time_elapsed":1515612,"internal_node_id":"0.0-5.0-39.0"},{"group":"hexagon_bi","fractal_assignment":["../images/blu_wht.png","../images/org_blu.png","../images/gry_blk.png","../images/cyn_red.png","../images/pnk_blu.png","../images/ylw_slt.png"],"mutagen_generator_assignment":[1,0],"goal":3,"start":4,"action_noise":0.15,"location_history":"[4,3]","action_history":"[0]","mutagen_history":"[1]","location_rts":"[1513]","trial_type":"fractal-mutation","trial_index":94,"time_elapsed":1521722,"internal_node_id":"0.0-5.0-40.0"},{"group":"hexagon_bi","fractal_assignment":["../images/blu_wht.png","../images/org_blu.png","../images/gry_blk.png","../images/cyn_red.png","../images/pnk_blu.png","../images/ylw_slt.png"],"mutagen_generator_assignment":[1,0],"goal":2,"start":3,"action_noise":0.15,"location_history":"[3,4,3,4,5,0,5,4,5,0,1,2]","action_history":"[0,1,1,1,0,0,1,1,1,1,0]","mutagen_history":"[1,0,0,0,1,1,0,0,0,0,1]","location_rts":"[1244,472,556,755,736,1088,271,708,730,1394,405]","trial_type":"fractal-mutation","trial_index":95,"time_elapsed":1545310,"internal_node_id":"0.0-5.0-41.0"},{"group":"hexagon_bi","fractal_assignment":["../images/blu_wht.png","../images/org_blu.png","../images/gry_blk.png","../images/cyn_red.png","../images/pnk_blu.png","../images/ylw_slt.png"],"mutagen_generator_assignment":[1,0],"goal":0,"start":2,"action_noise":0.15,"location_history":"[2,3,2,1,2,3,4,5,4,5,0]","action_history":"[1,1,0,1,0,0,1,1,1,0]","mutagen_history":"[0,0,1,0,1,1,0,0,0,1]","location_rts":"[1629,813,739,501,1300,506,441,856,739,283]","trial_type":"fractal-mutation","trial_index":96,"time_elapsed":1567294,"internal_node_id":"0.0-5.0-42.0"},{"group":"hexagon_bi","fractal_assignment":["../images/blu_wht.png","../images/org_blu.png","../images/gry_blk.png","../images/cyn_red.png","../images/pnk_blu.png","../images/ylw_slt.png"],"mutagen_generator_assignment":[1,0],"goal":5,"start":0,"action_noise":0.15,"location_history":"[0,1,0,5]","action_history":"[1,1,0]","mutagen_history":"[0,0,1]","location_rts":"[1228,677,1185]","trial_type":"fractal-mutation","trial_index":97,"time_elapsed":1577079,"internal_node_id":"0.0-5.0-43.0"},{"group":"hexagon_bi","fractal_assignment":["../images/blu_wht.png","../images/org_blu.png","../images/gry_blk.png","../images/cyn_red.png","../images/pnk_blu.png","../images/ylw_slt.png"],"mutagen_generator_assignment":[1,0],"goal":0,"start":5,"action_noise":0.15,"location_history":"[5,0]","action_history":"[1]","mutagen_history":"[0]","location_rts":"[1193]","trial_type":"fractal-mutation","trial_index":98,"time_elapsed":1582833,"internal_node_id":"0.0-5.0-44.0"},{"group":"hexagon_bi","fractal_assignment":["../images/blu_wht.png","../images/org_blu.png","../images/gry_blk.png","../images/cyn_red.png","../images/pnk_blu.png","../images/ylw_slt.png"],"mutagen_generator_assignment":[1,0],"goal":2,"start":0,"action_noise":0.15,"location_history":"[0,1,0,5,0,1,2]","action_history":"[0,1,0,0,1,0]","mutagen_history":"[1,0,1,1,0,1]","location_rts":"[1704,534,863,277,688,230]","trial_type":"fractal-mutation","trial_index":99,"time_elapsed":1597106,"internal_node_id":"0.0-5.0-45.0"},{"group":"hexagon_bi","fractal_assignment":["../images/blu_wht.png","../images/org_blu.png","../images/gry_blk.png","../images/cyn_red.png","../images/pnk_blu.png","../images/ylw_slt.png"],"mutagen_generator_assignment":[1,0],"goal":4,"start":2,"action_noise":0.15,"location_history":"[2,1,2,3,4]","action_history":"[0,0,1,0]","mutagen_history":"[1,1,0,1]","location_rts":"[1821,868,956,1657]","trial_type":"fractal-mutation","trial_index":100,"time_elapsed":1610237,"internal_node_id":"0.0-5.0-46.0"},{"group":"hexagon_bi","fractal_assignment":["../images/blu_wht.png","../images/org_blu.png","../images/gry_blk.png","../images/cyn_red.png","../images/pnk_blu.png","../images/ylw_slt.png"],"mutagen_generator_assignment":[1,0],"goal":1,"start":4,"action_noise":0.15,"location_history":"[4,5,4,5,4,5,0,1]","action_history":"[0,1,1,1,1,0,1]","mutagen_history":"[1,0,0,0,0,1,0]","location_rts":"[2884,608,753,806,739,359,3144]","trial_type":"fractal-mutation","trial_index":101,"time_elapsed":1630490,"internal_node_id":"0.0-5.0-47.0"},{"group":"hexagon_bi","fractal_assignment":["../images/blu_wht.png","../images/org_blu.png","../images/gry_blk.png","../images/cyn_red.png","../images/pnk_blu.png","../images/ylw_slt.png"],"mutagen_generator_assignment":[1,0],"goal":5,"start":1,"action_noise":0.15,"location_history":"[1,2,3,2,1,2,3,2,3,2,1,2,1,2,3,4,5]","action_history":"[0,1,1,0,0,1,1,1,1,0,0,0,0,1,0,1]","mutagen_history":"[1,0,0,1,1,0,0,0,0,1,1,1,1,0,1,0]","location_rts":"[2905,916,811,1194,1357,953,559,438,506,899,881,721,1719,1061,532,1063]","trial_type":"fractal-mutation","trial_index":102,"time_elapsed":1667658,"internal_node_id":"0.0-5.0-48.0"},{"group":"hexagon_bi","fractal_assignment":["../images/blu_wht.png","../images/org_blu.png","../images/gry_blk.png","../images/cyn_red.png","../images/pnk_blu.png","../images/ylw_slt.png"],"mutagen_generator_assignment":[1,0],"goal":3,"start":5,"action_noise":0.15,"location_history":"[5,4,3]","action_history":"[1,0]","mutagen_history":"[0,1]","location_rts":"[1712,896]","trial_type":"fractal-mutation","trial_index":103,"time_elapsed":1675909,"internal_node_id":"0.0-5.0-49.0"},{"view_history":"[{\"page_index\":0,\"viewing_time\":11705}]","rt":11705,"trial_type":"instructions","trial_index":104,"time_elapsed":1688613,"internal_node_id":"0.0-6.0"},{"rt":6283,"responses":"{\"Q0\":\"none\"}","trial_type":"survey-text","trial_index":105,"time_elapsed":1695898,"internal_node_id":"0.0-7.0"}]