[{"view_history":"[{\"page_index\":0,\"viewing_time\":2857},{\"page_index\":1,\"viewing_time\":13468}]","rt":16326,"trial_type":"instructions","trial_index":0,"time_elapsed":16329,"internal_node_id":"0.0-0.0"},{"view_history":"[{\"page_index\":0,\"viewing_time\":1505},{\"page_index\":1,\"viewing_time\":24209}]","rt":25715,"trial_type":"instructions","trial_index":1,"time_elapsed":43044,"internal_node_id":"0.0-1.0"},{"group":"hexagon_tri","room_assignment":["green","yellow","blue","red","purple","grey"],"door_color_assignment":["black","white"],"door_generator_assignment":[0,1],"goal":3,"start":5,"action_noise":0.15,"location_history":"[5,4,0,5,4,0,5,4,0,1,3]","action_history":"[0,0,0,0,0,0,0,0,0,0]","door_history":"[0,0,0,0,0,0,0,0,0,0]","location_rts":"[2778,516,407,386,388,412,413,425,420,320]","trial_type":"two-door-navigation","trial_index":2,"time_elapsed":63305,"internal_node_id":"0.0-2.0-0.0"},{"group":"hexagon_tri","room_assignment":["green","yellow","blue","red","purple","grey"],"door_color_assignment":["black","white"],"door_generator_assignment":[0,1],"goal":1,"start":3,"action_noise":0.15,"location_history":"[3,2,3,2,1]","action_history":"[0,0,0,0]","door_history":"[0,0,0,0]","location_rts":"[1313,410,577,387]","trial_type":"two-door-navigation","trial_index":3,"time_elapsed":73527,"internal_node_id":"0.0-2.0-1.0"},{"group":"hexagon_tri","room_assignment":["green","yellow","blue","red","purple","grey"],"door_color_assignment":["black","white"],"door_generator_assignment":[0,1],"goal":0,"start":1,"action_noise":0.15,"location_history":"[1,5,0]","action_history":"[1,1]","door_history":"[1,1]","location_rts":"[2982,359]","trial_type":"two-door-navigation","trial_index":4,"time_elapsed":82372,"internal_node_id":"0.0-2.0-2.0"},{"group":"hexagon_tri","room_assignment":["green","yellow","blue","red","purple","grey"],"door_color_assignment":["black","white"],"door_generator_assignment":[0,1],"goal":3,"start":0,"action_noise":0.15,"location_history":"[0,5,4,0,5,0,5,4,0,5,4,0,5,4,2,3]","action_history":"[0,0,0,0,0,0,0,0,0,0,0,0,0,1,1]","door_history":"[0,0,0,0,0,0,0,0,0,0,0,0,0,1,1]","location_rts":"[1213,392,458,422,420,420,376,429,412,373,401,394,444,405,328]","trial_type":"two-door-navigation","trial_index":5,"time_elapsed":107797,"internal_node_id":"0.0-2.0-3.0"},{"group":"hexagon_tri","room_assignment":["green","yellow","blue","red","purple","grey"],"door_color_assignment":["black","white"],"door_generator_assignment":[0,1],"goal":4,"start":3,"action_noise":0.15,"location_history":"[3,2,1,3,2,1,3,2,1,3,2,1,3,2,3,2,3,4]","action_history":"[0,0,0,0,0,0,0,0,0,0,0,0,0,0,0,0,1]","door_history":"[0,0,0,0,0,0,0,0,0,0,0,0,0,0,0,0,1]","location_rts":"[1622,393,422,405,646,905,358,428,367,359,412,406,417,646,656,430,545]","trial_type":"two-door-navigation","trial_index":6,"time_elapsed":137753,"internal_node_id":"0.0-2.0-4.0"},{"group":"hexagon_tri","room_assignment":["green","yellow","blue","red","purple","grey"],"door_color_assignment":["black","white"],"door_generator_assignment":[0,1],"goal":2,"start":4,"action_noise":0.15,"location_history":"[4,0,5,4,0,5,4,0,1,5,4,0,5,0,1,5,0,1,5,0,1,5,4,2]","action_history":"[0,0,0,0,0,0,1,1,1,1,0,1,1,1,1,1,1,1,1,1,1,0,0]","door_history":"[0,0,0,0,0,0,1,1,1,1,0,1,1,1,1,1,1,1,1,1,1,0,0]","location_rts":"[947,366,414,361,435,386,390,311,364,374,672,380,313,349,376,340,366,356,500,339,382,933,350]","trial_type":"two-door-navigation","trial_index":7,"time_elapsed":174546,"internal_node_id":"0.0-2.0-5.0"},{"group":"hexagon_tri","room_assignment":["green","yellow","blue","red","purple","grey"],"door_color_assignment":["black","white"],"door_generator_assignment":[0,1],"goal":1,"start":2,"action_noise":0.15,"location_history":"[2,1]","action_history":"[0]","door_history":"[0]","location_rts":"[925]","trial_type":"two-door-navigation","trial_index":8,"time_elapsed":179983,"internal_node_id":"0.0-2.0-6.0"},{"group":"hexagon_tri","room_assignment":["green","yellow","blue","red","purple","grey"],"door_color_assignment":["black","white"],"door_generator_assignment":[0,1],"goal":5,"start":1,"action_noise":0.15,"location_history":"[1,3,4,0,1,5]","action_history":"[0,1,0,1,1]","door_history":"[0,1,0,1,1]","location_rts":"[1467,403,366,451,270]","trial_type":"two-door-navigation","trial_index":9,"time_elapsed":191465,"internal_node_id":"0.0-2.0-7.0"},{"group":"hexagon_tri","room_assignment":["green","yellow","blue","red","purple","grey"],"door_color_assignment":["black","white"],"door_generator_assignment":[0,1],"goal":4,"start":5,"action_noise":0.15,"location_history":"[5,0,5,4]","action_history":"[0,0,0]","door_history":"[0,0,0]","location_rts":"[781,327,375]","trial_type":"two-door-navigation","trial_index":10,"time_elapsed":199498,"internal_node_id":"0.0-2.0-8.0"},{"group":"hexagon_tri","room_assignment":["green","yellow","blue","red","purple","grey"],"door_color_assignment":["black","white"],"door_generator_assignment":[0,1],"goal":2,"start":4,"action_noise":0.15,"location_history":"[4,0,5,4,2]","action_history":"[0,0,0,0]","door_history":"[0,0,0,0]","location_rts":"[638,247,332,354]","trial_type":"two-door-navigation","trial_index":11,"time_elapsed":208584,"internal_node_id":"0.0-2.0-9.0"},{"group":"hexagon_tri","room_assignment":["green","yellow","blue","red","purple","grey"],"door_color_assignment":["black","white"],"door_generator_assignment":[0,1],"goal":0,"start":2,"action_noise":0.15,"location_history":"[2,1,5,0]","action_history":"[1,1,1]","door_history":"[1,1,1]","location_rts":"[685,349,408]","trial_type":"two-door-navigation","trial_index":12,"time_elapsed":216757,"internal_node_id":"0.0-2.0-10.0"},{"group":"hexagon_tri","room_assignment":["green","yellow","blue","red","purple","grey"],"door_color_assignment":["black","white"],"door_generator_assignment":[0,1],"goal":1,"start":0,"action_noise":0.15,"location_history":"[0,5,4,0,5,4,2,1]","action_history":"[0,0,0,0,0,0,0]","door_history":"[0,0,0,0,0,0,0]","location_rts":"[613,367,368,370,334,381,376]","trial_type":"two-door-navigation","trial_index":13,"time_elapsed":230082,"internal_node_id":"0.0-2.0-11.0"},{"group":"hexagon_tri","room_assignment":["green","yellow","blue","red","purple","grey"],"door_color_assignment":["black","white"],"door_generator_assignment":[0,1],"goal":3,"start":1,"action_noise":0.15,"location_history":"[1,3]","action_history":"[0]","door_history":"[0]","location_rts":"[678]","trial_type":"two-door-navigation","trial_index":14,"time_elapsed":235264,"internal_node_id":"0.0-2.0-12.0"},{"group":"hexagon_tri","room_assignment":["green","yellow","blue","red","purple","grey"],"door_color_assignment":["black","white"],"door_generator_assignment":[0,1],"goal":5,"start":3,"action_noise":0.15,"location_history":"[3,2,3,2,3,2,1,3,4,0,1,3,2,1,5]","action_history":"[0,1,0,1,0,1,0,1,0,1,0,1,0,1]","door_history":"[0,1,0,1,0,1,0,1,0,1,0,1,0,1]","location_rts":"[808,400,271,348,291,241,186,301,267,327,258,199,247,225]","trial_type":"two-door-navigation","trial_index":15,"time_elapsed":257165,"internal_node_id":"0.0-2.0-13.0"},{"group":"hexagon_tri","room_assignment":["green","yellow","blue","red","purple","grey"],"door_color_assignment":["black","white"],"door_generator_assignment":[0,1],"goal":4,"start":5,"action_noise":0.15,"location_history":"[5,4]","action_history":"[0]","door_history":"[0]","location_rts":"[1358]","trial_type":"two-door-navigation","trial_index":16,"time_elapsed":263031,"internal_node_id":"0.0-2.0-14.0"},{"group":"hexagon_tri","room_assignment":["green","yellow","blue","red","purple","grey"],"door_color_assignment":["black","white"],"door_generator_assignment":[0,1],"goal":0,"start":4,"action_noise":0.15,"location_history":"[4,0]","action_history":"[0]","door_history":"[0]","location_rts":"[671]","trial_type":"two-door-navigation","trial_index":17,"time_elapsed":268203,"internal_node_id":"0.0-2.0-15.0"},{"group":"hexagon_tri","room_assignment":["green","yellow","blue","red","purple","grey"],"door_color_assignment":["black","white"],"door_generator_assignment":[0,1],"goal":3,"start":0,"action_noise":0.15,"location_history":"[0,5,4,0,5,4,0,1,3]","action_history":"[0,0,0,0,0,0,0,0]","door_history":"[0,0,0,0,0,0,0,0]","location_rts":"[2710,685,406,347,332,431,500,417]","trial_type":"two-door-navigation","trial_index":18,"time_elapsed":285558,"internal_node_id":"0.0-2.0-16.0"},{"group":"hexagon_tri","room_assignment":["green","yellow","blue","red","purple","grey"],"door_color_assignment":["black","white"],"door_generator_assignment":[0,1],"goal":1,"start":3,"action_noise":0.15,"location_history":"[3,2,3,2,1]","action_history":"[0,0,0,0]","door_history":"[0,0,0,0]","location_rts":"[1006,487,523,420]","trial_type":"two-door-navigation","trial_index":19,"time_elapsed":295519,"internal_node_id":"0.0-2.0-17.0"},{"group":"hexagon_tri","room_assignment":["green","yellow","blue","red","purple","grey"],"door_color_assignment":["black","white"],"door_generator_assignment":[0,1],"goal":5,"start":1,"action_noise":0.15,"location_history":"[1,3,4,2,3,2,3,2,1,5]","action_history":"[0,1,0,1,0,1,0,0,0]","door_history":"[0,1,0,1,0,1,0,0,0]","location_rts":"[896,490,480,310,294,383,333,346,527]","trial_type":"two-door-navigation","trial_index":20,"time_elapsed":312119,"internal_node_id":"0.0-2.0-18.0"},{"group":"hexagon_tri","room_assignment":["green","yellow","blue","red","purple","grey"],"door_color_assignment":["black","white"],"door_generator_assignment":[0,1],"goal":2,"start":5,"action_noise":0.15,"location_history":"[5,4,0,5,4,0,5,0,5,0,1,5,0,5,0,1,3,2]","action_history":"[0,0,0,0,0,0,0,0,1,1,1,0,0,1,1,0,0]","door_history":"[0,0,0,0,0,0,0,0,1,1,1,0,0,1,1,0,0]","location_rts":"[653,380,391,373,388,397,403,411,309,264,362,1180,420,287,340,436,340]","trial_type":"two-door-navigation","trial_index":21,"time_elapsed":340014,"internal_node_id":"0.0-2.0-19.0"},{"group":"hexagon_tri","room_assignment":["green","yellow","blue","red","purple","grey"],"door_color_assignment":["black","white"],"door_generator_assignment":[0,1],"goal":4,"start":2,"action_noise":0.15,"location_history":"[2,1,3,4]","action_history":"[0,0,0]","door_history":"[0,0,0]","location_rts":"[683,336,339]","trial_type":"two-door-navigation","trial_index":22,"time_elapsed":347893,"internal_node_id":"0.0-2.0-20.0"},{"group":"hexagon_tri","room_assignment":["green","yellow","blue","red","purple","grey"],"door_color_assignment":["black","white"],"door_generator_assignment":[0,1],"goal":1,"start":4,"action_noise":0.15,"location_history":"[4,2,3,4,0,5,4,2,1]","action_history":"[0,0,0,0,0,0,1,0]","door_history":"[0,0,0,0,0,0,1,0]","location_rts":"[778,333,431,412,464,372,728,425]","trial_type":"two-door-navigation","trial_index":23,"time_elapsed":363362,"internal_node_id":"0.0-2.0-21.0"},{"group":"hexagon_tri","room_assignment":["green","yellow","blue","red","purple","grey"],"door_color_assignment":["black","white"],"door_generator_assignment":[0,1],"goal":3,"start":1,"action_noise":0.15,"location_history":"[1,3]","action_history":"[0]","door_history":"[0]","location_rts":"[818]","trial_type":"two-door-navigation","trial_index":24,"time_elapsed":368683,"internal_node_id":"0.0-2.0-22.0"},{"group":"hexagon_tri","room_assignment":["green","yellow","blue","red","purple","grey"],"door_color_assignment":["black","white"],"door_generator_assignment":[0,1],"goal":2,"start":3,"action_noise":0.15,"location_history":"[3,2]","action_history":"[0]","door_history":"[0]","location_rts":"[703]","trial_type":"two-door-navigation","trial_index":25,"time_elapsed":373891,"internal_node_id":"0.0-2.0-23.0"},{"group":"hexagon_tri","room_assignment":["green","yellow","blue","red","purple","grey"],"door_color_assignment":["black","white"],"door_generator_assignment":[0,1],"goal":0,"start":2,"action_noise":0.15,"location_history":"[2,1,3,2,1,5,4,0]","action_history":"[0,0,0,0,1,0,0]","door_history":"[0,0,0,0,1,0,0]","location_rts":"[797,316,348,621,688,358,322]","trial_type":"two-door-navigation","trial_index":26,"time_elapsed":387866,"internal_node_id":"0.0-2.0-24.0"},{"group":"hexagon_tri","room_assignment":["green","yellow","blue","red","purple","grey"],"door_color_assignment":["black","white"],"door_generator_assignment":[0,1],"goal":5,"start":0,"action_noise":0.15,"location_history":"[0,5]","action_history":"[0]","door_history":"[0]","location_rts":"[640]","trial_type":"two-door-navigation","trial_index":27,"time_elapsed":393011,"internal_node_id":"0.0-2.0-25.0"},{"group":"hexagon_tri","room_assignment":["green","yellow","blue","red","purple","grey"],"door_color_assignment":["black","white"],"door_generator_assignment":[0,1],"goal":2,"start":5,"action_noise":0.15,"location_history":"[5,4,0,1,5,4,0,5,4,2]","action_history":"[0,0,0,0,0,0,0,0,1]","door_history":"[0,0,0,0,0,0,0,0,1]","location_rts":"[621,468,396,385,408,429,387,397,861]","trial_type":"two-door-navigation","trial_index":28,"time_elapsed":409894,"internal_node_id":"0.0-2.0-26.0"},{"group":"hexagon_tri","room_assignment":["green","yellow","blue","red","purple","grey"],"door_color_assignment":["black","white"],"door_generator_assignment":[0,1],"goal":3,"start":2,"action_noise":0.15,"location_history":"[2,3]","action_history":"[0]","door_history":"[0]","location_rts":"[558]","trial_type":"two-door-navigation","trial_index":29,"time_elapsed":414956,"internal_node_id":"0.0-2.0-27.0"},{"group":"hexagon_tri","room_assignment":["green","yellow","blue","red","purple","grey"],"door_color_assignment":["black","white"],"door_generator_assignment":[0,1],"goal":0,"start":3,"action_noise":0.15,"location_history":"[3,2,1,5,0]","action_history":"[0,0,0,1]","door_history":"[0,0,0,1]","location_rts":"[607,650,545,451]","trial_type":"two-door-navigation","trial_index":30,"time_elapsed":424731,"internal_node_id":"0.0-2.0-28.0"},{"group":"hexagon_tri","room_assignment":["green","yellow","blue","red","purple","grey"],"door_color_assignment":["black","white"],"door_generator_assignment":[0,1],"goal":1,"start":0,"action_noise":0.15,"location_history":"[0,5,4,0,5,0,1]","action_history":"[0,0,0,0,1,1]","door_history":"[0,0,0,0,1,1]","location_rts":"[485,385,340,496,293,360]","trial_type":"two-door-navigation","trial_index":31,"time_elapsed":436607,"internal_node_id":"0.0-2.0-29.0"},{"group":"hexagon_tri","room_assignment":["green","yellow","blue","red","purple","grey"],"door_color_assignment":["black","white"],"door_generator_assignment":[0,1],"goal":4,"start":1,"action_noise":0.15,"location_history":"[1,3,2,1,5,0,5,0,5,0,5,4]","action_history":"[0,0,0,1,1,0,0,0,1,0,0]","door_history":"[0,0,0,1,1,0,0,0,1,0,0]","location_rts":"[642,567,464,429,327,610,316,370,874,844,149]","trial_type":"two-door-navigation","trial_index":32,"time_elapsed":456739,"internal_node_id":"0.0-2.0-30.0"},{"group":"hexagon_tri","room_assignment":["green","yellow","blue","red","purple","grey"],"door_color_assignment":["black","white"],"door_generator_assignment":[0,1],"goal":5,"start":4,"action_noise":0.15,"location_history":"[4,0,1,3,2,1,5]","action_history":"[0,1,0,1,0,1]","door_history":"[0,1,0,1,0,1]","location_rts":"[1041,581,453,571,581,402]","trial_type":"two-door-navigation","trial_index":33,"time_elapsed":469891,"internal_node_id":"0.0-2.0-31.0"},{"group":"hexagon_tri","room_assignment":["green","yellow","blue","red","purple","grey"],"door_color_assignment":["black","white"],"door_generator_assignment":[0,1],"goal":0,"start":5,"action_noise":0.15,"location_history":"[5,4,0]","action_history":"[0,0]","door_history":"[0,0]","location_rts":"[810,504]","trial_type":"two-door-navigation","trial_index":34,"time_elapsed":476711,"internal_node_id":"0.0-2.0-32.0"},{"group":"hexagon_tri","room_assignment":["green","yellow","blue","red","purple","grey"],"door_color_assignment":["black","white"],"door_generator_assignment":[0,1],"goal":3,"start":0,"action_noise":0.15,"location_history":"[0,5,4,0,5,4,0,5,4,0,5,0,5,4,0,5,0,5,4,0,5,4,0,5,4,2,1,5,0,1,5,0,5,4,0,1,3]","action_history":"[0,0,0,0,0,0,0,0,0,0,1,0,0,0,0,1,0,0,0,0,0,0,0,0,1,1,1,1,1,1,1,0,0,0,0,0]","door_history":"[0,0,0,0,0,0,0,0,0,0,1,0,0,0,0,1,0,0,0,0,0,0,0,0,1,1,1,1,1,1,1,0,0,0,0,0]","location_rts":"[798,348,396,360,375,407,375,327,498,472,723,344,334,392,422,397,355,227,432,407,371,372,349,371,368,266,456,364,334,363,374,790,356,374,308,402]","trial_type":"two-door-navigation","trial_index":35,"time_elapsed":530915,"internal_node_id":"0.0-2.0-33.0"},{"group":"hexagon_tri","room_assignment":["green","yellow","blue","red","purple","grey"],"door_color_assignment":["black","white"],"door_generator_assignment":[0,1],"goal":1,"start":3,"action_noise":0.15,"location_history":"[3,2,1]","action_history":"[0,0]","door_history":"[0,0]","location_rts":"[380,360]","trial_type":"two-door-navigation","trial_index":36,"time_elapsed":537166,"internal_node_id":"0.0-2.0-34.0"},{"group":"hexagon_tri","room_assignment":["green","yellow","blue","red","purple","grey"],"door_color_assignment":["black","white"],"door_generator_assignment":[0,1],"goal":2,"start":1,"action_noise":0.15,"location_history":"[1,3,2]","action_history":"[0,0]","door_history":"[0,0]","location_rts":"[1395,482]","trial_type":"two-door-navigation","trial_index":37,"time_elapsed":544549,"internal_node_id":"0.0-2.0-35.0"},{"group":"hexagon_tri","room_assignment":["green","yellow","blue","red","purple","grey"],"door_color_assignment":["black","white"],"door_generator_assignment":[0,1],"goal":4,"start":2,"action_noise":0.15,"location_history":"[2,1,3,2,1,3,2,1,3,2,1,5,4]","action_history":"[0,0,0,0,0,0,0,0,0,0,0,0]","door_history":"[0,0,0,0,0,0,0,0,0,0,0,0]","location_rts":"[860,417,491,845,622,471,413,356,851,437,347,382]","trial_type":"two-door-navigation","trial_index":38,"time_elapsed":566571,"internal_node_id":"0.0-2.0-36.0"},{"group":"hexagon_tri","room_assignment":["green","yellow","blue","red","purple","grey"],"door_color_assignment":["black","white"],"door_generator_assignment":[0,1],"goal":5,"start":4,"action_noise":0.15,"location_history":"[4,0,5]","action_history":"[0,1]","door_history":"[0,1]","location_rts":"[598,266]","trial_type":"two-door-navigation","trial_index":39,"time_elapsed":572939,"internal_node_id":"0.0-2.0-37.0"},{"group":"hexagon_tri","room_assignment":["green","yellow","blue","red","purple","grey"],"door_color_assignment":["black","white"],"door_generator_assignment":[0,1],"goal":1,"start":5,"action_noise":0.15,"location_history":"[5,4,0,5,4,0,1]","action_history":"[0,0,0,0,0,0]","door_history":"[0,0,0,0,0,0]","location_rts":"[633,358,401,393,441,445]","trial_type":"two-door-navigation","trial_index":40,"time_elapsed":585166,"internal_node_id":"0.0-2.0-38.0"},{"group":"hexagon_tri","room_assignment":["green","yellow","blue","red","purple","grey"],"door_color_assignment":["black","white"],"door_generator_assignment":[0,1],"goal":4,"start":1,"action_noise":0.15,"location_history":"[1,3,2,1,3,2,1,3,2,1,3,2,1,3,2,1,3,4]","action_history":"[0,0,0,0,0,0,0,0,0,0,0,0,0,0,0,0,1]","door_history":"[0,0,0,0,0,0,0,0,0,0,0,0,0,0,0,0,1]","location_rts":"[640,521,334,354,365,347,327,320,485,335,373,429,398,372,411,350,267]","trial_type":"two-door-navigation","trial_index":41,"time_elapsed":612339,"internal_node_id":"0.0-2.0-39.0"},{"group":"hexagon_tri","room_assignment":["green","yellow","blue","red","purple","grey"],"door_color_assignment":["black","white"],"door_generator_assignment":[0,1],"goal":3,"start":4,"action_noise":0.15,"location_history":"[4,0,1,3]","action_history":"[0,0,0]","door_history":"[0,0,0]","location_rts":"[766,429,347]","trial_type":"two-door-navigation","trial_index":42,"time_elapsed":620389,"internal_node_id":"0.0-2.0-40.0"},{"group":"hexagon_tri","room_assignment":["green","yellow","blue","red","purple","grey"],"door_color_assignment":["black","white"],"door_generator_assignment":[0,1],"goal":2,"start":3,"action_noise":0.15,"location_history":"[3,2]","action_history":"[0]","door_history":"[0]","location_rts":"[646]","trial_type":"two-door-navigation","trial_index":43,"time_elapsed":625536,"internal_node_id":"0.0-2.0-41.0"},{"group":"hexagon_tri","room_assignment":["green","yellow","blue","red","purple","grey"],"door_color_assignment":["black","white"],"door_generator_assignment":[0,1],"goal":0,"start":2,"action_noise":0.15,"location_history":"[2,1,3,2,1,3,2,1,3,2,1,5,4,0]","action_history":"[0,0,0,0,0,0,0,0,0,0,0,0,0]","door_history":"[0,0,0,0,0,0,0,0,0,0,0,0,0]","location_rts":"[557,401,567,459,355,265,333,305,367,405,351,365,372]","trial_type":"two-door-navigation","trial_index":44,"time_elapsed":647284,"internal_node_id":"0.0-2.0-42.0"},{"group":"hexagon_tri","room_assignment":["green","yellow","blue","red","purple","grey"],"door_color_assignment":["black","white"],"door_generator_assignment":[0,1],"goal":5,"start":0,"action_noise":0.15,"location_history":"[0,1,5]","action_history":"[0,1]","door_history":"[0,1]","location_rts":"[591,271]","trial_type":"two-door-navigation","trial_index":45,"time_elapsed":653658,"internal_node_id":"0.0-2.0-43.0"},{"group":"hexagon_tri","room_assignment":["green","yellow","blue","red","purple","grey"],"door_color_assignment":["black","white"],"door_generator_assignment":[0,1],"goal":0,"start":5,"action_noise":0.15,"location_history":"[5,4,0]","action_history":"[0,0]","door_history":"[0,0]","location_rts":"[642,1274]","trial_type":"two-door-navigation","trial_index":46,"time_elapsed":661087,"internal_node_id":"0.0-2.0-44.0"},{"group":"hexagon_tri","room_assignment":["green","yellow","blue","red","purple","grey"],"door_color_assignment":["black","white"],"door_generator_assignment":[0,1],"goal":2,"start":0,"action_noise":0.15,"location_history":"[0,5,4,2]","action_history":"[0,0,0]","door_history":"[0,0,0]","location_rts":"[1102,256,380]","trial_type":"two-door-navigation","trial_index":47,"time_elapsed":669335,"internal_node_id":"0.0-2.0-45.0"},{"group":"hexagon_tri","room_assignment":["green","yellow","blue","red","purple","grey"],"door_color_assignment":["black","white"],"door_generator_assignment":[0,1],"goal":4,"start":2,"action_noise":0.15,"location_history":"[2,1,3,2,1,3,2,1,3,2,1,3,2,1,5,4]","action_history":"[0,0,0,0,0,0,0,0,0,0,0,0,0,1,0]","door_history":"[0,0,0,0,0,0,0,0,0,0,0,0,0,1,0]","location_rts":"[671,545,474,423,469,395,869,927,405,712,388,397,676,520,335]","trial_type":"two-door-navigation","trial_index":48,"time_elapsed":696091,"internal_node_id":"0.0-2.0-46.0"},{"group":"hexagon_tri","room_assignment":["green","yellow","blue","red","purple","grey"],"door_color_assignment":["black","white"],"door_generator_assignment":[0,1],"goal":1,"start":4,"action_noise":0.15,"location_history":"[4,0,1]","action_history":"[0,0]","door_history":"[0,0]","location_rts":"[564,444]","trial_type":"two-door-navigation","trial_index":49,"time_elapsed":702602,"internal_node_id":"0.0-2.0-47.0"},{"group":"hexagon_tri","room_assignment":["green","yellow","blue","red","purple","grey"],"door_color_assignment":["black","white"],"door_generator_assignment":[0,1],"goal":5,"start":1,"action_noise":0.15,"location_history":"[1,3,4,0,1,5]","action_history":"[0,1,0,1,0]","door_history":"[0,1,0,1,0]","location_rts":"[775,140,354,237,279]","trial_type":"two-door-navigation","trial_index":50,"time_elapsed":712912,"internal_node_id":"0.0-2.0-48.0"},{"group":"hexagon_tri","room_assignment":["green","yellow","blue","red","purple","grey"],"door_color_assignment":["black","white"],"door_generator_assignment":[0,1],"goal":3,"start":5,"action_noise":0.15,"location_history":"[5,4,0,5,4,2,3]","action_history":"[0,0,0,0,0,1]","door_history":"[0,0,0,0,0,1]","location_rts":"[626,405,395,406,560,528]","trial_type":"two-door-navigation","trial_index":51,"time_elapsed":725355,"internal_node_id":"0.0-2.0-49.0"},{"view_history":"[{\"page_index\":0,\"viewing_time\":5423}]","rt":5425,"trial_type":"instructions","trial_index":52,"time_elapsed":731782,"internal_node_id":"0.0-3.0"},{"view_history":"[{\"page_index\":0,\"viewing_time\":2011},{\"page_index\":1,\"viewing_time\":52511}]","rt":54523,"trial_type":"instructions","trial_index":53,"time_elapsed":787306,"internal_node_id":"0.0-4.0"},{"group":"hexagon_tri","fractal_assignment":["../images/ylw_slt.png","../images/gry_blk.png","../images/blu_wht.png","../images/pnk_blu.png","../images/org_blu.png","../images/cyn_red.png"],"mutagen_generator_assignment":[1,0],"goal":3,"start":5,"action_noise":0.15,"location_history":"[5,4,0,5,0,1,3]","action_history":"[0,0,0,1,1,0]","mutagen_history":"[1,1,1,0,0,1]","location_rts":"[2192,759,500,508,763,510]","trial_type":"fractal-mutation","trial_index":54,"time_elapsed":802482,"internal_node_id":"0.0-5.0-0.0"},{"group":"hexagon_tri","fractal_assignment":["../images/ylw_slt.png","../images/gry_blk.png","../images/blu_wht.png","../images/pnk_blu.png","../images/org_blu.png","../images/cyn_red.png"],"mutagen_generator_assignment":[1,0],"goal":1,"start":3,"action_noise":0.15,"location_history":"[3,2,1]","action_history":"[0,1]","mutagen_history":"[1,0]","location_rts":"[1356,745]","trial_type":"fractal-mutation","trial_index":55,"time_elapsed":810121,"internal_node_id":"0.0-5.0-1.0"},{"group":"hexagon_tri","fractal_assignment":["../images/ylw_slt.png","../images/gry_blk.png","../images/blu_wht.png","../images/pnk_blu.png","../images/org_blu.png","../images/cyn_red.png"],"mutagen_generator_assignment":[1,0],"goal":0,"start":1,"action_noise":0.15,"location_history":"[1,3,2,3,4,0]","action_history":"[0,0,1,1,0]","mutagen_history":"[1,1,0,0,1]","location_rts":"[886,788,770,482,564]","trial_type":"fractal-mutation","trial_index":56,"time_elapsed":822229,"internal_node_id":"0.0-5.0-2.0"},{"group":"hexagon_tri","fractal_assignment":["../images/ylw_slt.png","../images/gry_blk.png","../images/blu_wht.png","../images/pnk_blu.png","../images/org_blu.png","../images/cyn_red.png"],"mutagen_generator_assignment":[1,0],"goal":3,"start":0,"action_noise":0.15,"location_history":"[0,1,3]","action_history":"[1,0]","mutagen_history":"[0,1]","location_rts":"[1241,569]","trial_type":"fractal-mutation","trial_index":57,"time_elapsed":829570,"internal_node_id":"0.0-5.0-3.0"},{"group":"hexagon_tri","fractal_assignment":["../images/ylw_slt.png","../images/gry_blk.png","../images/blu_wht.png","../images/pnk_blu.png","../images/org_blu.png","../images/cyn_red.png"],"mutagen_generator_assignment":[1,0],"goal":4,"start":3,"action_noise":0.15,"location_history":"[3,2,3,4]","action_history":"[0,1,1]","mutagen_history":"[1,0,0]","location_rts":"[678,453,365]","trial_type":"fractal-mutation","trial_index":58,"time_elapsed":837589,"internal_node_id":"0.0-5.0-4.0"},{"group":"hexagon_tri","fractal_assignment":["../images/ylw_slt.png","../images/gry_blk.png","../images/blu_wht.png","../images/pnk_blu.png","../images/org_blu.png","../images/cyn_red.png"],"mutagen_generator_assignment":[1,0],"goal":2,"start":4,"action_noise":0.15,"location_history":"[4,0,5,0,5,4,0,5,4,0,1,3,2]","action_history":"[0,0,1,0,0,1,0,0,0,1,0,0]","mutagen_history":"[1,1,0,1,1,0,1,1,1,0,1,1]","location_rts":"[822,471,521,539,994,560,948,533,744,610,1275,675]","trial_type":"fractal-mutation","trial_index":59,"time_elapsed":861939,"internal_node_id":"0.0-5.0-5.0"},{"group":"hexagon_tri","fractal_assignment":["../images/ylw_slt.png","../images/gry_blk.png","../images/blu_wht.png","../images/pnk_blu.png","../images/org_blu.png","../images/cyn_red.png"],"mutagen_generator_assignment":[1,0],"goal":1,"start":2,"action_noise":0.15,"location_history":"[2,1]","action_history":"[0]","mutagen_history":"[1]","location_rts":"[737]","trial_type":"fractal-mutation","trial_index":60,"time_elapsed":867205,"internal_node_id":"0.0-5.0-6.0"},{"group":"hexagon_tri","fractal_assignment":["../images/ylw_slt.png","../images/gry_blk.png","../images/blu_wht.png","../images/pnk_blu.png","../images/org_blu.png","../images/cyn_red.png"],"mutagen_generator_assignment":[1,0],"goal":5,"start":1,"action_noise":0.15,"location_history":"[1,3,4,0,5]","action_history":"[0,1,0,0]","mutagen_history":"[1,0,1,1]","location_rts":"[1078,569,1276,629]","trial_type":"fractal-mutation","trial_index":61,"time_elapsed":878329,"internal_node_id":"0.0-5.0-7.0"},{"group":"hexagon_tri","fractal_assignment":["../images/ylw_slt.png","../images/gry_blk.png","../images/blu_wht.png","../images/pnk_blu.png","../images/org_blu.png","../images/cyn_red.png"],"mutagen_generator_assignment":[1,0],"goal":4,"start":5,"action_noise":0.15,"location_history":"[5,0,1,5,0,1,3,2,1,3,2,3,4]","action_history":"[0,1,1,1,1,0,0,0,0,0,1,1]","mutagen_history":"[1,0,0,0,0,1,1,1,1,1,0,0]","location_rts":"[758,491,368,1232,1030,649,511,601,688,620,567,435]","trial_type":"fractal-mutation","trial_index":62,"time_elapsed":901955,"internal_node_id":"0.0-5.0-8.0"},{"group":"hexagon_tri","fractal_assignment":["../images/ylw_slt.png","../images/gry_blk.png","../images/blu_wht.png","../images/pnk_blu.png","../images/org_blu.png","../images/cyn_red.png"],"mutagen_generator_assignment":[1,0],"goal":2,"start":4,"action_noise":0.15,"location_history":"[4,0,5,4,0,5,4,2]","action_history":"[0,0,0,1,0,0,0]","mutagen_history":"[1,1,1,0,1,1,1]","location_rts":"[685,471,492,610,776,383,510]","trial_type":"fractal-mutation","trial_index":63,"time_elapsed":916527,"internal_node_id":"0.0-5.0-9.0"},{"group":"hexagon_tri","fractal_assignment":["../images/ylw_slt.png","../images/gry_blk.png","../images/blu_wht.png","../images/pnk_blu.png","../images/org_blu.png","../images/cyn_red.png"],"mutagen_generator_assignment":[1,0],"goal":0,"start":2,"action_noise":0.15,"location_history":"[2,3,4,2,1,3,2,1,5,4,0]","action_history":"[1,1,1,0,0,0,0,1,1,0]","mutagen_history":"[0,0,0,1,1,1,1,0,0,1]","location_rts":"[887,501,977,688,390,478,632,870,509,512]","trial_type":"fractal-mutation","trial_index":64,"time_elapsed":936651,"internal_node_id":"0.0-5.0-10.0"},{"group":"hexagon_tri","fractal_assignment":["../images/ylw_slt.png","../images/gry_blk.png","../images/blu_wht.png","../images/pnk_blu.png","../images/org_blu.png","../images/cyn_red.png"],"mutagen_generator_assignment":[1,0],"goal":1,"start":0,"action_noise":0.15,"location_history":"[0,1]","action_history":"[1]","mutagen_history":"[0]","location_rts":"[593]","trial_type":"fractal-mutation","trial_index":65,"time_elapsed":941752,"internal_node_id":"0.0-5.0-11.0"},{"group":"hexagon_tri","fractal_assignment":["../images/ylw_slt.png","../images/gry_blk.png","../images/blu_wht.png","../images/pnk_blu.png","../images/org_blu.png","../images/cyn_red.png"],"mutagen_generator_assignment":[1,0],"goal":3,"start":1,"action_noise":0.15,"location_history":"[1,3]","action_history":"[0]","mutagen_history":"[1]","location_rts":"[583]","trial_type":"fractal-mutation","trial_index":66,"time_elapsed":946853,"internal_node_id":"0.0-5.0-12.0"},{"group":"hexagon_tri","fractal_assignment":["../images/ylw_slt.png","../images/gry_blk.png","../images/blu_wht.png","../images/pnk_blu.png","../images/org_blu.png","../images/cyn_red.png"],"mutagen_generator_assignment":[1,0],"goal":5,"start":3,"action_noise":0.15,"location_history":"[3,4,2,1,5]","action_history":"[1,0,0,0]","mutagen_history":"[0,1,1,1]","location_rts":"[420,434,521,599]","trial_type":"fractal-mutation","trial_index":67,"time_elapsed":956404,"internal_node_id":"0.0-5.0-13.0"},{"group":"hexagon_tri","fractal_assignment":["../images/ylw_slt.png","../images/gry_blk.png","../images/blu_wht.png","../images/pnk_blu.png","../images/org_blu.png","../images/cyn_red.png"],"mutagen_generator_assignment":[1,0],"goal":4,"start":5,"action_noise":0.15,"location_history":"[5,4]","action_history":"[0]","mutagen_history":"[1]","location_rts":"[628]","trial_type":"fractal-mutation","trial_index":68,"time_elapsed":961548,"internal_node_id":"0.0-5.0-14.0"},{"group":"hexagon_tri","fractal_assignment":["../images/ylw_slt.png","../images/gry_blk.png","../images/blu_wht.png","../images/pnk_blu.png","../images/org_blu.png","../images/cyn_red.png"],"mutagen_generator_assignment":[1,0],"goal":0,"start":4,"action_noise":0.15,"location_history":"[4,0]","action_history":"[0]","mutagen_history":"[1]","location_rts":"[556]","trial_type":"fractal-mutation","trial_index":69,"time_elapsed":966618,"internal_node_id":"0.0-5.0-15.0"},{"group":"hexagon_tri","fractal_assignment":["../images/ylw_slt.png","../images/gry_blk.png","../images/blu_wht.png","../images/pnk_blu.png","../images/org_blu.png","../images/cyn_red.png"],"mutagen_generator_assignment":[1,0],"goal":3,"start":0,"action_noise":0.15,"location_history":"[0,5,0,1,3]","action_history":"[0,1,1,0]","mutagen_history":"[1,0,0,1]","location_rts":"[579,463,652,615]","trial_type":"fractal-mutation","trial_index":70,"time_elapsed":976476,"internal_node_id":"0.0-5.0-16.0"},{"group":"hexagon_tri","fractal_assignment":["../images/ylw_slt.png","../images/gry_blk.png","../images/blu_wht.png","../images/pnk_blu.png","../images/org_blu.png","../images/cyn_red.png"],"mutagen_generator_assignment":[1,0],"goal":1,"start":3,"action_noise":0.15,"location_history":"[3,2,3,4,2,1]","action_history":"[0,1,1,1,0]","mutagen_history":"[1,0,0,0,1]","location_rts":"[600,680,377,603,557]","trial_type":"fractal-mutation","trial_index":71,"time_elapsed":987848,"internal_node_id":"0.0-5.0-17.0"},{"group":"hexagon_tri","fractal_assignment":["../images/ylw_slt.png","../images/gry_blk.png","../images/blu_wht.png","../images/pnk_blu.png","../images/org_blu.png","../images/cyn_red.png"],"mutagen_generator_assignment":[1,0],"goal":5,"start":1,"action_noise":0.15,"location_history":"[1,3,2,3,4,2,3,4,2,1,3,2,1,5]","action_history":"[0,0,1,1,0,1,1,1,0,0,0,0,1]","mutagen_history":"[1,1,0,0,1,0,0,0,1,1,1,1,0]","location_rts":"[1012,607,1103,693,1227,963,812,1025,462,683,564,528,465]","trial_type":"fractal-mutation","trial_index":72,"time_elapsed":1014640,"internal_node_id":"0.0-5.0-18.0"},{"group":"hexagon_tri","fractal_assignment":["../images/ylw_slt.png","../images/gry_blk.png","../images/blu_wht.png","../images/pnk_blu.png","../images/org_blu.png","../images/cyn_red.png"],"mutagen_generator_assignment":[1,0],"goal":2,"start":5,"action_noise":0.15,"location_history":"[5,4,2]","action_history":"[0,0]","mutagen_history":"[1,1]","location_rts":"[683,482]","trial_type":"fractal-mutation","trial_index":73,"time_elapsed":1021339,"internal_node_id":"0.0-5.0-19.0"},{"group":"hexagon_tri","fractal_assignment":["../images/ylw_slt.png","../images/gry_blk.png","../images/blu_wht.png","../images/pnk_blu.png","../images/org_blu.png","../images/cyn_red.png"],"mutagen_generator_assignment":[1,0],"goal":4,"start":2,"action_noise":0.15,"location_history":"[2,3,2,3,2,3,2,1,3,4]","action_history":"[1,0,1,0,1,0,0,0,1]","mutagen_history":"[0,1,0,1,0,1,1,1,0]","location_rts":"[775,1949,440,655,937,346,330,428,535]","trial_type":"fractal-mutation","trial_index":74,"time_elapsed":1040336,"internal_node_id":"0.0-5.0-20.0"},{"group":"hexagon_tri","fractal_assignment":["../images/ylw_slt.png","../images/gry_blk.png","../images/blu_wht.png","../images/pnk_blu.png","../images/org_blu.png","../images/cyn_red.png"],"mutagen_generator_assignment":[1,0],"goal":1,"start":4,"action_noise":0.15,"location_history":"[4,2,1]","action_history":"[1,0]","mutagen_history":"[0,1]","location_rts":"[1689,509]","trial_type":"fractal-mutation","trial_index":75,"time_elapsed":1048077,"internal_node_id":"0.0-5.0-21.0"},{"group":"hexagon_tri","fractal_assignment":["../images/ylw_slt.png","../images/gry_blk.png","../images/blu_wht.png","../images/pnk_blu.png","../images/org_blu.png","../images/cyn_red.png"],"mutagen_generator_assignment":[1,0],"goal":3,"start":1,"action_noise":0.15,"location_history":"[1,3]","action_history":"[0]","mutagen_history":"[1]","location_rts":"[856]","trial_type":"fractal-mutation","trial_index":76,"time_elapsed":1053469,"internal_node_id":"0.0-5.0-22.0"},{"group":"hexagon_tri","fractal_assignment":["../images/ylw_slt.png","../images/gry_blk.png","../images/blu_wht.png","../images/pnk_blu.png","../images/org_blu.png","../images/cyn_red.png"],"mutagen_generator_assignment":[1,0],"goal":2,"start":3,"action_noise":0.15,"location_history":"[3,2]","action_history":"[0]","mutagen_history":"[1]","location_rts":"[677]","trial_type":"fractal-mutation","trial_index":77,"time_elapsed":1058683,"internal_node_id":"0.0-5.0-23.0"},{"group":"hexagon_tri","fractal_assignment":["../images/ylw_slt.png","../images/gry_blk.png","../images/blu_wht.png","../images/pnk_blu.png","../images/org_blu.png","../images/cyn_red.png"],"mutagen_generator_assignment":[1,0],"goal":0,"start":2,"action_noise":0.15,"location_history":"[2,3,2,1,3,2,3,2,1,5,4,0]","action_history":"[1,0,0,0,0,1,1,0,0,1,0]","mutagen_history":"[0,1,1,1,1,0,0,1,1,0,1]","location_rts":"[1154,534,414,760,521,485,720,1036,1315,1097,628]","trial_type":"fractal-mutation","trial_index":78,"time_elapsed":1082061,"internal_node_id":"0.0-5.0-24.0"},{"group":"hexagon_tri","fractal_assignment":["../images/ylw_slt.png","../images/gry_blk.png","../images/blu_wht.png","../images/pnk_blu.png","../images/org_blu.png","../images/cyn_red.png"],"mutagen_generator_assignment":[1,0],"goal":5,"start":0,"action_noise":0.15,"location_history":"[0,1,5]","action_history":"[0,0]","mutagen_history":"[1,1]","location_rts":"[553,414]","trial_type":"fractal-mutation","trial_index":79,"time_elapsed":1088564,"internal_node_id":"0.0-5.0-25.0"},{"group":"hexagon_tri","fractal_assignment":["../images/ylw_slt.png","../images/gry_blk.png","../images/blu_wht.png","../images/pnk_blu.png","../images/org_blu.png","../images/cyn_red.png"],"mutagen_generator_assignment":[1,0],"goal":2,"start":5,"action_noise":0.15,"location_history":"[5,4,0,5,4,0,5,0,5,4,2]","action_history":"[1,0,0,0,0,0,0,0,0,1]","mutagen_history":"[0,1,1,1,1,1,1,1,1,0]","location_rts":"[439,669,406,444,517,439,534,596,492,486]","trial_type":"fractal-mutation","trial_index":80,"time_elapsed":1107229,"internal_node_id":"0.0-5.0-26.0"},{"group":"hexagon_tri","fractal_assignment":["../images/ylw_slt.png","../images/gry_blk.png","../images/blu_wht.png","../images/pnk_blu.png","../images/org_blu.png","../images/cyn_red.png"],"mutagen_generator_assignment":[1,0],"goal":3,"start":2,"action_noise":0.15,"location_history":"[2,3]","action_history":"[0]","mutagen_history":"[1]","location_rts":"[310]","trial_type":"fractal-mutation","trial_index":81,"time_elapsed":1112059,"internal_node_id":"0.0-5.0-27.0"},{"group":"hexagon_tri","fractal_assignment":["../images/ylw_slt.png","../images/gry_blk.png","../images/blu_wht.png","../images/pnk_blu.png","../images/org_blu.png","../images/cyn_red.png"],"mutagen_generator_assignment":[1,0],"goal":0,"start":3,"action_noise":0.15,"location_history":"[3,2,3,4,0]","action_history":"[0,1,0,0]","mutagen_history":"[1,0,1,1]","location_rts":"[617,593,414,358]","trial_type":"fractal-mutation","trial_index":82,"time_elapsed":1121607,"internal_node_id":"0.0-5.0-28.0"},{"group":"hexagon_tri","fractal_assignment":["../images/ylw_slt.png","../images/gry_blk.png","../images/blu_wht.png","../images/pnk_blu.png","../images/org_blu.png","../images/cyn_red.png"],"mutagen_generator_assignment":[1,0],"goal":1,"start":0,"action_noise":0.15,"location_history":"[0,5,4,0,1]","action_history":"[0,0,1,1]","mutagen_history":"[1,1,0,0]","location_rts":"[563,615,592,425]","trial_type":"fractal-mutation","trial_index":83,"time_elapsed":1131369,"internal_node_id":"0.0-5.0-29.0"},{"group":"hexagon_tri","fractal_assignment":["../images/ylw_slt.png","../images/gry_blk.png","../images/blu_wht.png","../images/pnk_blu.png","../images/org_blu.png","../images/cyn_red.png"],"mutagen_generator_assignment":[1,0],"goal":4,"start":1,"action_noise":0.15,"location_history":"[1,3,4]","action_history":"[0,0]","mutagen_history":"[1,1]","location_rts":"[621,390]","trial_type":"fractal-mutation","trial_index":84,"time_elapsed":1137912,"internal_node_id":"0.0-5.0-30.0"},{"group":"hexagon_tri","fractal_assignment":["../images/ylw_slt.png","../images/gry_blk.png","../images/blu_wht.png","../images/pnk_blu.png","../images/org_blu.png","../images/cyn_red.png"],"mutagen_generator_assignment":[1,0],"goal":5,"start":4,"action_noise":0.15,"location_history":"[4,0,5]","action_history":"[0,0]","mutagen_history":"[1,1]","location_rts":"[505,402]","trial_type":"fractal-mutation","trial_index":85,"time_elapsed":1144361,"internal_node_id":"0.0-5.0-31.0"},{"group":"hexagon_tri","fractal_assignment":["../images/ylw_slt.png","../images/gry_blk.png","../images/blu_wht.png","../images/pnk_blu.png","../images/org_blu.png","../images/cyn_red.png"],"mutagen_generator_assignment":[1,0],"goal":0,"start":5,"action_noise":0.15,"location_history":"[5,0]","action_history":"[1]","mutagen_history":"[0]","location_rts":"[577]","trial_type":"fractal-mutation","trial_index":86,"time_elapsed":1149446,"internal_node_id":"0.0-5.0-32.0"},{"group":"hexagon_tri","fractal_assignment":["../images/ylw_slt.png","../images/gry_blk.png","../images/blu_wht.png","../images/pnk_blu.png","../images/org_blu.png","../images/cyn_red.png"],"mutagen_generator_assignment":[1,0],"goal":3,"start":0,"action_noise":0.15,"location_history":"[0,5,4,0,1,5,0,1,5,0,5,4,0,1,3]","action_history":"[0,0,0,1,1,1,1,1,0,0,0,0,0,0]","mutagen_history":"[1,1,1,0,0,0,0,0,1,1,1,1,1,1]","location_rts":"[630,638,1062,786,395,414,460,622,561,460,511,511,521,511]","trial_type":"fractal-mutation","trial_index":87,"time_elapsed":1175251,"internal_node_id":"0.0-5.0-33.0"},{"group":"hexagon_tri","fractal_assignment":["../images/ylw_slt.png","../images/gry_blk.png","../images/blu_wht.png","../images/pnk_blu.png","../images/org_blu.png","../images/cyn_red.png"],"mutagen_generator_assignment":[1,0],"goal":1,"start":3,"action_noise":0.15,"location_history":"[3,2,1]","action_history":"[0,0]","mutagen_history":"[1,1]","location_rts":"[595,442]","trial_type":"fractal-mutation","trial_index":88,"time_elapsed":1181833,"internal_node_id":"0.0-5.0-34.0"},{"group":"hexagon_tri","fractal_assignment":["../images/ylw_slt.png","../images/gry_blk.png","../images/blu_wht.png","../images/pnk_blu.png","../images/org_blu.png","../images/cyn_red.png"],"mutagen_generator_assignment":[1,0],"goal":2,"start":1,"action_noise":0.15,"location_history":"[1,5,0,1,3,2]","action_history":"[1,1,0,0,0]","mutagen_history":"[0,0,1,1,1]","location_rts":"[560,803,424,985,485]","trial_type":"fractal-mutation","trial_index":89,"time_elapsed":1193663,"internal_node_id":"0.0-5.0-35.0"},{"group":"hexagon_tri","fractal_assignment":["../images/ylw_slt.png","../images/gry_blk.png","../images/blu_wht.png","../images/pnk_blu.png","../images/org_blu.png","../images/cyn_red.png"],"mutagen_generator_assignment":[1,0],"goal":4,"start":2,"action_noise":0.15,"location_history":"[2,3,2,1,3,2,1,5,4]","action_history":"[1,0,0,0,0,0,1,0]","mutagen_history":"[0,1,1,1,1,1,0,1]","location_rts":"[394,533,360,477,410,508,414,842]","trial_type":"fractal-mutation","trial_index":90,"time_elapsed":1209213,"internal_node_id":"0.0-5.0-36.0"},{"group":"hexagon_tri","fractal_assignment":["../images/ylw_slt.png","../images/gry_blk.png","../images/blu_wht.png","../images/pnk_blu.png","../images/org_blu.png","../images/cyn_red.png"],"mutagen_generator_assignment":[1,0],"goal":5,"start":4,"action_noise":0.15,"location_history":"[4,0,1,3,4,2,1,3,4,0,5]","action_history":"[0,1,0,0,1,0,0,0,0,0]","mutagen_history":"[1,0,1,1,0,1,1,1,1,1]","location_rts":"[335,425,451,864,600,604,395,513,876,496]","trial_type":"fractal-mutation","trial_index":91,"time_elapsed":1228446,"internal_node_id":"0.0-5.0-37.0"},{"group":"hexagon_tri","fractal_assignment":["../images/ylw_slt.png","../images/gry_blk.png","../images/blu_wht.png","../images/pnk_blu.png","../images/org_blu.png","../images/cyn_red.png"],"mutagen_generator_assignment":[1,0],"goal":1,"start":5,"action_noise":0.15,"location_history":"[5,4,2,3,2,1]","action_history":"[0,0,1,0,0]","mutagen_history":"[1,1,0,1,1]","location_rts":"[602,494,655,449,369]","trial_type":"fractal-mutation","trial_index":92,"time_elapsed":1239607,"internal_node_id":"0.0-5.0-38.0"},{"group":"hexagon_tri","fractal_assignment":["../images/ylw_slt.png","../images/gry_blk.png","../images/blu_wht.png","../images/pnk_blu.png","../images/org_blu.png","../images/cyn_red.png"],"mutagen_generator_assignment":[1,0],"goal":4,"start":1,"action_noise":0.15,"location_history":"[1,3,2,1,3,4]","action_history":"[0,0,0,0,1]","mutagen_history":"[1,1,1,1,0]","location_rts":"[539,457,546,466,861]","trial_type":"fractal-mutation","trial_index":93,"time_elapsed":1251052,"internal_node_id":"0.0-5.0-39.0"},{"group":"hexagon_tri","fractal_assignment":["../images/ylw_slt.png","../images/gry_blk.png","../images/blu_wht.png","../images/pnk_blu.png","../images/org_blu.png","../images/cyn_red.png"],"mutagen_generator_assignment":[1,0],"goal":3,"start":4,"action_noise":0.15,"location_history":"[4,0,5,0,5,0,5,4,0,5,4,0,1,5,0,5,0,1,3]","action_history":"[0,0,0,0,0,0,0,0,1,0,1,1,1,1,0,0,1,0]","mutagen_history":"[1,1,1,1,1,1,1,1,0,1,0,0,0,0,1,1,0,1]","location_rts":"[281,434,449,615,719,476,510,478,584,508,411,491,490,584,514,689,1257,803]","trial_type":"fractal-mutation","trial_index":94,"time_elapsed":1283092,"internal_node_id":"0.0-5.0-40.0"},{"group":"hexagon_tri","fractal_assignment":["../images/ylw_slt.png","../images/gry_blk.png","../images/blu_wht.png","../images/pnk_blu.png","../images/org_blu.png","../images/cyn_red.png"],"mutagen_generator_assignment":[1,0],"goal":2,"start":3,"action_noise":0.15,"location_history":"[3,4,2]","action_history":"[1,0]","mutagen_history":"[0,1]","location_rts":"[767,840]","trial_type":"fractal-mutation","trial_index":95,"time_elapsed":1290218,"internal_node_id":"0.0-5.0-41.0"},{"group":"hexagon_tri","fractal_assignment":["../images/ylw_slt.png","../images/gry_blk.png","../images/blu_wht.png","../images/pnk_blu.png","../images/org_blu.png","../images/cyn_red.png"],"mutagen_generator_assignment":[1,0],"goal":0,"start":2,"action_noise":0.15,"location_history":"[2,1,3,2,1,5,4,0]","action_history":"[0,0,0,0,1,0,0]","mutagen_history":"[1,1,1,1,0,1,1]","location_rts":"[568,725,495,956,423,469,424]","trial_type":"fractal-mutation","trial_index":96,"time_elapsed":1304871,"internal_node_id":"0.0-5.0-42.0"},{"group":"hexagon_tri","fractal_assignment":["../images/ylw_slt.png","../images/gry_blk.png","../images/blu_wht.png","../images/pnk_blu.png","../images/org_blu.png","../images/cyn_red.png"],"mutagen_generator_assignment":[1,0],"goal":5,"start":0,"action_noise":0.15,"location_history":"[0,1,5]","action_history":"[0,1]","mutagen_history":"[1,0]","location_rts":"[284,419]","trial_type":"fractal-mutation","trial_index":97,"time_elapsed":1311111,"internal_node_id":"0.0-5.0-43.0"},{"group":"hexagon_tri","fractal_assignment":["../images/ylw_slt.png","../images/gry_blk.png","../images/blu_wht.png","../images/pnk_blu.png","../images/org_blu.png","../images/cyn_red.png"],"mutagen_generator_assignment":[1,0],"goal":0,"start":5,"action_noise":0.15,"location_history":"[5,4,0]","action_history":"[0,0]","mutagen_history":"[1,1]","location_rts":"[342,458]","trial_type":"fractal-mutation","trial_index":98,"time_elapsed":1317441,"internal_node_id":"0.0-5.0-44.0"},{"group":"hexagon_tri","fractal_assignment":["../images/ylw_slt.png","../images/gry_blk.png","../images/blu_wht.png","../images/pnk_blu.png","../images/org_blu.png","../images/cyn_red.png"],"mutagen_generator_assignment":[1,0],"goal":2,"start":0,"action_noise":0.15,"location_history":"[0,5,4,0,5,0,1,3,4,0,5,4,2]","action_history":"[0,0,0,0,1,0,0,1,0,0,0,0]","mutagen_history":"[1,1,1,1,0,1,1,0,1,1,1,1]","location_rts":"[1112,852,395,542,803,577,856,515,427,462,440,455]","trial_type":"fractal-mutation","trial_index":99,"time_elapsed":1340583,"internal_node_id":"0.0-5.0-45.0"},{"group":"hexagon_tri","fractal_assignment":["../images/ylw_slt.png","../images/gry_blk.png","../images/blu_wht.png","../images/pnk_blu.png","../images/org_blu.png","../images/cyn_red.png"],"mutagen_generator_assignment":[1,0],"goal":4,"start":2,"action_noise":0.15,"location_history":"[2,1,3,2,1,3,2,3,2,1,3,4]","action_history":"[1,0,0,0,0,0,1,0,0,0,1]","mutagen_history":"[0,1,1,1,1,1,0,1,1,1,0]","location_rts":"[692,466,536,415,460,635,452,530,702,744,726]","trial_type":"fractal-mutation","trial_index":100,"time_elapsed":1361650,"internal_node_id":"0.0-5.0-46.0"},{"group":"hexagon_tri","fractal_assignment":["../images/ylw_slt.png","../images/gry_blk.png","../images/blu_wht.png","../images/pnk_blu.png","../images/org_blu.png","../images/cyn_red.png"],"mutagen_generator_assignment":[1,0],"goal":1,"start":4,"action_noise":0.15,"location_history":"[4,0,5,4,0,1]","action_history":"[0,0,0,0,1]","mutagen_history":"[1,1,1,1,0]","location_rts":"[693,459,944,487,441]","trial_type":"fractal-mutation","trial_index":101,"time_elapsed":1373254,"internal_node_id":"0.0-5.0-47.0"},{"group":"hexagon_tri","fractal_assignment":["../images/ylw_slt.png","../images/gry_blk.png","../images/blu_wht.png","../images/pnk_blu.png","../images/org_blu.png","../images/cyn_red.png"],"mutagen_generator_assignment":[1,0],"goal":5,"start":1,"action_noise":0.15,"location_history":"[1,3,2,1,3,2,1,3,4,0,5]","action_history":"[0,0,1,0,0,0,0,1,0,0]","mutagen_history":"[1,1,0,1,1,1,1,0,1,1]","location_rts":"[58,631,648,419,405,398,446,618,440,613]","trial_type":"fractal-mutation","trial_index":102,"time_elapsed":1391556,"internal_node_id":"0.0-5.0-48.0"},{"group":"hexagon_tri","fractal_assignment":["../images/ylw_slt.png","../images/gry_blk.png","../images/blu_wht.png","../images/pnk_blu.png","../images/org_blu.png","../images/cyn_red.png"],"mutagen_generator_assignment":[1,0],"goal":3,"start":5,"action_noise":0.15,"location_history":"[5,4,0,5,4,0,5,0,5,4,0,1,5,4,0,5,4,2,1,3]","action_history":"[0,0,0,0,0,0,1,0,0,0,0,1,0,0,0,0,0,0,0]","mutagen_history":"[1,1,1,1,1,1,0,1,1,1,1,0,1,1,1,1,1,1,1]","location_rts":"[671,386,625,603,834,630,435,482,411,543,465,481,538,523,485,484,531,637,540]","trial_type":"fractal-mutation","trial_index":103,"time_elapsed":1424779,"internal_node_id":"0.0-5.0-49.0"},{"view_history":"[{\"page_index\":0,\"viewing_time\":5776}]","rt":5776,"trial_type":"instructions","trial_index":104,"time_elapsed":1431555,"internal_node_id":"0.0-6.0"},{"rt":36555,"responses":"{\"Q0\":\"Yes, once again I'm a little frustrated as I feel I could be learning the patterns more readily.  That's certainly not a complaint as I appreciate the HIT!\"}","trial_type":"survey-text","trial_index":105,"time_elapsed":1469117,"internal_node_id":"0.0-7.0"}]