[{"view_history":"[{\"page_index\":0,\"viewing_time\":2806},{\"page_index\":1,\"viewing_time\":2984}]","rt":5790,"trial_type":"instructions","trial_index":0,"time_elapsed":5792,"internal_node_id":"0.0-0.0"},{"view_history":"[{\"page_index\":0,\"viewing_time\":1876},{\"page_index\":1,\"viewing_time\":37672}]","rt":39550,"trial_type":"instructions","trial_index":1,"time_elapsed":46350,"internal_node_id":"0.0-1.0"},{"group":"hexagon_bi","room_assignment":["purple","green","grey","yellow","blue","red"],"door_color_assignment":["black","white"],"door_generator_assignment":[1,0],"goal":3,"start":5,"action_noise":0.15,"location_history":"[5,0,5,0,1,0,5,4,5,0,1,2,3]","action_history":"[0,0,0,1,1,1,0,0,0,0,1,0]","door_history":"[1,1,1,0,0,0,1,1,1,1,0,1]","location_rts":"[1540,800,1056,520,1856,1286,1778,870,516,638,1778,1634]","trial_type":"two-door-navigation","trial_index":2,"time_elapsed":76616,"internal_node_id":"0.0-2.0-0.0"},{"group":"hexagon_bi","room_assignment":["purple","green","grey","yellow","blue","red"],"door_color_assignment":["black","white"],"door_generator_assignment":[1,0],"goal":1,"start":3,"action_noise":0.15,"location_history":"[3,4,3,2,1]","action_history":"[0,0,1,0]","door_history":"[1,1,0,1]","location_rts":"[1282,2816,1604,3338]","trial_type":"two-door-navigation","trial_index":3,"time_elapsed":93308,"internal_node_id":"0.0-2.0-1.0"},{"group":"hexagon_bi","room_assignment":["purple","green","grey","yellow","blue","red"],"door_color_assignment":["black","white"],"door_generator_assignment":[1,0],"goal":0,"start":1,"action_noise":0.15,"location_history":"[1,0]","action_history":"[1]","door_history":"[0]","location_rts":"[1904]","trial_type":"two-door-navigation","trial_index":4,"time_elapsed":99794,"internal_node_id":"0.0-2.0-2.0"},{"group":"hexagon_bi","room_assignment":["purple","green","grey","yellow","blue","red"],"door_color_assignment":["black","white"],"door_generator_assignment":[1,0],"goal":3,"start":0,"action_noise":0.15,"location_history":"[0,1,2,1,2,3]","action_history":"[1,0,0,0,1]","door_history":"[0,1,1,1,0]","location_rts":"[1674,570,774,740,740]","trial_type":"two-door-navigation","trial_index":5,"time_elapsed":112998,"internal_node_id":"0.0-2.0-3.0"},{"group":"hexagon_bi","room_assignment":["purple","green","grey","yellow","blue","red"],"door_color_assignment":["black","white"],"door_generator_assignment":[1,0],"goal":4,"start":3,"action_noise":0.15,"location_history":"[3,2,1,0,1,0,1,2,3,4]","action_history":"[0,0,1,0,1,1,1,1,0]","door_history":"[1,1,0,1,0,0,0,0,1]","location_rts":"[3068,1084,1234,1202,1052,418,920,808,832]","trial_type":"two-door-navigation","trial_index":6,"time_elapsed":136478,"internal_node_id":"0.0-2.0-4.0"},{"group":"hexagon_bi","room_assignment":["purple","green","grey","yellow","blue","red"],"door_color_assignment":["black","white"],"door_generator_assignment":[1,0],"goal":2,"start":4,"action_noise":0.15,"location_history":"[4,3,4,3,4,5,0,1,0,5,4,3,2]","action_history":"[0,0,0,1,1,0,1,0,0,0,0,1]","door_history":"[1,1,1,0,0,1,0,1,1,1,1,0]","location_rts":"[1682,1208,948,574,1008,292,596,744,1232,1196,1526,390]","trial_type":"two-door-navigation","trial_index":7,"time_elapsed":163832,"internal_node_id":"0.0-2.0-5.0"},{"group":"hexagon_bi","room_assignment":["purple","green","grey","yellow","blue","red"],"door_color_assignment":["black","white"],"door_generator_assignment":[1,0],"goal":1,"start":2,"action_noise":0.15,"location_history":"[2,3,4,3,2,3,2,1]","action_history":"[0,0,0,1,1,1,0]","door_history":"[1,1,1,0,0,0,1]","location_rts":"[1524,722,1738,1012,692,752,398]","trial_type":"two-door-navigation","trial_index":8,"time_elapsed":181422,"internal_node_id":"0.0-2.0-6.0"},{"group":"hexagon_bi","room_assignment":["purple","green","grey","yellow","blue","red"],"door_color_assignment":["black","white"],"door_generator_assignment":[1,0],"goal":5,"start":1,"action_noise":0.15,"location_history":"[1,2,3,2,3,4,5]","action_history":"[1,1,1,1,0,1]","door_history":"[0,0,0,0,1,0]","location_rts":"[1340,1746,978,850,292,978]","trial_type":"two-door-navigation","trial_index":9,"time_elapsed":197324,"internal_node_id":"0.0-2.0-7.0"},{"group":"hexagon_bi","room_assignment":["purple","green","grey","yellow","blue","red"],"door_color_assignment":["black","white"],"door_generator_assignment":[1,0],"goal":4,"start":5,"action_noise":0.15,"location_history":"[5,4]","action_history":"[1]","door_history":"[0]","location_rts":"[1158]","trial_type":"two-door-navigation","trial_index":10,"time_elapsed":203036,"internal_node_id":"0.0-2.0-8.0"},{"group":"hexagon_bi","room_assignment":["purple","green","grey","yellow","blue","red"],"door_color_assignment":["black","white"],"door_generator_assignment":[1,0],"goal":2,"start":4,"action_noise":0.15,"location_history":"[4,3,4,3,2]","action_history":"[0,0,0,1]","door_history":"[1,1,1,0]","location_rts":"[1878,1136,692,1976]","trial_type":"two-door-navigation","trial_index":11,"time_elapsed":216390,"internal_node_id":"0.0-2.0-9.0"},{"group":"hexagon_bi","room_assignment":["purple","green","grey","yellow","blue","red"],"door_color_assignment":["black","white"],"door_generator_assignment":[1,0],"goal":0,"start":2,"action_noise":0.15,"location_history":"[2,3,4,3,2,3,4,3,2,1,2,3,4,5,0]","action_history":"[1,0,0,1,1,0,0,1,0,0,0,0,1,0]","door_history":"[0,1,1,0,0,1,1,0,1,1,1,1,0,1]","location_rts":"[3084,1004,1188,778,1226,1052,992,552,2566,804,1006,938,916,1692]","trial_type":"two-door-navigation","trial_index":12,"time_elapsed":252216,"internal_node_id":"0.0-2.0-10.0"},{"group":"hexagon_bi","room_assignment":["purple","green","grey","yellow","blue","red"],"door_color_assignment":["black","white"],"door_generator_assignment":[1,0],"goal":1,"start":0,"action_noise":0.15,"location_history":"[0,5,0,1]","action_history":"[0,0,1]","door_history":"[1,1,0]","location_rts":"[1730,1100,966]","trial_type":"two-door-navigation","trial_index":13,"time_elapsed":262598,"internal_node_id":"0.0-2.0-11.0"},{"group":"hexagon_bi","room_assignment":["purple","green","grey","yellow","blue","red"],"door_color_assignment":["black","white"],"door_generator_assignment":[1,0],"goal":3,"start":1,"action_noise":0.15,"location_history":"[1,2,3]","action_history":"[0,1]","door_history":"[1,0]","location_rts":"[1498,1282]","trial_type":"two-door-navigation","trial_index":14,"time_elapsed":270938,"internal_node_id":"0.0-2.0-12.0"},{"group":"hexagon_bi","room_assignment":["purple","green","grey","yellow","blue","red"],"door_color_assignment":["black","white"],"door_generator_assignment":[1,0],"goal":5,"start":3,"action_noise":0.15,"location_history":"[3,4,5]","action_history":"[0,1]","door_history":"[1,0]","location_rts":"[4096,764]","trial_type":"two-door-navigation","trial_index":15,"time_elapsed":281376,"internal_node_id":"0.0-2.0-13.0"},{"group":"hexagon_bi","room_assignment":["purple","green","grey","yellow","blue","red"],"door_color_assignment":["black","white"],"door_generator_assignment":[1,0],"goal":4,"start":5,"action_noise":0.15,"location_history":"[5,4]","action_history":"[1]","door_history":"[0]","location_rts":"[1328]","trial_type":"two-door-navigation","trial_index":16,"time_elapsed":287246,"internal_node_id":"0.0-2.0-14.0"},{"group":"hexagon_bi","room_assignment":["purple","green","grey","yellow","blue","red"],"door_color_assignment":["black","white"],"door_generator_assignment":[1,0],"goal":0,"start":4,"action_noise":0.15,"location_history":"[4,3,4,5,0]","action_history":"[0,1,1,0]","door_history":"[1,0,0,1]","location_rts":"[1652,1060,932,300]","trial_type":"two-door-navigation","trial_index":17,"time_elapsed":298822,"internal_node_id":"0.0-2.0-15.0"},{"group":"hexagon_bi","room_assignment":["purple","green","grey","yellow","blue","red"],"door_color_assignment":["black","white"],"door_generator_assignment":[1,0],"goal":3,"start":0,"action_noise":0.15,"location_history":"[0,5,4,5,4,5,4,5,4,3]","action_history":"[0,0,1,0,1,1,0,1,0]","door_history":"[1,1,0,1,0,0,1,0,1]","location_rts":"[1860,1500,736,224,702,368,346,484,404]","trial_type":"two-door-navigation","trial_index":18,"time_elapsed":318260,"internal_node_id":"0.0-2.0-16.0"},{"group":"hexagon_bi","room_assignment":["purple","green","grey","yellow","blue","red"],"door_color_assignment":["black","white"],"door_generator_assignment":[1,0],"goal":1,"start":3,"action_noise":0.15,"location_history":"[3,2,3,2,1]","action_history":"[1,0,1,0]","door_history":"[0,1,0,1]","location_rts":"[2328,1282,1686,312]","trial_type":"two-door-navigation","trial_index":19,"time_elapsed":331508,"internal_node_id":"0.0-2.0-17.0"},{"group":"hexagon_bi","room_assignment":["purple","green","grey","yellow","blue","red"],"door_color_assignment":["black","white"],"door_generator_assignment":[1,0],"goal":5,"start":1,"action_noise":0.15,"location_history":"[1,0,1,2,3,2,3,4,5]","action_history":"[1,1,0,1,1,1,0,1]","door_history":"[0,0,1,0,0,0,1,0]","location_rts":"[1696,2196,980,342,878,700,500,1214]","trial_type":"two-door-navigation","trial_index":20,"time_elapsed":351778,"internal_node_id":"0.0-2.0-18.0"},{"group":"hexagon_bi","room_assignment":["purple","green","grey","yellow","blue","red"],"door_color_assignment":["black","white"],"door_generator_assignment":[1,0],"goal":2,"start":5,"action_noise":0.15,"location_history":"[5,0,1,0,5,4,3,4,3,2]","action_history":"[0,1,0,0,1,0,0,0,1]","door_history":"[1,0,1,1,0,1,1,1,0]","location_rts":"[1524,2122,2254,832,1060,1440,2616,972,534]","trial_type":"two-door-navigation","trial_index":21,"time_elapsed":377870,"internal_node_id":"0.0-2.0-19.0"},{"group":"hexagon_bi","room_assignment":["purple","green","grey","yellow","blue","red"],"door_color_assignment":["black","white"],"door_generator_assignment":[1,0],"goal":4,"start":2,"action_noise":0.15,"location_history":"[2,3,4]","action_history":"[1,0]","door_history":"[0,1]","location_rts":"[1534,736]","trial_type":"two-door-navigation","trial_index":22,"time_elapsed":385748,"internal_node_id":"0.0-2.0-20.0"},{"group":"hexagon_bi","room_assignment":["purple","green","grey","yellow","blue","red"],"door_color_assignment":["black","white"],"door_generator_assignment":[1,0],"goal":1,"start":4,"action_noise":0.15,"location_history":"[4,5,0,5,0,1]","action_history":"[1,0,0,0,1]","door_history":"[0,1,1,1,0]","location_rts":"[1484,494,1560,668,532]","trial_type":"two-door-navigation","trial_index":23,"time_elapsed":399156,"internal_node_id":"0.0-2.0-21.0"},{"group":"hexagon_bi","room_assignment":["purple","green","grey","yellow","blue","red"],"door_color_assignment":["black","white"],"door_generator_assignment":[1,0],"goal":3,"start":1,"action_noise":0.15,"location_history":"[1,0,5,0,5,0,1,2,1,0,5,0,5,4,3]","action_history":"[0,1,0,0,0,1,0,0,1,1,0,0,1,0]","door_history":"[1,0,1,1,1,0,1,1,0,0,1,1,0,1]","location_rts":"[1488,828,986,654,1432,366,1608,2244,826,1082,948,2898,2744,1582]","trial_type":"two-door-navigation","trial_index":24,"time_elapsed":436706,"internal_node_id":"0.0-2.0-22.0"},{"group":"hexagon_bi","room_assignment":["purple","green","grey","yellow","blue","red"],"door_color_assignment":["black","white"],"door_generator_assignment":[1,0],"goal":2,"start":3,"action_noise":0.15,"location_history":"[3,2]","action_history":"[1]","door_history":"[0]","location_rts":"[2908]","trial_type":"two-door-navigation","trial_index":25,"time_elapsed":444158,"internal_node_id":"0.0-2.0-23.0"},{"group":"hexagon_bi","room_assignment":["purple","green","grey","yellow","blue","red"],"door_color_assignment":["black","white"],"door_generator_assignment":[1,0],"goal":0,"start":2,"action_noise":0.15,"location_history":"[2,3,4,3,2,3,2,1,2,3,4,5,4,3,4,3,2,3,4,5,0]","action_history":"[1,0,0,1,1,1,0,1,1,0,1,1,0,0,0,1,1,0,0,0]","door_history":"[0,1,1,0,0,0,1,0,0,1,0,0,1,1,1,0,0,1,1,1]","location_rts":"[3030,690,1968,1266,1532,2758,516,430,1188,1520,956,476,696,1244,956,818,5084,3208,1804,920]","trial_type":"two-door-navigation","trial_index":26,"time_elapsed":499516,"internal_node_id":"0.0-2.0-24.0"},{"group":"hexagon_bi","room_assignment":["purple","green","grey","yellow","blue","red"],"door_color_assignment":["black","white"],"door_generator_assignment":[1,0],"goal":5,"start":0,"action_noise":0.15,"location_history":"[0,1,2,3,4,3,2,1,2,3,2,3,4,5]","action_history":"[0,0,1,1,1,1,1,0,1,1,1,0,1]","door_history":"[1,1,0,0,0,0,0,1,0,0,0,1,0]","location_rts":"[22724,1066,532,474,646,700,1488,1178,336,640,692,208,608]","trial_type":"two-door-navigation","trial_index":27,"time_elapsed":548958,"internal_node_id":"0.0-2.0-25.0"},{"group":"hexagon_bi","room_assignment":["purple","green","grey","yellow","blue","red"],"door_color_assignment":["black","white"],"door_generator_assignment":[1,0],"goal":2,"start":5,"action_noise":0.15,"location_history":"[5,4,3,4,3,4,3,2]","action_history":"[1,0,0,0,1,0,1]","door_history":"[0,1,1,1,0,1,0]","location_rts":"[2546,4016,1530,1278,982,1904,3078]","trial_type":"two-door-navigation","trial_index":28,"time_elapsed":575718,"internal_node_id":"0.0-2.0-26.0"},{"group":"hexagon_bi","room_assignment":["purple","green","grey","yellow","blue","red"],"door_color_assignment":["black","white"],"door_generator_assignment":[1,0],"goal":3,"start":2,"action_noise":0.15,"location_history":"[2,3]","action_history":"[1]","door_history":"[0]","location_rts":"[3396]","trial_type":"two-door-navigation","trial_index":29,"time_elapsed":583758,"internal_node_id":"0.0-2.0-27.0"},{"group":"hexagon_bi","room_assignment":["purple","green","grey","yellow","blue","red"],"door_color_assignment":["black","white"],"door_generator_assignment":[1,0],"goal":0,"start":3,"action_noise":0.15,"location_history":"[3,4,3,4,5,0]","action_history":"[0,0,1,1,0]","door_history":"[1,1,0,0,1]","location_rts":"[1456,1242,662,802,332]","trial_type":"two-door-navigation","trial_index":30,"time_elapsed":597382,"internal_node_id":"0.0-2.0-28.0"},{"group":"hexagon_bi","room_assignment":["purple","green","grey","yellow","blue","red"],"door_color_assignment":["black","white"],"door_generator_assignment":[1,0],"goal":1,"start":0,"action_noise":0.15,"location_history":"[0,1]","action_history":"[1]","door_history":"[0]","location_rts":"[1226]","trial_type":"two-door-navigation","trial_index":31,"time_elapsed":603252,"internal_node_id":"0.0-2.0-29.0"},{"group":"hexagon_bi","room_assignment":["purple","green","grey","yellow","blue","red"],"door_color_assignment":["black","white"],"door_generator_assignment":[1,0],"goal":4,"start":1,"action_noise":0.15,"location_history":"[1,0,5,4]","action_history":"[1,0,1]","door_history":"[0,1,0]","location_rts":"[2502,416,1270]","trial_type":"two-door-navigation","trial_index":32,"time_elapsed":614358,"internal_node_id":"0.0-2.0-30.0"},{"group":"hexagon_bi","room_assignment":["purple","green","grey","yellow","blue","red"],"door_color_assignment":["black","white"],"door_generator_assignment":[1,0],"goal":5,"start":4,"action_noise":0.15,"location_history":"[4,5]","action_history":"[1]","door_history":"[0]","location_rts":"[1782]","trial_type":"two-door-navigation","trial_index":33,"time_elapsed":620784,"internal_node_id":"0.0-2.0-31.0"},{"group":"hexagon_bi","room_assignment":["purple","green","grey","yellow","blue","red"],"door_color_assignment":["black","white"],"door_generator_assignment":[1,0],"goal":0,"start":5,"action_noise":0.15,"location_history":"[5,0]","action_history":"[0]","door_history":"[1]","location_rts":"[3006]","trial_type":"two-door-navigation","trial_index":34,"time_elapsed":628438,"internal_node_id":"0.0-2.0-32.0"},{"group":"hexagon_bi","room_assignment":["purple","green","grey","yellow","blue","red"],"door_color_assignment":["black","white"],"door_generator_assignment":[1,0],"goal":3,"start":0,"action_noise":0.15,"location_history":"[0,1,0,1,2,1,0,5,0,5,0,1,2,1,2,3]","action_history":"[0,1,1,1,0,1,1,0,0,0,1,0,0,1,1]","door_history":"[1,0,0,0,1,0,0,1,1,1,0,1,1,0,0]","location_rts":"[1592,2394,1178,1190,1314,446,650,914,772,1292,1336,1344,840,736,1016]","trial_type":"two-door-navigation","trial_index":35,"time_elapsed":665894,"internal_node_id":"0.0-2.0-33.0"},{"group":"hexagon_bi","room_assignment":["purple","green","grey","yellow","blue","red"],"door_color_assignment":["black","white"],"door_generator_assignment":[1,0],"goal":1,"start":3,"action_noise":0.15,"location_history":"[3,4,5,0,1]","action_history":"[0,0,0,1]","door_history":"[1,1,1,0]","location_rts":"[2388,1900,1008,1420]","trial_type":"two-door-navigation","trial_index":36,"time_elapsed":680610,"internal_node_id":"0.0-2.0-34.0"},{"group":"hexagon_bi","room_assignment":["purple","green","grey","yellow","blue","red"],"door_color_assignment":["black","white"],"door_generator_assignment":[1,0],"goal":2,"start":1,"action_noise":0.15,"location_history":"[1,2]","action_history":"[0]","door_history":"[1]","location_rts":"[1834]","trial_type":"two-door-navigation","trial_index":37,"time_elapsed":687114,"internal_node_id":"0.0-2.0-35.0"},{"group":"hexagon_bi","room_assignment":["purple","green","grey","yellow","blue","red"],"door_color_assignment":["black","white"],"door_generator_assignment":[1,0],"goal":4,"start":2,"action_noise":0.15,"location_history":"[2,3,4]","action_history":"[1,0]","door_history":"[0,1]","location_rts":"[1240,2852]","trial_type":"two-door-navigation","trial_index":38,"time_elapsed":696976,"internal_node_id":"0.0-2.0-36.0"},{"group":"hexagon_bi","room_assignment":["purple","green","grey","yellow","blue","red"],"door_color_assignment":["black","white"],"door_generator_assignment":[1,0],"goal":5,"start":4,"action_noise":0.15,"location_history":"[4,3,2,3,4,5]","action_history":"[1,1,1,0,1]","door_history":"[0,0,0,1,0]","location_rts":"[984,1510,606,1740,612]","trial_type":"two-door-navigation","trial_index":39,"time_elapsed":711608,"internal_node_id":"0.0-2.0-37.0"},{"group":"hexagon_bi","room_assignment":["purple","green","grey","yellow","blue","red"],"door_color_assignment":["black","white"],"door_generator_assignment":[1,0],"goal":1,"start":5,"action_noise":0.15,"location_history":"[5,4,3,4,3,2,1]","action_history":"[0,0,0,0,1,0]","door_history":"[1,1,1,1,0,1]","location_rts":"[1590,892,5208,1018,1380,1464]","trial_type":"two-door-navigation","trial_index":40,"time_elapsed":733432,"internal_node_id":"0.0-2.0-38.0"},{"group":"hexagon_bi","room_assignment":["purple","green","grey","yellow","blue","red"],"door_color_assignment":["black","white"],"door_generator_assignment":[1,0],"goal":4,"start":1,"action_noise":0.15,"location_history":"[1,0,5,4]","action_history":"[1,0,1]","door_history":"[0,1,0]","location_rts":"[1644,868,984]","trial_type":"two-door-navigation","trial_index":41,"time_elapsed":743824,"internal_node_id":"0.0-2.0-39.0"},{"group":"hexagon_bi","room_assignment":["purple","green","grey","yellow","blue","red"],"door_color_assignment":["black","white"],"door_generator_assignment":[1,0],"goal":3,"start":4,"action_noise":0.15,"location_history":"[4,5,0,5,0,1,0,1,0,5,0,5,0,5,4,3]","action_history":"[1,0,0,0,1,1,1,1,0,0,0,1,0,1,0]","door_history":"[0,1,1,1,0,0,0,0,1,1,1,0,1,0,1]","location_rts":"[9280,302,1278,820,334,1498,510,1456,464,1476,986,398,362,858,2026]","trial_type":"two-door-navigation","trial_index":42,"time_elapsed":786326,"internal_node_id":"0.0-2.0-40.0"},{"group":"hexagon_bi","room_assignment":["purple","green","grey","yellow","blue","red"],"door_color_assignment":["black","white"],"door_generator_assignment":[1,0],"goal":2,"start":3,"action_noise":0.15,"location_history":"[3,2]","action_history":"[1]","door_history":"[0]","location_rts":"[6404]","trial_type":"two-door-navigation","trial_index":43,"time_elapsed":797380,"internal_node_id":"0.0-2.0-41.0"},{"group":"hexagon_bi","room_assignment":["purple","green","grey","yellow","blue","red"],"door_color_assignment":["black","white"],"door_generator_assignment":[1,0],"goal":0,"start":2,"action_noise":0.15,"location_history":"[2,3,2,1,0]","action_history":"[0,1,0,1]","door_history":"[1,0,1,0]","location_rts":"[1940,1658,1684,1248]","trial_type":"two-door-navigation","trial_index":44,"time_elapsed":811964,"internal_node_id":"0.0-2.0-42.0"},{"group":"hexagon_bi","room_assignment":["purple","green","grey","yellow","blue","red"],"door_color_assignment":["black","white"],"door_generator_assignment":[1,0],"goal":5,"start":0,"action_noise":0.15,"location_history":"[0,5]","action_history":"[1]","door_history":"[0]","location_rts":"[3938]","trial_type":"two-door-navigation","trial_index":45,"time_elapsed":820552,"internal_node_id":"0.0-2.0-43.0"},{"group":"hexagon_bi","room_assignment":["purple","green","grey","yellow","blue","red"],"door_color_assignment":["black","white"],"door_generator_assignment":[1,0],"goal":0,"start":5,"action_noise":0.15,"location_history":"[5,4,5,4,5,0]","action_history":"[1,1,1,1,0]","door_history":"[0,0,0,0,1]","location_rts":"[1650,1824,482,390,338]","trial_type":"two-door-navigation","trial_index":46,"time_elapsed":834336,"internal_node_id":"0.0-2.0-44.0"},{"group":"hexagon_bi","room_assignment":["purple","green","grey","yellow","blue","red"],"door_color_assignment":["black","white"],"door_generator_assignment":[1,0],"goal":2,"start":0,"action_noise":0.15,"location_history":"[0,5,0,5,0,1,0,1,2]","action_history":"[1,0,0,0,1,0,1,0]","door_history":"[0,1,1,1,0,1,0,1]","location_rts":"[10300,922,768,770,580,906,1216,396]","trial_type":"two-door-navigation","trial_index":47,"time_elapsed":862842,"internal_node_id":"0.0-2.0-45.0"},{"group":"hexagon_bi","room_assignment":["purple","green","grey","yellow","blue","red"],"door_color_assignment":["black","white"],"door_generator_assignment":[1,0],"goal":4,"start":2,"action_noise":0.15,"location_history":"[2,3,2,3,4]","action_history":"[1,0,1,0]","door_history":"[0,1,0,1]","location_rts":"[3138,1250,1162,1918]","trial_type":"two-door-navigation","trial_index":48,"time_elapsed":878360,"internal_node_id":"0.0-2.0-46.0"},{"group":"hexagon_bi","room_assignment":["purple","green","grey","yellow","blue","red"],"door_color_assignment":["black","white"],"door_generator_assignment":[1,0],"goal":1,"start":4,"action_noise":0.15,"location_history":"[4,3,2,1]","action_history":"[0,1,0]","door_history":"[1,0,1]","location_rts":"[11572,2738,2948]","trial_type":"two-door-navigation","trial_index":49,"time_elapsed":902532,"internal_node_id":"0.0-2.0-47.0"},{"group":"hexagon_bi","room_assignment":["purple","green","grey","yellow","blue","red"],"door_color_assignment":["black","white"],"door_generator_assignment":[1,0],"goal":5,"start":1,"action_noise":0.15,"location_history":"[1,2,3,2,3,4,5]","action_history":"[0,1,1,1,0,1]","door_history":"[1,0,0,0,1,0]","location_rts":"[1980,4610,964,1138,276,2016]","trial_type":"two-door-navigation","trial_index":50,"time_elapsed":923756,"internal_node_id":"0.0-2.0-48.0"},{"group":"hexagon_bi","room_assignment":["purple","green","grey","yellow","blue","red"],"door_color_assignment":["black","white"],"door_generator_assignment":[1,0],"goal":3,"start":5,"action_noise":0.15,"location_history":"[5,0,1,0,5,4,3]","action_history":"[0,1,1,0,0,0]","door_history":"[1,0,0,1,1,1]","location_rts":"[1454,944,1518,1194,1288,1530]","trial_type":"two-door-navigation","trial_index":51,"time_elapsed":941948,"internal_node_id":"0.0-2.0-49.0"},{"view_history":"[{\"page_index\":0,\"viewing_time\":2132}]","rt":2134,"trial_type":"instructions","trial_index":52,"time_elapsed":945094,"internal_node_id":"0.0-3.0"},{"view_history":"[{\"page_index\":0,\"viewing_time\":2302},{\"page_index\":1,\"viewing_time\":6404}]","rt":8708,"trial_type":"instructions","trial_index":53,"time_elapsed":954806,"internal_node_id":"0.0-4.0"},{"group":"hexagon_tri","fractal_assignment":["../images/gry_blk.png","../images/blu_wht.png","../images/org_blu.png","../images/ylw_slt.png","../images/cyn_red.png","../images/pnk_blu.png"],"mutagen_generator_assignment":[0,1],"goal":3,"start":5,"action_noise":0.15,"location_history":"[5,0,5,0,1,5,4,2,3]","action_history":"[1,0,1,1,1,0,0,1]","mutagen_history":"[1,0,1,1,1,0,0,1]","location_rts":"[2240,1360,638,612,652,924,972,1330]","trial_type":"fractal-mutation","trial_index":54,"time_elapsed":976148,"internal_node_id":"0.0-5.0-0.0"},{"group":"hexagon_tri","fractal_assignment":["../images/gry_blk.png","../images/blu_wht.png","../images/org_blu.png","../images/ylw_slt.png","../images/cyn_red.png","../images/pnk_blu.png"],"mutagen_generator_assignment":[0,1],"goal":1,"start":3,"action_noise":0.15,"location_history":"[3,2,3,4,2,3,2,3,2,1]","action_history":"[0,1,1,1,1,0,0,0,1]","mutagen_history":"[0,1,1,1,1,0,0,0,1]","location_rts":"[1400,1376,1110,900,736,1054,762,520,532]","trial_type":"fractal-mutation","trial_index":55,"time_elapsed":998256,"internal_node_id":"0.0-5.0-1.0"},{"group":"hexagon_tri","fractal_assignment":["../images/gry_blk.png","../images/blu_wht.png","../images/org_blu.png","../images/ylw_slt.png","../images/cyn_red.png","../images/pnk_blu.png"],"mutagen_generator_assignment":[0,1],"goal":0,"start":1,"action_noise":0.15,"location_history":"[1,3,4,0]","action_history":"[0,1,1]","mutagen_history":"[0,1,1]","location_rts":"[1424,332,560]","trial_type":"fractal-mutation","trial_index":56,"time_elapsed":1007506,"internal_node_id":"0.0-5.0-2.0"},{"group":"hexagon_tri","fractal_assignment":["../images/gry_blk.png","../images/blu_wht.png","../images/org_blu.png","../images/ylw_slt.png","../images/cyn_red.png","../images/pnk_blu.png"],"mutagen_generator_assignment":[0,1],"goal":3,"start":0,"action_noise":0.15,"location_history":"[0,1,5,0,1,3]","action_history":"[0,1,1,1,0]","mutagen_history":"[0,1,1,1,0]","location_rts":"[1254,1552,528,1216,392]","trial_type":"fractal-mutation","trial_index":57,"time_elapsed":1021752,"internal_node_id":"0.0-5.0-3.0"},{"group":"hexagon_tri","fractal_assignment":["../images/gry_blk.png","../images/blu_wht.png","../images/org_blu.png","../images/ylw_slt.png","../images/cyn_red.png","../images/pnk_blu.png"],"mutagen_generator_assignment":[0,1],"goal":4,"start":3,"action_noise":0.15,"location_history":"[3,2,3,4]","action_history":"[1,1,1]","mutagen_history":"[1,1,1]","location_rts":"[1418,956,712]","trial_type":"fractal-mutation","trial_index":58,"time_elapsed":1031766,"internal_node_id":"0.0-5.0-4.0"},{"group":"hexagon_tri","fractal_assignment":["../images/gry_blk.png","../images/blu_wht.png","../images/org_blu.png","../images/ylw_slt.png","../images/cyn_red.png","../images/pnk_blu.png"],"mutagen_generator_assignment":[0,1],"goal":2,"start":4,"action_noise":0.15,"location_history":"[4,0,5,4,2]","action_history":"[0,0,0,1]","mutagen_history":"[0,0,0,1]","location_rts":"[1378,1114,1892,1260]","trial_type":"fractal-mutation","trial_index":59,"time_elapsed":1045472,"internal_node_id":"0.0-5.0-5.0"},{"group":"hexagon_tri","fractal_assignment":["../images/gry_blk.png","../images/blu_wht.png","../images/org_blu.png","../images/ylw_slt.png","../images/cyn_red.png","../images/pnk_blu.png"],"mutagen_generator_assignment":[0,1],"goal":1,"start":2,"action_noise":0.15,"location_history":"[2,1]","action_history":"[0]","mutagen_history":"[0]","location_rts":"[1444]","trial_type":"fractal-mutation","trial_index":60,"time_elapsed":1051576,"internal_node_id":"0.0-5.0-6.0"},{"group":"hexagon_tri","fractal_assignment":["../images/gry_blk.png","../images/blu_wht.png","../images/org_blu.png","../images/ylw_slt.png","../images/cyn_red.png","../images/pnk_blu.png"],"mutagen_generator_assignment":[0,1],"goal":5,"start":1,"action_noise":0.15,"location_history":"[1,5]","action_history":"[1]","mutagen_history":"[1]","location_rts":"[1014]","trial_type":"fractal-mutation","trial_index":61,"time_elapsed":1057238,"internal_node_id":"0.0-5.0-7.0"},{"group":"hexagon_tri","fractal_assignment":["../images/gry_blk.png","../images/blu_wht.png","../images/org_blu.png","../images/ylw_slt.png","../images/cyn_red.png","../images/pnk_blu.png"],"mutagen_generator_assignment":[0,1],"goal":4,"start":5,"action_noise":0.15,"location_history":"[5,0,1,5,0,1,5,0,1,3,4]","action_history":"[1,1,0,1,1,1,0,0,0,1]","mutagen_history":"[1,1,0,1,1,1,0,0,0,1]","location_rts":"[2076,634,912,682,466,1018,540,482,676,1946]","trial_type":"fractal-mutation","trial_index":62,"time_elapsed":1081532,"internal_node_id":"0.0-5.0-8.0"},{"group":"hexagon_tri","fractal_assignment":["../images/gry_blk.png","../images/blu_wht.png","../images/org_blu.png","../images/ylw_slt.png","../images/cyn_red.png","../images/pnk_blu.png"],"mutagen_generator_assignment":[0,1],"goal":2,"start":4,"action_noise":0.15,"location_history":"[4,2]","action_history":"[1]","mutagen_history":"[1]","location_rts":"[1296]","trial_type":"fractal-mutation","trial_index":63,"time_elapsed":1087502,"internal_node_id":"0.0-5.0-9.0"},{"group":"hexagon_tri","fractal_assignment":["../images/gry_blk.png","../images/blu_wht.png","../images/org_blu.png","../images/ylw_slt.png","../images/cyn_red.png","../images/pnk_blu.png"],"mutagen_generator_assignment":[0,1],"goal":0,"start":2,"action_noise":0.15,"location_history":"[2,1,5,4,0]","action_history":"[1,1,0,0]","mutagen_history":"[1,1,0,0]","location_rts":"[2430,1352,650,822]","trial_type":"fractal-mutation","trial_index":64,"time_elapsed":1100812,"internal_node_id":"0.0-5.0-10.0"},{"group":"hexagon_tri","fractal_assignment":["../images/gry_blk.png","../images/blu_wht.png","../images/org_blu.png","../images/ylw_slt.png","../images/cyn_red.png","../images/pnk_blu.png"],"mutagen_generator_assignment":[0,1],"goal":1,"start":0,"action_noise":0.15,"location_history":"[0,1]","action_history":"[1]","mutagen_history":"[1]","location_rts":"[2938]","trial_type":"fractal-mutation","trial_index":65,"time_elapsed":1108426,"internal_node_id":"0.0-5.0-11.0"},{"group":"hexagon_tri","fractal_assignment":["../images/gry_blk.png","../images/blu_wht.png","../images/org_blu.png","../images/ylw_slt.png","../images/cyn_red.png","../images/pnk_blu.png"],"mutagen_generator_assignment":[0,1],"goal":3,"start":1,"action_noise":0.15,"location_history":"[1,5,0,5,4,2,1,5,0,5,0,1,5,0,5,4,2,3]","action_history":"[1,1,1,0,0,0,0,1,0,1,1,1,1,0,0,1,1]","mutagen_history":"[1,1,1,0,0,0,0,1,0,1,1,1,1,0,0,1,1]","location_rts":"[3700,668,1132,522,834,674,498,1354,1208,396,582,1550,836,718,436,658,714]","trial_type":"fractal-mutation","trial_index":66,"time_elapsed":1147748,"internal_node_id":"0.0-5.0-12.0"},{"group":"hexagon_tri","fractal_assignment":["../images/gry_blk.png","../images/blu_wht.png","../images/org_blu.png","../images/ylw_slt.png","../images/cyn_red.png","../images/pnk_blu.png"],"mutagen_generator_assignment":[0,1],"goal":5,"start":3,"action_noise":0.15,"location_history":"[3,4,2,1,3,2,3,4,0,1,5]","action_history":"[1,1,0,0,0,1,1,0,1,1]","mutagen_history":"[1,1,0,0,0,1,1,0,1,1]","location_rts":"[1384,890,698,506,660,1846,586,694,958,488]","trial_type":"fractal-mutation","trial_index":67,"time_elapsed":1171318,"internal_node_id":"0.0-5.0-13.0"},{"group":"hexagon_tri","fractal_assignment":["../images/gry_blk.png","../images/blu_wht.png","../images/org_blu.png","../images/ylw_slt.png","../images/cyn_red.png","../images/pnk_blu.png"],"mutagen_generator_assignment":[0,1],"goal":4,"start":5,"action_noise":0.15,"location_history":"[5,0,1,3,2,1,3,4]","action_history":"[1,1,1,0,0,0,1]","mutagen_history":"[1,1,1,0,0,0,1]","location_rts":"[1204,652,1130,974,900,554,876]","trial_type":"fractal-mutation","trial_index":68,"time_elapsed":1189116,"internal_node_id":"0.0-5.0-14.0"},{"group":"hexagon_tri","fractal_assignment":["../images/gry_blk.png","../images/blu_wht.png","../images/org_blu.png","../images/ylw_slt.png","../images/cyn_red.png","../images/pnk_blu.png"],"mutagen_generator_assignment":[0,1],"goal":0,"start":4,"action_noise":0.15,"location_history":"[4,0]","action_history":"[1]","mutagen_history":"[1]","location_rts":"[1638]","trial_type":"fractal-mutation","trial_index":69,"time_elapsed":1195424,"internal_node_id":"0.0-5.0-15.0"},{"group":"hexagon_tri","fractal_assignment":["../images/gry_blk.png","../images/blu_wht.png","../images/org_blu.png","../images/ylw_slt.png","../images/cyn_red.png","../images/pnk_blu.png"],"mutagen_generator_assignment":[0,1],"goal":3,"start":0,"action_noise":0.15,"location_history":"[0,5,4,0,1,3]","action_history":"[0,0,1,1,0]","mutagen_history":"[0,0,1,1,0]","location_rts":"[2566,1574,946,624,396]","trial_type":"fractal-mutation","trial_index":70,"time_elapsed":1210714,"internal_node_id":"0.0-5.0-16.0"},{"group":"hexagon_tri","fractal_assignment":["../images/gry_blk.png","../images/blu_wht.png","../images/org_blu.png","../images/ylw_slt.png","../images/cyn_red.png","../images/pnk_blu.png"],"mutagen_generator_assignment":[0,1],"goal":1,"start":3,"action_noise":0.15,"location_history":"[3,2,1]","action_history":"[0,0]","mutagen_history":"[0,0]","location_rts":"[712,602]","trial_type":"fractal-mutation","trial_index":71,"time_elapsed":1217798,"internal_node_id":"0.0-5.0-17.0"},{"group":"hexagon_tri","fractal_assignment":["../images/gry_blk.png","../images/blu_wht.png","../images/org_blu.png","../images/ylw_slt.png","../images/cyn_red.png","../images/pnk_blu.png"],"mutagen_generator_assignment":[0,1],"goal":5,"start":1,"action_noise":0.15,"location_history":"[1,5]","action_history":"[1]","mutagen_history":"[1]","location_rts":"[1602]","trial_type":"fractal-mutation","trial_index":72,"time_elapsed":1224026,"internal_node_id":"0.0-5.0-18.0"},{"group":"hexagon_tri","fractal_assignment":["../images/gry_blk.png","../images/blu_wht.png","../images/org_blu.png","../images/ylw_slt.png","../images/cyn_red.png","../images/pnk_blu.png"],"mutagen_generator_assignment":[0,1],"goal":2,"start":5,"action_noise":0.15,"location_history":"[5,4,2]","action_history":"[0,1]","mutagen_history":"[0,1]","location_rts":"[2168,846]","trial_type":"fractal-mutation","trial_index":73,"time_elapsed":1232822,"internal_node_id":"0.0-5.0-19.0"},{"group":"hexagon_tri","fractal_assignment":["../images/gry_blk.png","../images/blu_wht.png","../images/org_blu.png","../images/ylw_slt.png","../images/cyn_red.png","../images/pnk_blu.png"],"mutagen_generator_assignment":[0,1],"goal":4,"start":2,"action_noise":0.15,"location_history":"[2,3,4]","action_history":"[0,1]","mutagen_history":"[0,1]","location_rts":"[2100,330]","trial_type":"fractal-mutation","trial_index":74,"time_elapsed":1241054,"internal_node_id":"0.0-5.0-20.0"},{"group":"hexagon_tri","fractal_assignment":["../images/gry_blk.png","../images/blu_wht.png","../images/org_blu.png","../images/ylw_slt.png","../images/cyn_red.png","../images/pnk_blu.png"],"mutagen_generator_assignment":[0,1],"goal":1,"start":4,"action_noise":0.15,"location_history":"[4,0,1]","action_history":"[0,1]","mutagen_history":"[0,1]","location_rts":"[1552,654]","trial_type":"fractal-mutation","trial_index":75,"time_elapsed":1249040,"internal_node_id":"0.0-5.0-21.0"},{"group":"hexagon_tri","fractal_assignment":["../images/gry_blk.png","../images/blu_wht.png","../images/org_blu.png","../images/ylw_slt.png","../images/cyn_red.png","../images/pnk_blu.png"],"mutagen_generator_assignment":[0,1],"goal":3,"start":1,"action_noise":0.15,"location_history":"[1,3]","action_history":"[1]","mutagen_history":"[1]","location_rts":"[1414]","trial_type":"fractal-mutation","trial_index":76,"time_elapsed":1255148,"internal_node_id":"0.0-5.0-22.0"},{"group":"hexagon_tri","fractal_assignment":["../images/gry_blk.png","../images/blu_wht.png","../images/org_blu.png","../images/ylw_slt.png","../images/cyn_red.png","../images/pnk_blu.png"],"mutagen_generator_assignment":[0,1],"goal":2,"start":3,"action_noise":0.15,"location_history":"[3,2]","action_history":"[0]","mutagen_history":"[0]","location_rts":"[1678]","trial_type":"fractal-mutation","trial_index":77,"time_elapsed":1261486,"internal_node_id":"0.0-5.0-23.0"},{"group":"hexagon_tri","fractal_assignment":["../images/gry_blk.png","../images/blu_wht.png","../images/org_blu.png","../images/ylw_slt.png","../images/cyn_red.png","../images/pnk_blu.png"],"mutagen_generator_assignment":[0,1],"goal":0,"start":2,"action_noise":0.15,"location_history":"[2,3,2,1,3,2,3,4,0]","action_history":"[1,0,0,0,0,1,1,0]","mutagen_history":"[1,0,0,0,0,1,1,0]","location_rts":"[2118,570,798,1110,1220,1376,724,988]","trial_type":"fractal-mutation","trial_index":78,"time_elapsed":1282978,"internal_node_id":"0.0-5.0-24.0"},{"group":"hexagon_tri","fractal_assignment":["../images/gry_blk.png","../images/blu_wht.png","../images/org_blu.png","../images/ylw_slt.png","../images/cyn_red.png","../images/pnk_blu.png"],"mutagen_generator_assignment":[0,1],"goal":5,"start":0,"action_noise":0.15,"location_history":"[0,1,3,4,2,3,2,1,5]","action_history":"[1,0,0,1,1,1,0,1]","mutagen_history":"[1,0,0,1,1,1,0,1]","location_rts":"[1784,902,1120,650,500,916,454,612]","trial_type":"fractal-mutation","trial_index":79,"time_elapsed":1302516,"internal_node_id":"0.0-5.0-25.0"},{"group":"hexagon_tri","fractal_assignment":["../images/gry_blk.png","../images/blu_wht.png","../images/org_blu.png","../images/ylw_slt.png","../images/cyn_red.png","../images/pnk_blu.png"],"mutagen_generator_assignment":[0,1],"goal":2,"start":5,"action_noise":0.15,"location_history":"[5,0,5,0,1,3,2]","action_history":"[1,0,1,1,0,0]","mutagen_history":"[1,0,1,1,0,0]","location_rts":"[1974,540,858,392,394,1024]","trial_type":"fractal-mutation","trial_index":80,"time_elapsed":1317980,"internal_node_id":"0.0-5.0-26.0"},{"group":"hexagon_tri","fractal_assignment":["../images/gry_blk.png","../images/blu_wht.png","../images/org_blu.png","../images/ylw_slt.png","../images/cyn_red.png","../images/pnk_blu.png"],"mutagen_generator_assignment":[0,1],"goal":3,"start":2,"action_noise":0.15,"location_history":"[2,1,3]","action_history":"[0,1]","mutagen_history":"[0,1]","location_rts":"[2776,882]","trial_type":"fractal-mutation","trial_index":81,"time_elapsed":1327438,"internal_node_id":"0.0-5.0-27.0"},{"group":"hexagon_tri","fractal_assignment":["../images/gry_blk.png","../images/blu_wht.png","../images/org_blu.png","../images/ylw_slt.png","../images/cyn_red.png","../images/pnk_blu.png"],"mutagen_generator_assignment":[0,1],"goal":0,"start":3,"action_noise":0.15,"location_history":"[3,4,0]","action_history":"[1,0]","mutagen_history":"[1,0]","location_rts":"[1518,504]","trial_type":"fractal-mutation","trial_index":82,"time_elapsed":1335228,"internal_node_id":"0.0-5.0-28.0"},{"group":"hexagon_tri","fractal_assignment":["../images/gry_blk.png","../images/blu_wht.png","../images/org_blu.png","../images/ylw_slt.png","../images/cyn_red.png","../images/pnk_blu.png"],"mutagen_generator_assignment":[0,1],"goal":1,"start":0,"action_noise":0.15,"location_history":"[0,5,0,5,4,2,1]","action_history":"[0,1,0,0,0,1]","mutagen_history":"[0,1,0,0,0,1]","location_rts":"[1788,564,1202,582,540,334]","trial_type":"fractal-mutation","trial_index":83,"time_elapsed":1350544,"internal_node_id":"0.0-5.0-29.0"},{"group":"hexagon_tri","fractal_assignment":["../images/gry_blk.png","../images/blu_wht.png","../images/org_blu.png","../images/ylw_slt.png","../images/cyn_red.png","../images/pnk_blu.png"],"mutagen_generator_assignment":[0,1],"goal":4,"start":1,"action_noise":0.15,"location_history":"[1,5,4]","action_history":"[1,0]","mutagen_history":"[1,0]","location_rts":"[2666,640]","trial_type":"fractal-mutation","trial_index":84,"time_elapsed":1359638,"internal_node_id":"0.0-5.0-30.0"},{"group":"hexagon_tri","fractal_assignment":["../images/gry_blk.png","../images/blu_wht.png","../images/org_blu.png","../images/ylw_slt.png","../images/cyn_red.png","../images/pnk_blu.png"],"mutagen_generator_assignment":[0,1],"goal":5,"start":4,"action_noise":0.15,"location_history":"[4,2,1,3,4,0,5]","action_history":"[1,0,0,0,0,0]","mutagen_history":"[1,0,0,0,0,0]","location_rts":"[7566,754,462,748,622,684]","trial_type":"fractal-mutation","trial_index":85,"time_elapsed":1380734,"internal_node_id":"0.0-5.0-31.0"},{"group":"hexagon_tri","fractal_assignment":["../images/gry_blk.png","../images/blu_wht.png","../images/org_blu.png","../images/ylw_slt.png","../images/cyn_red.png","../images/pnk_blu.png"],"mutagen_generator_assignment":[0,1],"goal":0,"start":5,"action_noise":0.15,"location_history":"[5,4,0]","action_history":"[0,1]","mutagen_history":"[0,1]","location_rts":"[1058,874]","trial_type":"fractal-mutation","trial_index":86,"time_elapsed":1388454,"internal_node_id":"0.0-5.0-32.0"},{"group":"hexagon_tri","fractal_assignment":["../images/gry_blk.png","../images/blu_wht.png","../images/org_blu.png","../images/ylw_slt.png","../images/cyn_red.png","../images/pnk_blu.png"],"mutagen_generator_assignment":[0,1],"goal":3,"start":0,"action_noise":0.15,"location_history":"[0,5,4,2,3]","action_history":"[0,1,1,1]","mutagen_history":"[0,1,1,1]","location_rts":"[1664,604,694,454]","trial_type":"fractal-mutation","trial_index":87,"time_elapsed":1399932,"internal_node_id":"0.0-5.0-33.0"},{"group":"hexagon_tri","fractal_assignment":["../images/gry_blk.png","../images/blu_wht.png","../images/org_blu.png","../images/ylw_slt.png","../images/cyn_red.png","../images/pnk_blu.png"],"mutagen_generator_assignment":[0,1],"goal":1,"start":3,"action_noise":0.15,"location_history":"[3,2,3,2,3,4,0,5,4,2,3,4,0,1]","action_history":"[0,1,1,1,1,1,0,1,1,0,1,0,1]","mutagen_history":"[0,1,1,1,1,1,0,1,1,0,1,0,1]","location_rts":"[1544,1548,892,702,546,912,1304,516,1036,950,790,1012,840]","trial_type":"fractal-mutation","trial_index":88,"time_elapsed":1430768,"internal_node_id":"0.0-5.0-34.0"},{"group":"hexagon_tri","fractal_assignment":["../images/gry_blk.png","../images/blu_wht.png","../images/org_blu.png","../images/ylw_slt.png","../images/cyn_red.png","../images/pnk_blu.png"],"mutagen_generator_assignment":[0,1],"goal":2,"start":1,"action_noise":0.15,"location_history":"[1,3,2]","action_history":"[0,0]","mutagen_history":"[0,0]","location_rts":"[1030,754]","trial_type":"fractal-mutation","trial_index":89,"time_elapsed":1438346,"internal_node_id":"0.0-5.0-35.0"},{"group":"hexagon_tri","fractal_assignment":["../images/gry_blk.png","../images/blu_wht.png","../images/org_blu.png","../images/ylw_slt.png","../images/cyn_red.png","../images/pnk_blu.png"],"mutagen_generator_assignment":[0,1],"goal":4,"start":2,"action_noise":0.15,"location_history":"[2,3,2,1,3,4]","action_history":"[1,1,0,0,1]","mutagen_history":"[1,1,0,0,1]","location_rts":"[1034,938,694,898,896]","trial_type":"fractal-mutation","trial_index":90,"time_elapsed":1451976,"internal_node_id":"0.0-5.0-36.0"},{"group":"hexagon_tri","fractal_assignment":["../images/gry_blk.png","../images/blu_wht.png","../images/org_blu.png","../images/ylw_slt.png","../images/cyn_red.png","../images/pnk_blu.png"],"mutagen_generator_assignment":[0,1],"goal":5,"start":4,"action_noise":0.15,"location_history":"[4,2,3,4,0,5]","action_history":"[1,1,0,0,1]","mutagen_history":"[1,1,0,0,1]","location_rts":"[1306,5586,828,450,710]","trial_type":"fractal-mutation","trial_index":91,"time_elapsed":1469962,"internal_node_id":"0.0-5.0-37.0"},{"group":"hexagon_tri","fractal_assignment":["../images/gry_blk.png","../images/blu_wht.png","../images/org_blu.png","../images/ylw_slt.png","../images/cyn_red.png","../images/pnk_blu.png"],"mutagen_generator_assignment":[0,1],"goal":1,"start":5,"action_noise":0.15,"location_history":"[5,0,1]","action_history":"[1,1]","mutagen_history":"[1,1]","location_rts":"[1430,924]","trial_type":"fractal-mutation","trial_index":92,"time_elapsed":1478116,"internal_node_id":"0.0-5.0-38.0"},{"group":"hexagon_tri","fractal_assignment":["../images/gry_blk.png","../images/blu_wht.png","../images/org_blu.png","../images/ylw_slt.png","../images/cyn_red.png","../images/pnk_blu.png"],"mutagen_generator_assignment":[0,1],"goal":4,"start":1,"action_noise":0.15,"location_history":"[1,3,4]","action_history":"[0,1]","mutagen_history":"[0,1]","location_rts":"[1300,548]","trial_type":"fractal-mutation","trial_index":93,"time_elapsed":1485766,"internal_node_id":"0.0-5.0-39.0"},{"group":"hexagon_tri","fractal_assignment":["../images/gry_blk.png","../images/blu_wht.png","../images/org_blu.png","../images/ylw_slt.png","../images/cyn_red.png","../images/pnk_blu.png"],"mutagen_generator_assignment":[0,1],"goal":3,"start":4,"action_noise":0.15,"location_history":"[4,2,3]","action_history":"[1,0]","mutagen_history":"[1,0]","location_rts":"[1552,526]","trial_type":"fractal-mutation","trial_index":94,"time_elapsed":1493642,"internal_node_id":"0.0-5.0-40.0"},{"group":"hexagon_tri","fractal_assignment":["../images/gry_blk.png","../images/blu_wht.png","../images/org_blu.png","../images/ylw_slt.png","../images/cyn_red.png","../images/pnk_blu.png"],"mutagen_generator_assignment":[0,1],"goal":2,"start":3,"action_noise":0.15,"location_history":"[3,4,2]","action_history":"[0,1]","mutagen_history":"[0,1]","location_rts":"[844,410]","trial_type":"fractal-mutation","trial_index":95,"time_elapsed":1500680,"internal_node_id":"0.0-5.0-41.0"},{"group":"hexagon_tri","fractal_assignment":["../images/gry_blk.png","../images/blu_wht.png","../images/org_blu.png","../images/ylw_slt.png","../images/cyn_red.png","../images/pnk_blu.png"],"mutagen_generator_assignment":[0,1],"goal":0,"start":2,"action_noise":0.15,"location_history":"[2,3,4,0]","action_history":"[1,1,0]","mutagen_history":"[1,1,0]","location_rts":"[1468,1072,480]","trial_type":"fractal-mutation","trial_index":96,"time_elapsed":1510608,"internal_node_id":"0.0-5.0-42.0"},{"group":"hexagon_tri","fractal_assignment":["../images/gry_blk.png","../images/blu_wht.png","../images/org_blu.png","../images/ylw_slt.png","../images/cyn_red.png","../images/pnk_blu.png"],"mutagen_generator_assignment":[0,1],"goal":5,"start":0,"action_noise":0.15,"location_history":"[0,1,5]","action_history":"[1,1]","mutagen_history":"[1,1]","location_rts":"[1174,590]","trial_type":"fractal-mutation","trial_index":97,"time_elapsed":1518196,"internal_node_id":"0.0-5.0-43.0"},{"group":"hexagon_tri","fractal_assignment":["../images/gry_blk.png","../images/blu_wht.png","../images/org_blu.png","../images/ylw_slt.png","../images/cyn_red.png","../images/pnk_blu.png"],"mutagen_generator_assignment":[0,1],"goal":0,"start":5,"action_noise":0.15,"location_history":"[5,0]","action_history":"[1]","mutagen_history":"[1]","location_rts":"[998]","trial_type":"fractal-mutation","trial_index":98,"time_elapsed":1523854,"internal_node_id":"0.0-5.0-44.0"},{"group":"hexagon_tri","fractal_assignment":["../images/gry_blk.png","../images/blu_wht.png","../images/org_blu.png","../images/ylw_slt.png","../images/cyn_red.png","../images/pnk_blu.png"],"mutagen_generator_assignment":[0,1],"goal":2,"start":0,"action_noise":0.15,"location_history":"[0,5,0,5,0,1,3,2]","action_history":"[0,0,0,1,0,0,0]","mutagen_history":"[0,0,0,1,0,0,0]","location_rts":"[1082,1258,680,574,666,1054,888]","trial_type":"fractal-mutation","trial_index":99,"time_elapsed":1541490,"internal_node_id":"0.0-5.0-45.0"},{"group":"hexagon_tri","fractal_assignment":["../images/gry_blk.png","../images/blu_wht.png","../images/org_blu.png","../images/ylw_slt.png","../images/cyn_red.png","../images/pnk_blu.png"],"mutagen_generator_assignment":[0,1],"goal":4,"start":2,"action_noise":0.15,"location_history":"[2,3,2,3,2,3,4]","action_history":"[1,0,1,1,1,0]","mutagen_history":"[1,0,1,1,1,0]","location_rts":"[1206,740,1458,362,998,456]","trial_type":"fractal-mutation","trial_index":100,"time_elapsed":1556930,"internal_node_id":"0.0-5.0-46.0"},{"group":"hexagon_tri","fractal_assignment":["../images/gry_blk.png","../images/blu_wht.png","../images/org_blu.png","../images/ylw_slt.png","../images/cyn_red.png","../images/pnk_blu.png"],"mutagen_generator_assignment":[0,1],"goal":1,"start":4,"action_noise":0.15,"location_history":"[4,2,3,2,1]","action_history":"[1,1,0,0]","mutagen_history":"[1,1,0,0]","location_rts":"[1720,1120,580,472]","trial_type":"fractal-mutation","trial_index":101,"time_elapsed":1568854,"internal_node_id":"0.0-5.0-47.0"},{"group":"hexagon_tri","fractal_assignment":["../images/gry_blk.png","../images/blu_wht.png","../images/org_blu.png","../images/ylw_slt.png","../images/cyn_red.png","../images/pnk_blu.png"],"mutagen_generator_assignment":[0,1],"goal":5,"start":1,"action_noise":0.15,"location_history":"[1,5]","action_history":"[1]","mutagen_history":"[1]","location_rts":"[900]","trial_type":"fractal-mutation","trial_index":102,"time_elapsed":1574426,"internal_node_id":"0.0-5.0-48.0"},{"group":"hexagon_tri","fractal_assignment":["../images/gry_blk.png","../images/blu_wht.png","../images/org_blu.png","../images/ylw_slt.png","../images/cyn_red.png","../images/pnk_blu.png"],"mutagen_generator_assignment":[0,1],"goal":3,"start":5,"action_noise":0.15,"location_history":"[5,0,1,3]","action_history":"[1,1,0]","mutagen_history":"[1,1,0]","location_rts":"[1450,544,942]","trial_type":"fractal-mutation","trial_index":103,"time_elapsed":1584286,"internal_node_id":"0.0-5.0-49.0"},{"view_history":"[{\"page_index\":0,\"viewing_time\":2768}]","rt":2768,"trial_type":"instructions","trial_index":104,"time_elapsed":1588068,"internal_node_id":"0.0-6.0"},{"rt":2274,"responses":"{\"Q0\":\"\"}","trial_type":"survey-text","trial_index":105,"time_elapsed":1591362,"internal_node_id":"0.0-7.0"}]