[{"view_history":"[{\"page_index\":0,\"viewing_time\":1875},{\"page_index\":1,\"viewing_time\":4334}]","rt":6210,"trial_type":"instructions","trial_index":0,"time_elapsed":6210,"internal_node_id":"0.0-0.0"},{"view_history":"[{\"page_index\":0,\"viewing_time\":1734},{\"page_index\":1,\"viewing_time\":1432}]","rt":3166,"trial_type":"instructions","trial_index":1,"time_elapsed":10377,"internal_node_id":"0.0-1.0"},{"group":"hexagon_tri","room_assignment":["purple","red","grey","green","yellow","blue"],"door_color_assignment":["white","black"],"door_generator_assignment":[1,0],"goal":3,"start":5,"action_noise":0.15,"location_history":"[5,0,5,0,1,5,4,2,3]","action_history":"[0,0,1,1,1,0,1,1]","door_history":"[1,1,0,0,0,1,0,0]","location_rts":"[852,443,161,52,1020,191,2993,551]","trial_type":"two-door-navigation","trial_index":2,"time_elapsed":28309,"internal_node_id":"0.0-2.0-0.0"},{"group":"hexagon_tri","room_assignment":["purple","red","grey","green","yellow","blue"],"door_color_assignment":["white","black"],"door_generator_assignment":[1,0],"goal":1,"start":3,"action_noise":0.15,"location_history":"[3,2,3,2,1]","action_history":"[1,1,0,0]","door_history":"[0,0,1,1]","location_rts":"[659,260,847,71]","trial_type":"two-door-navigation","trial_index":3,"time_elapsed":37729,"internal_node_id":"0.0-2.0-1.0"},{"group":"hexagon_tri","room_assignment":["purple","red","grey","green","yellow","blue"],"door_color_assignment":["white","black"],"door_generator_assignment":[1,0],"goal":0,"start":1,"action_noise":0.15,"location_history":"[1,5,0]","action_history":"[1,1]","door_history":"[0,0]","location_rts":"[305,40]","trial_type":"two-door-navigation","trial_index":4,"time_elapsed":43618,"internal_node_id":"0.0-2.0-2.0"},{"group":"hexagon_tri","room_assignment":["purple","red","grey","green","yellow","blue"],"door_color_assignment":["white","black"],"door_generator_assignment":[1,0],"goal":3,"start":0,"action_noise":0.15,"location_history":"[0,1,5,0,5,0,5,4,2,3]","action_history":"[1,1,1,0,1,0,0,1,1]","door_history":"[0,0,0,1,0,1,1,0,0]","location_rts":"[1041,163,109,200,1534,321,377,916,65]","trial_type":"two-door-navigation","trial_index":5,"time_elapsed":61035,"internal_node_id":"0.0-2.0-3.0"},{"group":"hexagon_tri","room_assignment":["purple","red","grey","green","yellow","blue"],"door_color_assignment":["white","black"],"door_generator_assignment":[1,0],"goal":4,"start":3,"action_noise":0.15,"location_history":"[3,4]","action_history":"[1]","door_history":"[0]","location_rts":"[547]","trial_type":"two-door-navigation","trial_index":6,"time_elapsed":66105,"internal_node_id":"0.0-2.0-4.0"},{"group":"hexagon_tri","room_assignment":["purple","red","grey","green","yellow","blue"],"door_color_assignment":["white","black"],"door_generator_assignment":[1,0],"goal":2,"start":4,"action_noise":0.15,"location_history":"[4,2]","action_history":"[1]","door_history":"[0]","location_rts":"[286]","trial_type":"two-door-navigation","trial_index":7,"time_elapsed":70928,"internal_node_id":"0.0-2.0-5.0"},{"group":"hexagon_tri","room_assignment":["purple","red","grey","green","yellow","blue"],"door_color_assignment":["white","black"],"door_generator_assignment":[1,0],"goal":1,"start":2,"action_noise":0.15,"location_history":"[2,3,4,2,3,2,1]","action_history":"[1,1,1,1,1,0]","door_history":"[0,0,0,0,0,1]","location_rts":"[1545,1515,354,5,122,263]","trial_type":"two-door-navigation","trial_index":8,"time_elapsed":84360,"internal_node_id":"0.0-2.0-6.0"},{"group":"hexagon_tri","room_assignment":["purple","red","grey","green","yellow","blue"],"door_color_assignment":["white","black"],"door_generator_assignment":[1,0],"goal":5,"start":1,"action_noise":0.15,"location_history":"[1,3,2,3,4,2,3,4,0,1,3,4,0,1,5]","action_history":"[0,0,0,1,1,1,1,0,0,0,0,0,1,1]","door_history":"[1,1,1,0,0,0,0,1,1,1,1,1,0,0]","location_rts":"[120,778,378,1989,541,622,267,795,171,5,183,95,1009,371]","trial_type":"two-door-navigation","trial_index":9,"time_elapsed":109448,"internal_node_id":"0.0-2.0-7.0"},{"group":"hexagon_tri","room_assignment":["purple","red","grey","green","yellow","blue"],"door_color_assignment":["white","black"],"door_generator_assignment":[1,0],"goal":4,"start":5,"action_noise":0.15,"location_history":"[5,4]","action_history":"[1]","door_history":"[0]","location_rts":"[885]","trial_type":"two-door-navigation","trial_index":10,"time_elapsed":114857,"internal_node_id":"0.0-2.0-8.0"},{"group":"hexagon_tri","room_assignment":["purple","red","grey","green","yellow","blue"],"door_color_assignment":["white","black"],"door_generator_assignment":[1,0],"goal":2,"start":4,"action_noise":0.15,"location_history":"[4,2]","action_history":"[1]","door_history":"[0]","location_rts":"[438]","trial_type":"two-door-navigation","trial_index":11,"time_elapsed":119819,"internal_node_id":"0.0-2.0-9.0"},{"group":"hexagon_tri","room_assignment":["purple","red","grey","green","yellow","blue"],"door_color_assignment":["white","black"],"door_generator_assignment":[1,0],"goal":0,"start":2,"action_noise":0.15,"location_history":"[2,1,3,4,2,1,5,0]","action_history":"[0,0,1,1,1,1,1]","door_history":"[1,1,0,0,0,0,0]","location_rts":"[448,202,328,1610,345,213,2007]","trial_type":"two-door-navigation","trial_index":12,"time_elapsed":135625,"internal_node_id":"0.0-2.0-10.0"},{"group":"hexagon_tri","room_assignment":["purple","red","grey","green","yellow","blue"],"door_color_assignment":["white","black"],"door_generator_assignment":[1,0],"goal":1,"start":0,"action_noise":0.15,"location_history":"[0,1]","action_history":"[1]","door_history":"[0]","location_rts":"[437]","trial_type":"two-door-navigation","trial_index":13,"time_elapsed":140590,"internal_node_id":"0.0-2.0-11.0"},{"group":"hexagon_tri","room_assignment":["purple","red","grey","green","yellow","blue"],"door_color_assignment":["white","black"],"door_generator_assignment":[1,0],"goal":3,"start":1,"action_noise":0.15,"location_history":"[1,5,4,2,3]","action_history":"[1,0,1,1]","door_history":"[0,1,0,0]","location_rts":"[1233,30,573,205]","trial_type":"two-door-navigation","trial_index":14,"time_elapsed":150209,"internal_node_id":"0.0-2.0-12.0"},{"group":"hexagon_tri","room_assignment":["purple","red","grey","green","yellow","blue"],"door_color_assignment":["white","black"],"door_generator_assignment":[1,0],"goal":5,"start":3,"action_noise":0.15,"location_history":"[3,4,0,1,5]","action_history":"[0,1,1,1]","door_history":"[1,0,0,0]","location_rts":"[882,359,450,103]","trial_type":"two-door-navigation","trial_index":15,"time_elapsed":159583,"internal_node_id":"0.0-2.0-13.0"},{"group":"hexagon_tri","room_assignment":["purple","red","grey","green","yellow","blue"],"door_color_assignment":["white","black"],"door_generator_assignment":[1,0],"goal":4,"start":5,"action_noise":0.15,"location_history":"[5,0,5,0,1,5,0,1,3,2,1,5,0,1,5,4]","action_history":"[1,0,1,1,1,0,1,1,0,0,1,1,1,1,0]","door_history":"[0,1,0,0,0,1,0,0,1,1,0,0,0,0,1]","location_rts":"[1216,393,387,60,235,144,111,682,13,189,1042,269,92,213,1187]","trial_type":"two-door-navigation","trial_index":16,"time_elapsed":184603,"internal_node_id":"0.0-2.0-14.0"},{"group":"hexagon_tri","room_assignment":["purple","red","grey","green","yellow","blue"],"door_color_assignment":["white","black"],"door_generator_assignment":[1,0],"goal":0,"start":4,"action_noise":0.15,"location_history":"[4,2,3,2,1,3,4,2,3,4,0]","action_history":"[1,1,0,0,1,1,1,1,1,0]","door_history":"[0,0,1,1,0,0,0,0,0,1]","location_rts":"[315,111,656,338,1358,456,427,138,130,423]","trial_type":"two-door-navigation","trial_index":17,"time_elapsed":202688,"internal_node_id":"0.0-2.0-15.0"},{"group":"hexagon_tri","room_assignment":["purple","red","grey","green","yellow","blue"],"door_color_assignment":["white","black"],"door_generator_assignment":[1,0],"goal":3,"start":0,"action_noise":0.15,"location_history":"[0,1,5,0,1,5,0,1,5,0,1,3]","action_history":"[1,1,1,1,1,1,1,0,1,1,1]","door_history":"[0,0,0,0,0,0,0,1,0,0,0]","location_rts":"[1334,562,209,3,390,557,481,184,354,206,1262]","trial_type":"two-door-navigation","trial_index":18,"time_elapsed":222952,"internal_node_id":"0.0-2.0-16.0"},{"group":"hexagon_tri","room_assignment":["purple","red","grey","green","yellow","blue"],"door_color_assignment":["white","black"],"door_generator_assignment":[1,0],"goal":1,"start":3,"action_noise":0.15,"location_history":"[3,4,2,3,4,2,1]","action_history":"[0,0,1,1,1,0]","door_history":"[1,1,0,0,0,1]","location_rts":"[1462,389,285,92,308,437]","trial_type":"two-door-navigation","trial_index":19,"time_elapsed":235546,"internal_node_id":"0.0-2.0-17.0"},{"group":"hexagon_tri","room_assignment":["purple","red","grey","green","yellow","blue"],"door_color_assignment":["white","black"],"door_generator_assignment":[1,0],"goal":5,"start":1,"action_noise":0.15,"location_history":"[1,5]","action_history":"[1]","door_history":"[0]","location_rts":"[1252]","trial_type":"two-door-navigation","trial_index":20,"time_elapsed":241320,"internal_node_id":"0.0-2.0-18.0"},{"group":"hexagon_tri","room_assignment":["purple","red","grey","green","yellow","blue"],"door_color_assignment":["white","black"],"door_generator_assignment":[1,0],"goal":2,"start":5,"action_noise":0.15,"location_history":"[5,0,5,4,2]","action_history":"[1,0,0,1]","door_history":"[0,1,1,0]","location_rts":"[2624,261,22,843]","trial_type":"two-door-navigation","trial_index":21,"time_elapsed":252659,"internal_node_id":"0.0-2.0-19.0"},{"group":"hexagon_tri","room_assignment":["purple","red","grey","green","yellow","blue"],"door_color_assignment":["white","black"],"door_generator_assignment":[1,0],"goal":4,"start":2,"action_noise":0.15,"location_history":"[2,3,2,1,3,4]","action_history":"[1,0,0,0,1]","door_history":"[0,1,1,1,0]","location_rts":"[1287,591,163,62,551]","trial_type":"two-door-navigation","trial_index":22,"time_elapsed":263913,"internal_node_id":"0.0-2.0-20.0"},{"group":"hexagon_tri","room_assignment":["purple","red","grey","green","yellow","blue"],"door_color_assignment":["white","black"],"door_generator_assignment":[1,0],"goal":1,"start":4,"action_noise":0.15,"location_history":"[4,2,1]","action_history":"[0,0]","door_history":"[1,1]","location_rts":"[308,29]","trial_type":"two-door-navigation","trial_index":23,"time_elapsed":269794,"internal_node_id":"0.0-2.0-21.0"},{"group":"hexagon_tri","room_assignment":["purple","red","grey","green","yellow","blue"],"door_color_assignment":["white","black"],"door_generator_assignment":[1,0],"goal":3,"start":1,"action_noise":0.15,"location_history":"[1,5,0,1,5,4,0,5,0,5,0,1,5,0,5,0,1,5,0,1,3]","action_history":"[1,1,1,1,0,0,0,1,0,1,1,0,1,0,1,1,1,1,1,0]","door_history":"[0,0,0,0,1,1,1,0,1,0,0,1,0,1,0,0,0,0,0,1]","location_rts":"[68,335,503,259,135,343,254,809,529,135,995,1341,623,673,2010,415,47,396,783,903]","trial_type":"two-door-navigation","trial_index":24,"time_elapsed":305215,"internal_node_id":"0.0-2.0-22.0"},{"group":"hexagon_tri","room_assignment":["purple","red","grey","green","yellow","blue"],"door_color_assignment":["white","black"],"door_generator_assignment":[1,0],"goal":2,"start":3,"action_noise":0.15,"location_history":"[3,4,2]","action_history":"[1,1]","door_history":"[0,0]","location_rts":"[1557,27]","trial_type":"two-door-navigation","trial_index":25,"time_elapsed":312333,"internal_node_id":"0.0-2.0-23.0"},{"group":"hexagon_tri","room_assignment":["purple","red","grey","green","yellow","blue"],"door_color_assignment":["white","black"],"door_generator_assignment":[1,0],"goal":0,"start":2,"action_noise":0.15,"location_history":"[2,1,3,4,0]","action_history":"[0,0,0,0]","door_history":"[1,1,1,1]","location_rts":"[1166,543,163,398]","trial_type":"two-door-navigation","trial_index":26,"time_elapsed":322184,"internal_node_id":"0.0-2.0-24.0"},{"group":"hexagon_tri","room_assignment":["purple","red","grey","green","yellow","blue"],"door_color_assignment":["white","black"],"door_generator_assignment":[1,0],"goal":5,"start":0,"action_noise":0.15,"location_history":"[0,5]","action_history":"[1]","door_history":"[0]","location_rts":"[850]","trial_type":"two-door-navigation","trial_index":27,"time_elapsed":327560,"internal_node_id":"0.0-2.0-25.0"},{"group":"hexagon_tri","room_assignment":["purple","red","grey","green","yellow","blue"],"door_color_assignment":["white","black"],"door_generator_assignment":[1,0],"goal":2,"start":5,"action_noise":0.15,"location_history":"[5,4,0,5,4,0,1,5,0,5,4,2]","action_history":"[0,0,0,0,0,1,1,1,1,0,1]","door_history":"[1,1,1,1,1,0,0,0,0,1,0]","location_rts":"[647,503,156,340,201,283,1497,187,347,279,1234]","trial_type":"two-door-navigation","trial_index":28,"time_elapsed":347959,"internal_node_id":"0.0-2.0-26.0"},{"group":"hexagon_tri","room_assignment":["purple","red","grey","green","yellow","blue"],"door_color_assignment":["white","black"],"door_generator_assignment":[1,0],"goal":3,"start":2,"action_noise":0.15,"location_history":"[2,3]","action_history":"[1]","door_history":"[0]","location_rts":"[758]","trial_type":"two-door-navigation","trial_index":29,"time_elapsed":353239,"internal_node_id":"0.0-2.0-27.0"},{"group":"hexagon_tri","room_assignment":["purple","red","grey","green","yellow","blue"],"door_color_assignment":["white","black"],"door_generator_assignment":[1,0],"goal":0,"start":3,"action_noise":0.15,"location_history":"[3,4,0]","action_history":"[1,0]","door_history":"[0,1]","location_rts":"[1727,171]","trial_type":"two-door-navigation","trial_index":30,"time_elapsed":360677,"internal_node_id":"0.0-2.0-28.0"},{"group":"hexagon_tri","room_assignment":["purple","red","grey","green","yellow","blue"],"door_color_assignment":["white","black"],"door_generator_assignment":[1,0],"goal":1,"start":0,"action_noise":0.15,"location_history":"[0,1]","action_history":"[1]","door_history":"[0]","location_rts":"[624]","trial_type":"two-door-navigation","trial_index":31,"time_elapsed":365825,"internal_node_id":"0.0-2.0-29.0"},{"group":"hexagon_tri","room_assignment":["purple","red","grey","green","yellow","blue"],"door_color_assignment":["white","black"],"door_generator_assignment":[1,0],"goal":4,"start":1,"action_noise":0.15,"location_history":"[1,3,2,3,2,3,4]","action_history":"[0,0,1,1,1,1]","door_history":"[1,1,0,0,0,0]","location_rts":"[351,532,892,447,159,483]","trial_type":"two-door-navigation","trial_index":32,"time_elapsed":378313,"internal_node_id":"0.0-2.0-30.0"},{"group":"hexagon_tri","room_assignment":["purple","red","grey","green","yellow","blue"],"door_color_assignment":["white","black"],"door_generator_assignment":[1,0],"goal":5,"start":4,"action_noise":0.15,"location_history":"[4,0,5]","action_history":"[0,0]","door_history":"[1,1]","location_rts":"[947,14]","trial_type":"two-door-navigation","trial_index":33,"time_elapsed":384825,"internal_node_id":"0.0-2.0-31.0"},{"group":"hexagon_tri","room_assignment":["purple","red","grey","green","yellow","blue"],"door_color_assignment":["white","black"],"door_generator_assignment":[1,0],"goal":0,"start":5,"action_noise":0.15,"location_history":"[5,4,2,3,2,1,5,4,0]","action_history":"[1,1,0,0,1,1,1,1]","door_history":"[0,0,1,1,0,0,0,0]","location_rts":"[939,627,334,85,783,792,597,1016]","trial_type":"two-door-navigation","trial_index":34,"time_elapsed":401663,"internal_node_id":"0.0-2.0-32.0"},{"group":"hexagon_tri","room_assignment":["purple","red","grey","green","yellow","blue"],"door_color_assignment":["white","black"],"door_generator_assignment":[1,0],"goal":3,"start":0,"action_noise":0.15,"location_history":"[0,1,5,0,1,3]","action_history":"[1,1,1,1,0]","door_history":"[0,0,0,0,1]","location_rts":"[1472,155,3612,1194,1896]","trial_type":"two-door-navigation","trial_index":35,"time_elapsed":418605,"internal_node_id":"0.0-2.0-33.0"},{"group":"hexagon_tri","room_assignment":["purple","red","grey","green","yellow","blue"],"door_color_assignment":["white","black"],"door_generator_assignment":[1,0],"goal":1,"start":3,"action_noise":0.15,"location_history":"[3,4,2,3,2,1]","action_history":"[1,1,0,0,0]","door_history":"[0,0,1,1,1]","location_rts":"[637,0,1719,546,722]","trial_type":"two-door-navigation","trial_index":36,"time_elapsed":430839,"internal_node_id":"0.0-2.0-34.0"},{"group":"hexagon_tri","room_assignment":["purple","red","grey","green","yellow","blue"],"door_color_assignment":["white","black"],"door_generator_assignment":[1,0],"goal":2,"start":1,"action_noise":0.15,"location_history":"[1,5,0,5,4,0,5,0,1,5,0,1,3,4,2]","action_history":"[1,1,0,0,0,1,1,1,1,1,1,0,1,0]","door_history":"[0,0,1,1,1,0,0,0,0,0,0,1,0,1]","location_rts":"[678,1722,3,265,208,809,587,436,892,635,1610,634,388,153]","trial_type":"two-door-navigation","trial_index":37,"time_elapsed":457650,"internal_node_id":"0.0-2.0-35.0"},{"group":"hexagon_tri","room_assignment":["purple","red","grey","green","yellow","blue"],"door_color_assignment":["white","black"],"door_generator_assignment":[1,0],"goal":4,"start":2,"action_noise":0.15,"location_history":"[2,3,4]","action_history":"[1,1]","door_history":"[0,0]","location_rts":"[301,2272]","trial_type":"two-door-navigation","trial_index":38,"time_elapsed":465770,"internal_node_id":"0.0-2.0-36.0"},{"group":"hexagon_tri","room_assignment":["purple","red","grey","green","yellow","blue"],"door_color_assignment":["white","black"],"door_generator_assignment":[1,0],"goal":5,"start":4,"action_noise":0.15,"location_history":"[4,2,1,3,4,2,3,2,1,3,2,3,4,0,1,3,2,3,2,3,2,1,3,4,2,3,4,0,5]","action_history":"[0,0,0,1,1,0,0,0,0,0,1,1,1,1,1,1,1,1,1,0,0,0,1,1,1,0,0,0]","door_history":"[1,1,1,0,0,1,1,1,1,1,0,0,0,0,0,0,0,0,0,1,1,1,0,0,0,1,1,1]","location_rts":"[679,490,391,835,16,1809,16,556,0,36,2130,623,632,377,632,120,42,31,260,1204,21,491,960,785,495,1275,16,39]","trial_type":"two-door-navigation","trial_index":39,"time_elapsed":512815,"internal_node_id":"0.0-2.0-37.0"},{"group":"hexagon_tri","room_assignment":["purple","red","grey","green","yellow","blue"],"door_color_assignment":["white","black"],"door_generator_assignment":[1,0],"goal":1,"start":5,"action_noise":0.15,"location_history":"[5,0,1]","action_history":"[1,1]","door_history":"[0,0]","location_rts":"[2135,761]","trial_type":"two-door-navigation","trial_index":40,"time_elapsed":521256,"internal_node_id":"0.0-2.0-38.0"},{"group":"hexagon_tri","room_assignment":["purple","red","grey","green","yellow","blue"],"door_color_assignment":["white","black"],"door_generator_assignment":[1,0],"goal":4,"start":1,"action_noise":0.15,"location_history":"[1,3,2,1,3,4]","action_history":"[0,0,0,0,1]","door_history":"[1,1,1,1,0]","location_rts":"[1212,762,424,831,1604]","trial_type":"two-door-navigation","trial_index":41,"time_elapsed":534695,"internal_node_id":"0.0-2.0-39.0"},{"group":"hexagon_tri","room_assignment":["purple","red","grey","green","yellow","blue"],"door_color_assignment":["white","black"],"door_generator_assignment":[1,0],"goal":3,"start":4,"action_noise":0.15,"location_history":"[4,0,5,0,1,3]","action_history":"[0,0,1,1,1]","door_history":"[1,1,0,0,0]","location_rts":"[682,142,598,549,997]","trial_type":"two-door-navigation","trial_index":42,"time_elapsed":546262,"internal_node_id":"0.0-2.0-40.0"},{"group":"hexagon_tri","room_assignment":["purple","red","grey","green","yellow","blue"],"door_color_assignment":["white","black"],"door_generator_assignment":[1,0],"goal":2,"start":3,"action_noise":0.15,"location_history":"[3,2]","action_history":"[0]","door_history":"[1]","location_rts":"[998]","trial_type":"two-door-navigation","trial_index":43,"time_elapsed":551783,"internal_node_id":"0.0-2.0-41.0"},{"group":"hexagon_tri","room_assignment":["purple","red","grey","green","yellow","blue"],"door_color_assignment":["white","black"],"door_generator_assignment":[1,0],"goal":0,"start":2,"action_noise":0.15,"location_history":"[2,1,3,2,3,4,2,3,2,1,3,4,0]","action_history":"[0,0,0,1,1,1,1,0,0,0,1,0]","door_history":"[1,1,1,0,0,0,0,1,1,1,0,1]","location_rts":"[485,987,927,493,545,1646,127,230,140,156,734,15]","trial_type":"two-door-navigation","trial_index":44,"time_elapsed":574026,"internal_node_id":"0.0-2.0-42.0"},{"group":"hexagon_tri","room_assignment":["purple","red","grey","green","yellow","blue"],"door_color_assignment":["white","black"],"door_generator_assignment":[1,0],"goal":5,"start":0,"action_noise":0.15,"location_history":"[0,1,5]","action_history":"[1,1]","door_history":"[0,0]","location_rts":"[899,637]","trial_type":"two-door-navigation","trial_index":45,"time_elapsed":581106,"internal_node_id":"0.0-2.0-43.0"},{"group":"hexagon_tri","room_assignment":["purple","red","grey","green","yellow","blue"],"door_color_assignment":["white","black"],"door_generator_assignment":[1,0],"goal":0,"start":5,"action_noise":0.15,"location_history":"[5,0]","action_history":"[1]","door_history":"[0]","location_rts":"[1854]","trial_type":"two-door-navigation","trial_index":46,"time_elapsed":587484,"internal_node_id":"0.0-2.0-44.0"},{"group":"hexagon_tri","room_assignment":["purple","red","grey","green","yellow","blue"],"door_color_assignment":["white","black"],"door_generator_assignment":[1,0],"goal":2,"start":0,"action_noise":0.15,"location_history":"[0,1,3,4,2]","action_history":"[1,0,0,0]","door_history":"[0,1,1,1]","location_rts":"[1245,783,379,434]","trial_type":"two-door-navigation","trial_index":47,"time_elapsed":597912,"internal_node_id":"0.0-2.0-45.0"},{"group":"hexagon_tri","room_assignment":["purple","red","grey","green","yellow","blue"],"door_color_assignment":["white","black"],"door_generator_assignment":[1,0],"goal":4,"start":2,"action_noise":0.15,"location_history":"[2,3,2,1,5,0,1,3,2,3,4]","action_history":"[1,0,0,1,1,1,0,0,1,1]","door_history":"[0,1,1,0,0,0,1,1,0,0]","location_rts":"[1214,1114,429,1202,26,157,493,40,1733,25]","trial_type":"two-door-navigation","trial_index":48,"time_elapsed":618042,"internal_node_id":"0.0-2.0-46.0"},{"group":"hexagon_tri","room_assignment":["purple","red","grey","green","yellow","blue"],"door_color_assignment":["white","black"],"door_generator_assignment":[1,0],"goal":1,"start":4,"action_noise":0.15,"location_history":"[4,0,1]","action_history":"[0,0]","door_history":"[1,1]","location_rts":"[1625,259]","trial_type":"two-door-navigation","trial_index":49,"time_elapsed":625471,"internal_node_id":"0.0-2.0-47.0"},{"group":"hexagon_tri","room_assignment":["purple","red","grey","green","yellow","blue"],"door_color_assignment":["white","black"],"door_generator_assignment":[1,0],"goal":5,"start":1,"action_noise":0.15,"location_history":"[1,3,2,1,5]","action_history":"[1,0,0,1]","door_history":"[0,1,1,0]","location_rts":"[1069,1478,944,1525]","trial_type":"two-door-navigation","trial_index":50,"time_elapsed":638073,"internal_node_id":"0.0-2.0-48.0"},{"group":"hexagon_tri","room_assignment":["purple","red","grey","green","yellow","blue"],"door_color_assignment":["white","black"],"door_generator_assignment":[1,0],"goal":3,"start":5,"action_noise":0.15,"location_history":"[5,4,0,1,5,0,1,5,0,5,0,1,3]","action_history":"[0,0,0,1,1,1,1,1,1,1,1,0]","door_history":"[1,1,1,0,0,0,0,0,0,0,0,1]","location_rts":"[3526,101,54,1432,1026,102,1215,106,97,635,29,871]","trial_type":"two-door-navigation","trial_index":51,"time_elapsed":663008,"internal_node_id":"0.0-2.0-49.0"},{"view_history":"[{\"page_index\":0,\"viewing_time\":2028}]","rt":2029,"trial_type":"instructions","trial_index":52,"time_elapsed":666038,"internal_node_id":"0.0-3.0"},{"view_history":"[{\"page_index\":0,\"viewing_time\":1903},{\"page_index\":1,\"viewing_time\":1577}]","rt":3480,"trial_type":"instructions","trial_index":53,"time_elapsed":670518,"internal_node_id":"0.0-4.0"},{"group":"hexagon_bi","fractal_assignment":["../images/org_blu.png","../images/gry_blk.png","../images/ylw_slt.png","../images/blu_wht.png","../images/pnk_blu.png","../images/cyn_red.png"],"mutagen_generator_assignment":[1,0],"goal":3,"start":5,"action_noise":0.15,"location_history":"[5,4,3]","action_history":"[1,0]","mutagen_history":"[0,1]","location_rts":"[5112,794]","trial_type":"fractal-mutation","trial_index":54,"time_elapsed":682004,"internal_node_id":"0.0-5.0-0.0"},{"group":"hexagon_bi","fractal_assignment":["../images/org_blu.png","../images/gry_blk.png","../images/ylw_slt.png","../images/blu_wht.png","../images/pnk_blu.png","../images/cyn_red.png"],"mutagen_generator_assignment":[1,0],"goal":1,"start":3,"action_noise":0.15,"location_history":"[3,2,1]","action_history":"[1,0]","mutagen_history":"[0,1]","location_rts":"[473,447]","trial_type":"fractal-mutation","trial_index":55,"time_elapsed":688500,"internal_node_id":"0.0-5.0-1.0"},{"group":"hexagon_bi","fractal_assignment":["../images/org_blu.png","../images/gry_blk.png","../images/ylw_slt.png","../images/blu_wht.png","../images/pnk_blu.png","../images/cyn_red.png"],"mutagen_generator_assignment":[1,0],"goal":0,"start":1,"action_noise":0.15,"location_history":"[1,0]","action_history":"[1]","mutagen_history":"[0]","location_rts":"[559]","trial_type":"fractal-mutation","trial_index":56,"time_elapsed":693595,"internal_node_id":"0.0-5.0-2.0"},{"group":"hexagon_bi","fractal_assignment":["../images/org_blu.png","../images/gry_blk.png","../images/ylw_slt.png","../images/blu_wht.png","../images/pnk_blu.png","../images/cyn_red.png"],"mutagen_generator_assignment":[1,0],"goal":3,"start":0,"action_noise":0.15,"location_history":"[0,5,0,5,0,1,2,1,2,1,2,1,2,1,0,1,0,1,2,3]","action_history":"[0,0,0,0,0,0,0,0,0,0,0,0,0,0,1,1,1,1,1]","mutagen_history":"[1,1,1,1,1,1,1,1,1,1,1,1,1,1,0,0,0,0,0]","location_rts":"[432,173,21,200,203,195,166,45,1,175,97,94,373,30,182,870,31,206,74]","trial_type":"fractal-mutation","trial_index":57,"time_elapsed":720325,"internal_node_id":"0.0-5.0-3.0"},{"group":"hexagon_bi","fractal_assignment":["../images/org_blu.png","../images/gry_blk.png","../images/ylw_slt.png","../images/blu_wht.png","../images/pnk_blu.png","../images/cyn_red.png"],"mutagen_generator_assignment":[1,0],"goal":4,"start":3,"action_noise":0.15,"location_history":"[3,4]","action_history":"[0]","mutagen_history":"[1]","location_rts":"[518]","trial_type":"fractal-mutation","trial_index":58,"time_elapsed":725390,"internal_node_id":"0.0-5.0-4.0"},{"group":"hexagon_bi","fractal_assignment":["../images/org_blu.png","../images/gry_blk.png","../images/ylw_slt.png","../images/blu_wht.png","../images/pnk_blu.png","../images/cyn_red.png"],"mutagen_generator_assignment":[1,0],"goal":2,"start":4,"action_noise":0.15,"location_history":"[4,5,4,5,4,5,4,3,4,5,0,5,0,5,4,5,4,5,0,1,2]","action_history":"[1,1,1,1,1,1,0,0,0,0,0,0,0,1,1,1,1,1,1,0]","mutagen_history":"[0,0,0,0,0,0,1,1,1,1,1,1,1,0,0,0,0,0,0,1]","location_rts":"[738,353,123,332,4967,337,932,92,13,38,240,345,327,126,1230,1444,1522,1117,58,286]","trial_type":"fractal-mutation","trial_index":59,"time_elapsed":764125,"internal_node_id":"0.0-5.0-5.0"},{"group":"hexagon_bi","fractal_assignment":["../images/org_blu.png","../images/gry_blk.png","../images/ylw_slt.png","../images/blu_wht.png","../images/pnk_blu.png","../images/cyn_red.png"],"mutagen_generator_assignment":[1,0],"goal":1,"start":2,"action_noise":0.15,"location_history":"[2,1]","action_history":"[0]","mutagen_history":"[1]","location_rts":"[3553]","trial_type":"fractal-mutation","trial_index":60,"time_elapsed":772215,"internal_node_id":"0.0-5.0-6.0"},{"group":"hexagon_bi","fractal_assignment":["../images/org_blu.png","../images/gry_blk.png","../images/ylw_slt.png","../images/blu_wht.png","../images/pnk_blu.png","../images/cyn_red.png"],"mutagen_generator_assignment":[1,0],"goal":5,"start":1,"action_noise":0.15,"location_history":"[1,0,1,0,1,0,5]","action_history":"[1,1,1,1,1,1]","mutagen_history":"[0,0,0,0,0,0]","location_rts":"[2468,903,943,119,486,456]","trial_type":"fractal-mutation","trial_index":61,"time_elapsed":787262,"internal_node_id":"0.0-5.0-7.0"},{"group":"hexagon_bi","fractal_assignment":["../images/org_blu.png","../images/gry_blk.png","../images/ylw_slt.png","../images/blu_wht.png","../images/pnk_blu.png","../images/cyn_red.png"],"mutagen_generator_assignment":[1,0],"goal":4,"start":5,"action_noise":0.15,"location_history":"[5,4]","action_history":"[1]","mutagen_history":"[0]","location_rts":"[3420]","trial_type":"fractal-mutation","trial_index":62,"time_elapsed":795211,"internal_node_id":"0.0-5.0-8.0"},{"group":"hexagon_bi","fractal_assignment":["../images/org_blu.png","../images/gry_blk.png","../images/ylw_slt.png","../images/blu_wht.png","../images/pnk_blu.png","../images/cyn_red.png"],"mutagen_generator_assignment":[1,0],"goal":2,"start":4,"action_noise":0.15,"location_history":"[4,5,4,5,4,5,0,5,4,5,4,5,0,1,2]","action_history":"[1,1,1,1,1,0,1,1,1,1,1,1,1,1]","mutagen_history":"[0,0,0,0,0,1,0,0,0,0,0,0,0,0]","location_rts":"[3901,7,4492,410,271,1442,10105,37,301,3,14,271,5,132]","trial_type":"fractal-mutation","trial_index":63,"time_elapsed":834526,"internal_node_id":"0.0-5.0-9.0"},{"group":"hexagon_bi","fractal_assignment":["../images/org_blu.png","../images/gry_blk.png","../images/ylw_slt.png","../images/blu_wht.png","../images/pnk_blu.png","../images/cyn_red.png"],"mutagen_generator_assignment":[1,0],"goal":0,"start":2,"action_noise":0.15,"location_history":"[2,1,2,1,2,1,0]","action_history":"[0,0,0,0,0,1]","mutagen_history":"[1,1,1,1,1,0]","location_rts":"[412,8,165,275,209,303]","trial_type":"fractal-mutation","trial_index":64,"time_elapsed":845620,"internal_node_id":"0.0-5.0-10.0"},{"group":"hexagon_bi","fractal_assignment":["../images/org_blu.png","../images/gry_blk.png","../images/ylw_slt.png","../images/blu_wht.png","../images/pnk_blu.png","../images/cyn_red.png"],"mutagen_generator_assignment":[1,0],"goal":1,"start":0,"action_noise":0.15,"location_history":"[0,1]","action_history":"[1]","mutagen_history":"[0]","location_rts":"[564]","trial_type":"fractal-mutation","trial_index":65,"time_elapsed":850713,"internal_node_id":"0.0-5.0-11.0"},{"group":"hexagon_bi","fractal_assignment":["../images/org_blu.png","../images/gry_blk.png","../images/ylw_slt.png","../images/blu_wht.png","../images/pnk_blu.png","../images/cyn_red.png"],"mutagen_generator_assignment":[1,0],"goal":3,"start":1,"action_noise":0.15,"location_history":"[1,0,5,4,5,4,3]","action_history":"[1,0,1,1,1,0]","mutagen_history":"[0,1,0,0,0,1]","location_rts":"[608,349,202,49,305,122]","trial_type":"fractal-mutation","trial_index":66,"time_elapsed":862027,"internal_node_id":"0.0-5.0-12.0"},{"group":"hexagon_bi","fractal_assignment":["../images/org_blu.png","../images/gry_blk.png","../images/ylw_slt.png","../images/blu_wht.png","../images/pnk_blu.png","../images/cyn_red.png"],"mutagen_generator_assignment":[1,0],"goal":5,"start":3,"action_noise":0.15,"location_history":"[3,2,1,0,1,2,1,2,3,4,5]","action_history":"[1,0,1,1,0,0,0,0,0,0]","mutagen_history":"[0,1,0,0,1,1,1,1,1,1]","location_rts":"[1173,347,222,593,221,326,194,308,1,367]","trial_type":"fractal-mutation","trial_index":67,"time_elapsed":879628,"internal_node_id":"0.0-5.0-13.0"},{"group":"hexagon_bi","fractal_assignment":["../images/org_blu.png","../images/gry_blk.png","../images/ylw_slt.png","../images/blu_wht.png","../images/pnk_blu.png","../images/cyn_red.png"],"mutagen_generator_assignment":[1,0],"goal":4,"start":5,"action_noise":0.15,"location_history":"[5,0,5,0,5,0,1,0,5,4]","action_history":"[0,0,0,0,0,1,1,0,1]","mutagen_history":"[1,1,1,1,1,0,0,1,0]","location_rts":"[2972,113,138,9,136,87,18,126,56]","trial_type":"fractal-mutation","trial_index":68,"time_elapsed":896087,"internal_node_id":"0.0-5.0-14.0"},{"group":"hexagon_bi","fractal_assignment":["../images/org_blu.png","../images/gry_blk.png","../images/ylw_slt.png","../images/blu_wht.png","../images/pnk_blu.png","../images/cyn_red.png"],"mutagen_generator_assignment":[1,0],"goal":0,"start":4,"action_noise":0.15,"location_history":"[4,3,4,5,4,5,0]","action_history":"[0,0,0,1,1,0]","mutagen_history":"[1,1,1,0,0,1]","location_rts":"[413,127,119,1384,190,97]","trial_type":"fractal-mutation","trial_index":69,"time_elapsed":908116,"internal_node_id":"0.0-5.0-15.0"},{"group":"hexagon_bi","fractal_assignment":["../images/org_blu.png","../images/gry_blk.png","../images/ylw_slt.png","../images/blu_wht.png","../images/pnk_blu.png","../images/cyn_red.png"],"mutagen_generator_assignment":[1,0],"goal":3,"start":0,"action_noise":0.15,"location_history":"[0,5,0,1,2,3]","action_history":"[0,0,0,1,1]","mutagen_history":"[1,1,1,0,0]","location_rts":"[477,91,229,112,362]","trial_type":"fractal-mutation","trial_index":70,"time_elapsed":918047,"internal_node_id":"0.0-5.0-16.0"},{"group":"hexagon_bi","fractal_assignment":["../images/org_blu.png","../images/gry_blk.png","../images/ylw_slt.png","../images/blu_wht.png","../images/pnk_blu.png","../images/cyn_red.png"],"mutagen_generator_assignment":[1,0],"goal":1,"start":3,"action_noise":0.15,"location_history":"[3,4,3,4,3,2,3,4,5,0,1]","action_history":"[0,0,0,0,1,0,0,0,1,1]","mutagen_history":"[1,1,1,1,0,1,1,1,0,0]","location_rts":"[530,216,205,116,155,92,107,195,78,265]","trial_type":"fractal-mutation","trial_index":71,"time_elapsed":933846,"internal_node_id":"0.0-5.0-17.0"},{"group":"hexagon_bi","fractal_assignment":["../images/org_blu.png","../images/gry_blk.png","../images/ylw_slt.png","../images/blu_wht.png","../images/pnk_blu.png","../images/cyn_red.png"],"mutagen_generator_assignment":[1,0],"goal":5,"start":1,"action_noise":0.15,"location_history":"[1,2,1,2,3,4,5]","action_history":"[0,0,0,1,0,0]","mutagen_history":"[1,1,1,0,1,1]","location_rts":"[475,22,1118,151,85,9]","trial_type":"fractal-mutation","trial_index":72,"time_elapsed":945416,"internal_node_id":"0.0-5.0-18.0"},{"group":"hexagon_bi","fractal_assignment":["../images/org_blu.png","../images/gry_blk.png","../images/ylw_slt.png","../images/blu_wht.png","../images/pnk_blu.png","../images/cyn_red.png"],"mutagen_generator_assignment":[1,0],"goal":2,"start":5,"action_noise":0.15,"location_history":"[5,0,5,4,5,4,3,4,3,4,3,2]","action_history":"[0,0,0,1,1,1,0,0,0,0,0]","mutagen_history":"[1,1,1,0,0,0,1,1,1,1,1]","location_rts":"[1169,198,737,150,201,112,1741,152,199,245,167]","trial_type":"fractal-mutation","trial_index":73,"time_elapsed":965362,"internal_node_id":"0.0-5.0-19.0"},{"group":"hexagon_bi","fractal_assignment":["../images/org_blu.png","../images/gry_blk.png","../images/ylw_slt.png","../images/blu_wht.png","../images/pnk_blu.png","../images/cyn_red.png"],"mutagen_generator_assignment":[1,0],"goal":4,"start":2,"action_noise":0.15,"location_history":"[2,3,4]","action_history":"[0,0]","mutagen_history":"[1,1]","location_rts":"[151,80]","trial_type":"fractal-mutation","trial_index":74,"time_elapsed":971161,"internal_node_id":"0.0-5.0-20.0"},{"group":"hexagon_bi","fractal_assignment":["../images/org_blu.png","../images/gry_blk.png","../images/ylw_slt.png","../images/blu_wht.png","../images/pnk_blu.png","../images/cyn_red.png"],"mutagen_generator_assignment":[1,0],"goal":1,"start":4,"action_noise":0.15,"location_history":"[4,3,4,5,0,5,0,1]","action_history":"[0,1,0,0,1,0,1]","mutagen_history":"[1,0,1,1,0,1,0]","location_rts":"[720,378,36,56,98,1016,69]","trial_type":"fractal-mutation","trial_index":75,"time_elapsed":984264,"internal_node_id":"0.0-5.0-21.0"},{"group":"hexagon_bi","fractal_assignment":["../images/org_blu.png","../images/gry_blk.png","../images/ylw_slt.png","../images/blu_wht.png","../images/pnk_blu.png","../images/cyn_red.png"],"mutagen_generator_assignment":[1,0],"goal":3,"start":1,"action_noise":0.15,"location_history":"[1,0,5,0,1,2,3]","action_history":"[0,0,0,1,1,1]","mutagen_history":"[1,1,1,0,0,0]","location_rts":"[473,122,652,203,131,326]","trial_type":"fractal-mutation","trial_index":76,"time_elapsed":995864,"internal_node_id":"0.0-5.0-22.0"},{"group":"hexagon_bi","fractal_assignment":["../images/org_blu.png","../images/gry_blk.png","../images/ylw_slt.png","../images/blu_wht.png","../images/pnk_blu.png","../images/cyn_red.png"],"mutagen_generator_assignment":[1,0],"goal":2,"start":3,"action_noise":0.15,"location_history":"[3,4,3,4,5,4,3,4,5,4,3,4,3,2]","action_history":"[0,0,1,0,0,0,1,1,1,0,0,0,0]","mutagen_history":"[1,1,0,1,1,1,0,0,0,1,1,1,1]","location_rts":"[26,259,181,49,216,100,268,60,105,1035,128,198,97]","trial_type":"fractal-mutation","trial_index":77,"time_elapsed":1015501,"internal_node_id":"0.0-5.0-23.0"},{"group":"hexagon_bi","fractal_assignment":["../images/org_blu.png","../images/gry_blk.png","../images/ylw_slt.png","../images/blu_wht.png","../images/pnk_blu.png","../images/cyn_red.png"],"mutagen_generator_assignment":[1,0],"goal":0,"start":2,"action_noise":0.15,"location_history":"[2,1,2,3,4,3,2,3,2,1,0]","action_history":"[0,0,1,0,0,0,1,1,0,1]","mutagen_history":"[1,1,0,1,1,1,0,0,1,0]","location_rts":"[1635,184,113,141,41,124,78,139,215,7122]","trial_type":"fractal-mutation","trial_index":78,"time_elapsed":1039111,"internal_node_id":"0.0-5.0-24.0"},{"group":"hexagon_bi","fractal_assignment":["../images/org_blu.png","../images/gry_blk.png","../images/ylw_slt.png","../images/blu_wht.png","../images/pnk_blu.png","../images/cyn_red.png"],"mutagen_generator_assignment":[1,0],"goal":5,"start":0,"action_noise":0.15,"location_history":"[0,1,0,1,2,1,2,1,2,1,2,1,2,1,2,1,2,3,4,3,4,3,2,1,2,3,4,3,4,3,4,3,4,5]","action_history":"[1,1,1,0,0,0,0,0,0,0,0,0,0,0,0,0,0,0,0,0,0,0,0,0,0,1,0,0,0,0,0,0,0]","mutagen_history":"[0,0,0,1,1,1,1,1,1,1,1,1,1,1,1,1,1,1,1,1,1,1,1,1,1,0,1,1,1,1,1,1,1]","location_rts":"[409,610,352,2403,74,27,128,33464,58,168,152,15830,3678,114,4185,560,3,396,736,999,287,389,1023,140,774,8,187,4518,1058,2854,741,160,6978]","trial_type":"fractal-mutation","trial_index":79,"time_elapsed":1161320,"internal_node_id":"0.0-5.0-25.0"},{"group":"hexagon_bi","fractal_assignment":["../images/org_blu.png","../images/gry_blk.png","../images/ylw_slt.png","../images/blu_wht.png","../images/pnk_blu.png","../images/cyn_red.png"],"mutagen_generator_assignment":[1,0],"goal":2,"start":5,"action_noise":0.15,"location_history":"[5,0,5,4,5,0,1,2]","action_history":"[0,0,1,1,0,1,0]","mutagen_history":"[1,1,0,0,1,0,1]","location_rts":"[2440,70,244,65,37,4,195]","trial_type":"fractal-mutation","trial_index":80,"time_elapsed":1175118,"internal_node_id":"0.0-5.0-26.0"},{"group":"hexagon_bi","fractal_assignment":["../images/org_blu.png","../images/gry_blk.png","../images/ylw_slt.png","../images/blu_wht.png","../images/pnk_blu.png","../images/cyn_red.png"],"mutagen_generator_assignment":[1,0],"goal":3,"start":2,"action_noise":0.15,"location_history":"[2,1,2,3]","action_history":"[1,1,0]","mutagen_history":"[0,0,1]","location_rts":"[1788,296,66]","trial_type":"fractal-mutation","trial_index":81,"time_elapsed":1183862,"internal_node_id":"0.0-5.0-27.0"},{"group":"hexagon_bi","fractal_assignment":["../images/org_blu.png","../images/gry_blk.png","../images/ylw_slt.png","../images/blu_wht.png","../images/pnk_blu.png","../images/cyn_red.png"],"mutagen_generator_assignment":[1,0],"goal":0,"start":3,"action_noise":0.15,"location_history":"[3,2,1,0]","action_history":"[0,0,1]","mutagen_history":"[1,1,0]","location_rts":"[801,386,206]","trial_type":"fractal-mutation","trial_index":82,"time_elapsed":1191866,"internal_node_id":"0.0-5.0-28.0"},{"group":"hexagon_bi","fractal_assignment":["../images/org_blu.png","../images/gry_blk.png","../images/ylw_slt.png","../images/blu_wht.png","../images/pnk_blu.png","../images/cyn_red.png"],"mutagen_generator_assignment":[1,0],"goal":1,"start":0,"action_noise":0.15,"location_history":"[0,1]","action_history":"[1]","mutagen_history":"[0]","location_rts":"[357]","trial_type":"fractal-mutation","trial_index":83,"time_elapsed":1196757,"internal_node_id":"0.0-5.0-29.0"},{"group":"hexagon_bi","fractal_assignment":["../images/org_blu.png","../images/gry_blk.png","../images/ylw_slt.png","../images/blu_wht.png","../images/pnk_blu.png","../images/cyn_red.png"],"mutagen_generator_assignment":[1,0],"goal":4,"start":1,"action_noise":0.15,"location_history":"[1,2,3,2,1,2,1,2,1,2,1,0,1,0,1,0,1,0,5,0,1,2,3,2,1,2,1,2,1,2,1,2,1,2,1,0,5,4]","action_history":"[1,1,1,0,0,0,0,0,0,0,1,1,1,1,1,1,0,0,0,1,1,0,1,0,0,0,0,0,0,0,0,0,0,0,0,0,1]","mutagen_history":"[0,0,0,1,1,1,1,1,1,1,0,0,0,0,0,0,1,1,1,0,0,1,0,1,1,1,1,1,1,1,1,1,1,1,1,1,0]","location_rts":"[335,606,276,440,74,8,147,282,153,127,4,9816,1530,252,149,423,76,95,181,308,65,73,295,8021,152,114,265,4933,134,52,143,82,111,88,111,119,293]","trial_type":"fractal-mutation","trial_index":84,"time_elapsed":1268836,"internal_node_id":"0.0-5.0-30.0"},{"group":"hexagon_bi","fractal_assignment":["../images/org_blu.png","../images/gry_blk.png","../images/ylw_slt.png","../images/blu_wht.png","../images/pnk_blu.png","../images/cyn_red.png"],"mutagen_generator_assignment":[1,0],"goal":5,"start":4,"action_noise":0.15,"location_history":"[4,3,2,3,2,1,0,5]","action_history":"[1,0,0,1,0,0,0]","mutagen_history":"[0,1,1,0,1,1,1]","location_rts":"[307,139,129,134,133,99,130]","trial_type":"fractal-mutation","trial_index":85,"time_elapsed":1280650,"internal_node_id":"0.0-5.0-31.0"},{"group":"hexagon_bi","fractal_assignment":["../images/org_blu.png","../images/gry_blk.png","../images/ylw_slt.png","../images/blu_wht.png","../images/pnk_blu.png","../images/cyn_red.png"],"mutagen_generator_assignment":[1,0],"goal":0,"start":5,"action_noise":0.15,"location_history":"[5,0]","action_history":"[0]","mutagen_history":"[1]","location_rts":"[2876]","trial_type":"fractal-mutation","trial_index":86,"time_elapsed":1288068,"internal_node_id":"0.0-5.0-32.0"},{"group":"hexagon_bi","fractal_assignment":["../images/org_blu.png","../images/gry_blk.png","../images/ylw_slt.png","../images/blu_wht.png","../images/pnk_blu.png","../images/cyn_red.png"],"mutagen_generator_assignment":[1,0],"goal":3,"start":0,"action_noise":0.15,"location_history":"[0,5,0,5,0,1,0,5,0,1,0,5,0,1,2,1,2,3]","action_history":"[0,0,0,0,0,0,0,0,0,0,0,0,0,0,0,0,1]","mutagen_history":"[1,1,1,1,1,1,1,1,1,1,1,1,1,1,1,1,0]","location_rts":"[859,113,188,4383,1806,180,65,306,2010,803,298,231,1512,138,139,463,248]","trial_type":"fractal-mutation","trial_index":87,"time_elapsed":1322897,"internal_node_id":"0.0-5.0-33.0"},{"group":"hexagon_bi","fractal_assignment":["../images/org_blu.png","../images/gry_blk.png","../images/ylw_slt.png","../images/blu_wht.png","../images/pnk_blu.png","../images/cyn_red.png"],"mutagen_generator_assignment":[1,0],"goal":1,"start":3,"action_noise":0.15,"location_history":"[3,4,3,4,3,4,3,4,3,4,3,4,3,4,5,0,1]","action_history":"[0,0,0,0,0,0,0,0,0,0,0,0,0,1,0,0]","mutagen_history":"[1,1,1,1,1,1,1,1,1,1,1,1,1,0,1,1]","location_rts":"[462,23,1014,151,1363,415,419,191,1478,122,110,2962,434,402,879,423]","trial_type":"fractal-mutation","trial_index":88,"time_elapsed":1353768,"internal_node_id":"0.0-5.0-34.0"},{"group":"hexagon_bi","fractal_assignment":["../images/org_blu.png","../images/gry_blk.png","../images/ylw_slt.png","../images/blu_wht.png","../images/pnk_blu.png","../images/cyn_red.png"],"mutagen_generator_assignment":[1,0],"goal":2,"start":1,"action_noise":0.15,"location_history":"[1,2]","action_history":"[0]","mutagen_history":"[1]","location_rts":"[383]","trial_type":"fractal-mutation","trial_index":89,"time_elapsed":1358691,"internal_node_id":"0.0-5.0-35.0"},{"group":"hexagon_bi","fractal_assignment":["../images/org_blu.png","../images/gry_blk.png","../images/ylw_slt.png","../images/blu_wht.png","../images/pnk_blu.png","../images/cyn_red.png"],"mutagen_generator_assignment":[1,0],"goal":4,"start":2,"action_noise":0.15,"location_history":"[2,3,4]","action_history":"[1,0]","mutagen_history":"[0,1]","location_rts":"[476,8]","trial_type":"fractal-mutation","trial_index":90,"time_elapsed":1364741,"internal_node_id":"0.0-5.0-36.0"},{"group":"hexagon_bi","fractal_assignment":["../images/org_blu.png","../images/gry_blk.png","../images/ylw_slt.png","../images/blu_wht.png","../images/pnk_blu.png","../images/cyn_red.png"],"mutagen_generator_assignment":[1,0],"goal":5,"start":4,"action_noise":0.15,"location_history":"[4,3,4,5]","action_history":"[0,0,1]","mutagen_history":"[1,1,0]","location_rts":"[443,206,69]","trial_type":"fractal-mutation","trial_index":91,"time_elapsed":1372060,"internal_node_id":"0.0-5.0-37.0"},{"group":"hexagon_bi","fractal_assignment":["../images/org_blu.png","../images/gry_blk.png","../images/ylw_slt.png","../images/blu_wht.png","../images/pnk_blu.png","../images/cyn_red.png"],"mutagen_generator_assignment":[1,0],"goal":1,"start":5,"action_noise":0.15,"location_history":"[5,0,1]","action_history":"[0,1]","mutagen_history":"[1,0]","location_rts":"[379,154]","trial_type":"fractal-mutation","trial_index":92,"time_elapsed":1378156,"internal_node_id":"0.0-5.0-38.0"},{"group":"hexagon_bi","fractal_assignment":["../images/org_blu.png","../images/gry_blk.png","../images/ylw_slt.png","../images/blu_wht.png","../images/pnk_blu.png","../images/cyn_red.png"],"mutagen_generator_assignment":[1,0],"goal":4,"start":1,"action_noise":0.15,"location_history":"[1,2,1,0,5,0,5,4]","action_history":"[0,1,1,0,0,1,1]","mutagen_history":"[1,0,0,1,1,0,0]","location_rts":"[818,82,209,75,739,109,312]","trial_type":"fractal-mutation","trial_index":93,"time_elapsed":1391224,"internal_node_id":"0.0-5.0-39.0"},{"group":"hexagon_bi","fractal_assignment":["../images/org_blu.png","../images/gry_blk.png","../images/ylw_slt.png","../images/blu_wht.png","../images/pnk_blu.png","../images/cyn_red.png"],"mutagen_generator_assignment":[1,0],"goal":3,"start":4,"action_noise":0.15,"location_history":"[4,5,4,3]","action_history":"[0,1,0]","mutagen_history":"[1,0,1]","location_rts":"[459,31,97]","trial_type":"fractal-mutation","trial_index":94,"time_elapsed":1398427,"internal_node_id":"0.0-5.0-40.0"},{"group":"hexagon_bi","fractal_assignment":["../images/org_blu.png","../images/gry_blk.png","../images/ylw_slt.png","../images/blu_wht.png","../images/pnk_blu.png","../images/cyn_red.png"],"mutagen_generator_assignment":[1,0],"goal":2,"start":3,"action_noise":0.15,"location_history":"[3,2]","action_history":"[0]","mutagen_history":"[1]","location_rts":"[633]","trial_type":"fractal-mutation","trial_index":95,"time_elapsed":1403594,"internal_node_id":"0.0-5.0-41.0"},{"group":"hexagon_bi","fractal_assignment":["../images/org_blu.png","../images/gry_blk.png","../images/ylw_slt.png","../images/blu_wht.png","../images/pnk_blu.png","../images/cyn_red.png"],"mutagen_generator_assignment":[1,0],"goal":0,"start":2,"action_noise":0.15,"location_history":"[2,1,0]","action_history":"[0,1]","mutagen_history":"[1,0]","location_rts":"[892,217]","trial_type":"fractal-mutation","trial_index":96,"time_elapsed":1410268,"internal_node_id":"0.0-5.0-42.0"},{"group":"hexagon_bi","fractal_assignment":["../images/org_blu.png","../images/gry_blk.png","../images/ylw_slt.png","../images/blu_wht.png","../images/pnk_blu.png","../images/cyn_red.png"],"mutagen_generator_assignment":[1,0],"goal":5,"start":0,"action_noise":0.15,"location_history":"[0,1,2,1,2,1,0,5]","action_history":"[1,0,0,0,0,0,0]","mutagen_history":"[0,1,1,1,1,1,1]","location_rts":"[232,296,64,228,141,149,144]","trial_type":"fractal-mutation","trial_index":97,"time_elapsed":1422246,"internal_node_id":"0.0-5.0-43.0"},{"group":"hexagon_bi","fractal_assignment":["../images/org_blu.png","../images/gry_blk.png","../images/ylw_slt.png","../images/blu_wht.png","../images/pnk_blu.png","../images/cyn_red.png"],"mutagen_generator_assignment":[1,0],"goal":0,"start":5,"action_noise":0.15,"location_history":"[5,0]","action_history":"[0]","mutagen_history":"[1]","location_rts":"[577]","trial_type":"fractal-mutation","trial_index":98,"time_elapsed":1427359,"internal_node_id":"0.0-5.0-44.0"},{"group":"hexagon_bi","fractal_assignment":["../images/org_blu.png","../images/gry_blk.png","../images/ylw_slt.png","../images/blu_wht.png","../images/pnk_blu.png","../images/cyn_red.png"],"mutagen_generator_assignment":[1,0],"goal":2,"start":0,"action_noise":0.15,"location_history":"[0,5,4,5,4,3,4,3,4,5,0,5,0,5,4,5,4,3,4,3,4,3,4,5,4,5,4,3,4,3,4,5,0,1,2]","action_history":"[0,1,1,1,0,0,0,0,1,0,0,0,0,1,1,1,0,0,0,0,0,0,1,1,0,0,0,0,0,0,1,0,1,0]","mutagen_history":"[1,0,0,0,1,1,1,1,0,1,1,1,1,0,0,0,1,1,1,1,1,1,0,0,1,1,1,1,1,1,0,1,0,1]","location_rts":"[872,125,170,98,180,99,226,30,15,204,877,124,88,222,346,119,53,72,92,2721,189,75,790,131,130,93,1286,404,82,120,2408,76,123,966]","trial_type":"fractal-mutation","trial_index":99,"time_elapsed":1479553,"internal_node_id":"0.0-5.0-45.0"},{"group":"hexagon_bi","fractal_assignment":["../images/org_blu.png","../images/gry_blk.png","../images/ylw_slt.png","../images/blu_wht.png","../images/pnk_blu.png","../images/cyn_red.png"],"mutagen_generator_assignment":[1,0],"goal":4,"start":2,"action_noise":0.15,"location_history":"[2,1,2,1,2,1,0,5,4]","action_history":"[0,1,1,0,0,1,0,1]","mutagen_history":"[1,0,0,1,1,0,1,0]","location_rts":"[574,402,89,757,533,449,140,7]","trial_type":"fractal-mutation","trial_index":100,"time_elapsed":1494241,"internal_node_id":"0.0-5.0-46.0"},{"group":"hexagon_bi","fractal_assignment":["../images/org_blu.png","../images/gry_blk.png","../images/ylw_slt.png","../images/blu_wht.png","../images/pnk_blu.png","../images/cyn_red.png"],"mutagen_generator_assignment":[1,0],"goal":1,"start":4,"action_noise":0.15,"location_history":"[4,3,4,5,0,1]","action_history":"[0,0,1,0,0]","mutagen_history":"[1,1,0,1,1]","location_rts":"[1758,890,166,225,235]","trial_type":"fractal-mutation","trial_index":101,"time_elapsed":1506190,"internal_node_id":"0.0-5.0-47.0"},{"group":"hexagon_bi","fractal_assignment":["../images/org_blu.png","../images/gry_blk.png","../images/ylw_slt.png","../images/blu_wht.png","../images/pnk_blu.png","../images/cyn_red.png"],"mutagen_generator_assignment":[1,0],"goal":5,"start":1,"action_noise":0.15,"location_history":"[1,2,1,2,1,0,1,0,1,2,3,4,3,4,3,2,3,4,3,4,3,2,1,2,3,4,3,4,3,2,1,0,1,0,5]","action_history":"[0,0,0,0,1,1,1,0,0,1,0,0,0,1,1,1,0,0,0,0,1,0,0,0,0,0,0,0,1,1,1,1,0,0]","mutagen_history":"[1,1,1,1,0,0,0,1,1,0,1,1,1,0,0,0,1,1,1,1,0,1,1,1,1,1,1,1,0,0,0,0,1,1]","location_rts":"[1072,146,134,7,286,195,109,1589,209,145,62,156,80,20,20,17,207,233,354,138,158,42,118,1620,218,15,235,212,203,89,193,97,933,161]","trial_type":"fractal-mutation","trial_index":102,"time_elapsed":1554232,"internal_node_id":"0.0-5.0-48.0"},{"group":"hexagon_bi","fractal_assignment":["../images/org_blu.png","../images/gry_blk.png","../images/ylw_slt.png","../images/blu_wht.png","../images/pnk_blu.png","../images/cyn_red.png"],"mutagen_generator_assignment":[1,0],"goal":3,"start":5,"action_noise":0.15,"location_history":"[5,0,5,0,5,0,5,0,5,4,3]","action_history":"[1,0,0,0,0,0,0,0,0,0]","mutagen_history":"[0,1,1,1,1,1,1,1,1,1]","location_rts":"[181,201,161,49,154,1150,195,121,223,551]","trial_type":"fractal-mutation","trial_index":103,"time_elapsed":1571036,"internal_node_id":"0.0-5.0-49.0"},{"view_history":"[{\"page_index\":0,\"viewing_time\":4708}]","rt":4708,"trial_type":"instructions","trial_index":104,"time_elapsed":1576745,"internal_node_id":"0.0-6.0"},{"rt":1660,"responses":"{\"Q0\":\"\"}","trial_type":"survey-text","trial_index":105,"time_elapsed":1579411,"internal_node_id":"0.0-7.0"}]