[{"view_history":"[{\"page_index\":0,\"viewing_time\":452028},{\"page_index\":1,\"viewing_time\":14727}]","rt":466756,"trial_type":"instructions","trial_index":0,"time_elapsed":466758,"internal_node_id":"0.0-0.0"},{"view_history":"[{\"page_index\":0,\"viewing_time\":1804},{\"page_index\":1,\"viewing_time\":4670}]","rt":6475,"trial_type":"instructions","trial_index":1,"time_elapsed":474235,"internal_node_id":"0.0-1.0"},{"group":"hexagon_bi","room_assignment":["purple","yellow","blue","red","grey","green"],"door_color_assignment":["white","black"],"door_generator_assignment":[0,1],"goal":3,"start":5,"action_noise":0.15,"location_history":"[5,0,5,0,1,2,3]","action_history":"[0,0,0,1,1,1]","door_history":"[0,0,0,1,1,1]","location_rts":"[1881,516,816,469,520,441]","trial_type":"two-door-navigation","trial_index":2,"time_elapsed":488555,"internal_node_id":"0.0-2.0-0.0"},{"group":"hexagon_bi","room_assignment":["purple","yellow","blue","red","grey","green"],"door_color_assignment":["white","black"],"door_generator_assignment":[0,1],"goal":1,"start":3,"action_noise":0.15,"location_history":"[3,2,3,2,1]","action_history":"[1,1,1,0]","door_history":"[1,1,1,0]","location_rts":"[10499,513,361,536]","trial_type":"two-door-navigation","trial_index":3,"time_elapsed":508070,"internal_node_id":"0.0-2.0-1.0"},{"group":"hexagon_bi","room_assignment":["purple","yellow","blue","red","grey","green"],"door_color_assignment":["white","black"],"door_generator_assignment":[0,1],"goal":0,"start":1,"action_noise":0.15,"location_history":"[1,0]","action_history":"[0]","door_history":"[0]","location_rts":"[856]","trial_type":"two-door-navigation","trial_index":4,"time_elapsed":513458,"internal_node_id":"0.0-2.0-2.0"},{"group":"hexagon_bi","room_assignment":["purple","yellow","blue","red","grey","green"],"door_color_assignment":["white","black"],"door_generator_assignment":[0,1],"goal":3,"start":0,"action_noise":0.15,"location_history":"[0,1,2,3]","action_history":"[1,1,1]","door_history":"[1,1,1]","location_rts":"[880,996,662]","trial_type":"two-door-navigation","trial_index":5,"time_elapsed":522585,"internal_node_id":"0.0-2.0-3.0"},{"group":"hexagon_bi","room_assignment":["purple","yellow","blue","red","grey","green"],"door_color_assignment":["white","black"],"door_generator_assignment":[0,1],"goal":4,"start":3,"action_noise":0.15,"location_history":"[3,4]","action_history":"[0]","door_history":"[0]","location_rts":"[1530]","trial_type":"two-door-navigation","trial_index":6,"time_elapsed":528650,"internal_node_id":"0.0-2.0-4.0"},{"group":"hexagon_bi","room_assignment":["purple","yellow","blue","red","grey","green"],"door_color_assignment":["white","black"],"door_generator_assignment":[0,1],"goal":2,"start":4,"action_noise":0.15,"location_history":"[4,5,0,5,0,1,0,5,0,5,0,1,2]","action_history":"[1,0,0,1,1,1,0,0,0,0,0,0]","door_history":"[1,0,0,1,1,1,0,0,0,0,0,0]","location_rts":"[2984,388,653,450,650,620,464,608,481,740,513,468]","trial_type":"two-door-navigation","trial_index":7,"time_elapsed":553485,"internal_node_id":"0.0-2.0-5.0"},{"group":"hexagon_bi","room_assignment":["purple","yellow","blue","red","grey","green"],"door_color_assignment":["white","black"],"door_generator_assignment":[0,1],"goal":1,"start":2,"action_noise":0.15,"location_history":"[2,1]","action_history":"[0]","door_history":"[0]","location_rts":"[1462]","trial_type":"two-door-navigation","trial_index":8,"time_elapsed":559476,"internal_node_id":"0.0-2.0-6.0"},{"group":"hexagon_bi","room_assignment":["purple","yellow","blue","red","grey","green"],"door_color_assignment":["white","black"],"door_generator_assignment":[0,1],"goal":5,"start":1,"action_noise":0.15,"location_history":"[1,0,1,2,1,0,1,0,5]","action_history":"[1,1,0,0,1,1,1,0]","door_history":"[1,1,0,0,1,1,1,0]","location_rts":"[1435,886,530,591,349,414,348,353]","trial_type":"two-door-navigation","trial_index":9,"time_elapsed":576111,"internal_node_id":"0.0-2.0-7.0"},{"group":"hexagon_bi","room_assignment":["purple","yellow","blue","red","grey","green"],"door_color_assignment":["white","black"],"door_generator_assignment":[0,1],"goal":4,"start":5,"action_noise":0.15,"location_history":"[5,0,1,0,1,2,1,2,1,0,1,2,1,2,1,2,1,0,1,0,5,4]","action_history":"[0,1,1,1,0,0,0,0,1,1,1,0,0,0,0,0,1,1,1,0,1]","door_history":"[0,1,1,1,0,0,0,0,1,1,1,0,0,0,0,0,1,1,1,0,1]","location_rts":"[956,697,557,757,337,502,524,349,379,493,486,682,438,300,273,299,687,388,1071,1100,1042]","trial_type":"two-door-navigation","trial_index":10,"time_elapsed":613475,"internal_node_id":"0.0-2.0-8.0"},{"group":"hexagon_bi","room_assignment":["purple","yellow","blue","red","grey","green"],"door_color_assignment":["white","black"],"door_generator_assignment":[0,1],"goal":2,"start":4,"action_noise":0.15,"location_history":"[4,5,4,5,4,3,4,5,0,1,2]","action_history":"[1,1,1,0,0,0,0,0,1,1]","door_history":"[1,1,1,0,0,0,0,0,1,1]","location_rts":"[4491,2863,472,889,480,357,461,648,407,562]","trial_type":"two-door-navigation","trial_index":11,"time_elapsed":639395,"internal_node_id":"0.0-2.0-9.0"},{"group":"hexagon_bi","room_assignment":["purple","yellow","blue","red","grey","green"],"door_color_assignment":["white","black"],"door_generator_assignment":[0,1],"goal":0,"start":2,"action_noise":0.15,"location_history":"[2,1,0]","action_history":"[0,1]","door_history":"[0,1]","location_rts":"[32670,1450]","trial_type":"two-door-navigation","trial_index":12,"time_elapsed":679274,"internal_node_id":"0.0-2.0-10.0"},{"group":"hexagon_bi","room_assignment":["purple","yellow","blue","red","grey","green"],"door_color_assignment":["white","black"],"door_generator_assignment":[0,1],"goal":1,"start":0,"action_noise":0.15,"location_history":"[0,5,0,1]","action_history":"[0,1,1]","door_history":"[0,1,1]","location_rts":"[993,662,661]","trial_type":"two-door-navigation","trial_index":13,"time_elapsed":688160,"internal_node_id":"0.0-2.0-11.0"},{"group":"hexagon_bi","room_assignment":["purple","yellow","blue","red","grey","green"],"door_color_assignment":["white","black"],"door_generator_assignment":[0,1],"goal":3,"start":1,"action_noise":0.15,"location_history":"[1,0,1,0,5,0,5,4,3]","action_history":"[1,1,1,0,0,0,1,1]","door_history":"[1,1,1,0,0,0,1,1]","location_rts":"[5407,505,336,1448,1348,789,332,1229]","trial_type":"two-door-navigation","trial_index":14,"time_elapsed":711270,"internal_node_id":"0.0-2.0-12.0"},{"group":"hexagon_bi","room_assignment":["purple","yellow","blue","red","grey","green"],"door_color_assignment":["white","black"],"door_generator_assignment":[0,1],"goal":5,"start":3,"action_noise":0.15,"location_history":"[3,2,1,2,1,0,1,2,1,0,1,0,1,2,3,4,3,4,3,2,3,4,5]","action_history":"[0,0,0,0,1,1,0,0,1,1,1,1,0,0,0,0,0,1,1,1,1,1]","door_history":"[0,0,0,0,1,1,0,0,1,1,1,1,0,0,0,0,0,1,1,1,1,1]","location_rts":"[4933,650,5456,721,664,48960,152,282,78,6,12,690,579,675,714,332,3041,519,642,626,784,438]","trial_type":"two-door-navigation","trial_index":15,"time_elapsed":808297,"internal_node_id":"0.0-2.0-13.0"},{"group":"hexagon_bi","room_assignment":["purple","yellow","blue","red","grey","green"],"door_color_assignment":["white","black"],"door_generator_assignment":[0,1],"goal":4,"start":5,"action_noise":0.15,"location_history":"[5,4]","action_history":"[0]","door_history":"[0]","location_rts":"[1544]","trial_type":"two-door-navigation","trial_index":16,"time_elapsed":814372,"internal_node_id":"0.0-2.0-14.0"},{"group":"hexagon_bi","room_assignment":["purple","yellow","blue","red","grey","green"],"door_color_assignment":["white","black"],"door_generator_assignment":[0,1],"goal":0,"start":4,"action_noise":0.15,"location_history":"[4,5,0]","action_history":"[1,0]","door_history":"[1,0]","location_rts":"[1147,164]","trial_type":"two-door-navigation","trial_index":17,"time_elapsed":821230,"internal_node_id":"0.0-2.0-15.0"},{"group":"hexagon_bi","room_assignment":["purple","yellow","blue","red","grey","green"],"door_color_assignment":["white","black"],"door_generator_assignment":[0,1],"goal":3,"start":0,"action_noise":0.15,"location_history":"[0,5,0,1,2,1,0,5,0,5,0,1,2,3]","action_history":"[0,0,0,0,0,1,0,0,0,0,1,1,1]","door_history":"[0,0,0,0,0,1,0,0,0,0,1,1,1]","location_rts":"[756,756,988,707,597,2835,913,446,431,537,473,666,465]","trial_type":"two-door-navigation","trial_index":18,"time_elapsed":848661,"internal_node_id":"0.0-2.0-16.0"},{"group":"hexagon_bi","room_assignment":["purple","yellow","blue","red","grey","green"],"door_color_assignment":["white","black"],"door_generator_assignment":[0,1],"goal":1,"start":3,"action_noise":0.15,"location_history":"[3,4,5,4,5,0,5,4,5,4,3,4,3,4,5,4,3,2,3,4,3,4,5,4,5,4,5,0,5,0,5,0,1]","action_history":"[0,1,1,0,0,0,1,1,1,0,0,0,0,0,1,1,1,1,1,0,0,0,0,1,1,1,0,0,0,1,1,1]","door_history":"[0,1,1,0,0,0,1,1,1,0,0,0,0,0,1,1,1,1,1,0,0,0,0,1,1,1,0,0,0,1,1,1]","location_rts":"[586,197,325,1134,1717,1365,410,740,409,367,1451,686,475,335,83,508,333,364,305,244,381,321,309,630,155,882,234,689,521,621,591,49]","trial_type":"two-door-navigation","trial_index":19,"time_elapsed":902450,"internal_node_id":"0.0-2.0-17.0"},{"group":"hexagon_bi","room_assignment":["purple","yellow","blue","red","grey","green"],"door_color_assignment":["white","black"],"door_generator_assignment":[0,1],"goal":5,"start":1,"action_noise":0.15,"location_history":"[1,0,5]","action_history":"[1,0]","door_history":"[1,0]","location_rts":"[23639,599]","trial_type":"two-door-navigation","trial_index":20,"time_elapsed":932251,"internal_node_id":"0.0-2.0-18.0"},{"group":"hexagon_bi","room_assignment":["purple","yellow","blue","red","grey","green"],"door_color_assignment":["white","black"],"door_generator_assignment":[0,1],"goal":2,"start":5,"action_noise":0.15,"location_history":"[5,0,1,0,5,4,3,2]","action_history":"[1,1,0,0,1,0,1]","door_history":"[1,1,0,0,1,0,1]","location_rts":"[1212,5279,1189,458,1314,1266,1041]","trial_type":"two-door-navigation","trial_index":21,"time_elapsed":954709,"internal_node_id":"0.0-2.0-19.0"},{"group":"hexagon_bi","room_assignment":["purple","yellow","blue","red","grey","green"],"door_color_assignment":["white","black"],"door_generator_assignment":[0,1],"goal":4,"start":2,"action_noise":0.15,"location_history":"[2,1,0,5,0,1,0,5,4]","action_history":"[0,0,0,0,1,1,1,1]","door_history":"[0,0,0,0,1,1,1,1]","location_rts":"[3173,492,290,118,104,62,880,80]","trial_type":"two-door-navigation","trial_index":22,"time_elapsed":971635,"internal_node_id":"0.0-2.0-20.0"},{"group":"hexagon_bi","room_assignment":["purple","yellow","blue","red","grey","green"],"door_color_assignment":["white","black"],"door_generator_assignment":[0,1],"goal":1,"start":4,"action_noise":0.15,"location_history":"[4,3,4,5,4,5,0,5,4,3,4,3,2,1]","action_history":"[0,0,0,1,1,0,1,1,0,0,0,0,0]","door_history":"[0,0,0,1,1,0,1,1,0,0,0,0,0]","location_rts":"[413,663,409,289,11,843,183,429,67,454,288,1135,277]","trial_type":"two-door-navigation","trial_index":23,"time_elapsed":993943,"internal_node_id":"0.0-2.0-21.0"},{"group":"hexagon_bi","room_assignment":["purple","yellow","blue","red","grey","green"],"door_color_assignment":["white","black"],"door_generator_assignment":[0,1],"goal":3,"start":1,"action_noise":0.15,"location_history":"[1,0,5,4,3]","action_history":"[1,0,1,0]","door_history":"[1,0,1,0]","location_rts":"[469,137,130,217]","trial_type":"two-door-navigation","trial_index":24,"time_elapsed":1002498,"internal_node_id":"0.0-2.0-22.0"},{"group":"hexagon_bi","room_assignment":["purple","yellow","blue","red","grey","green"],"door_color_assignment":["white","black"],"door_generator_assignment":[0,1],"goal":2,"start":3,"action_noise":0.15,"location_history":"[3,4,5,4,3,4,5,0,5,0,5,0,5,0,5,0,5,0,1,2]","action_history":"[0,1,1,0,0,1,0,0,0,0,0,0,0,0,0,0,0,1,1]","door_history":"[0,1,1,0,0,1,0,0,0,0,0,0,0,0,0,0,0,1,1]","location_rts":"[365,544,63,519,381,683,677,23,22,31,1259,271,380,224,145,107,402,105,89]","trial_type":"two-door-navigation","trial_index":25,"time_elapsed":1031821,"internal_node_id":"0.0-2.0-23.0"},{"group":"hexagon_bi","room_assignment":["purple","yellow","blue","red","grey","green"],"door_color_assignment":["white","black"],"door_generator_assignment":[0,1],"goal":0,"start":2,"action_noise":0.15,"location_history":"[2,3,2,3,2,1,2,3,2,1,2,3,2,1,2,1,0]","action_history":"[1,1,1,0,0,0,1,1,0,0,1,1,0,0,0,1]","door_history":"[1,1,1,0,0,0,1,1,0,0,1,1,0,0,0,1]","location_rts":"[2302,112,773,26,149,1252,382,450,807,865,147,9,725,911,120,1079]","trial_type":"two-door-navigation","trial_index":26,"time_elapsed":1061890,"internal_node_id":"0.0-2.0-24.0"},{"group":"hexagon_bi","room_assignment":["purple","yellow","blue","red","grey","green"],"door_color_assignment":["white","black"],"door_generator_assignment":[0,1],"goal":5,"start":0,"action_noise":0.15,"location_history":"[0,1,2,3,4,5]","action_history":"[1,0,0,0,1]","door_history":"[1,0,0,0,1]","location_rts":"[3733,196,350,149,260]","trial_type":"two-door-navigation","trial_index":27,"time_elapsed":1075230,"internal_node_id":"0.0-2.0-25.0"},{"group":"hexagon_bi","room_assignment":["purple","yellow","blue","red","grey","green"],"door_color_assignment":["white","black"],"door_generator_assignment":[0,1],"goal":2,"start":5,"action_noise":0.15,"location_history":"[5,0,1,0,5,4,5,0,5,4,3,4,5,0,5,4,3,2]","action_history":"[0,1,1,0,1,1,1,0,0,0,0,1,0,1,0,0,1]","door_history":"[0,1,1,0,1,1,1,0,0,0,0,1,0,1,0,0,1]","location_rts":"[613,57,2377,4953,247,458,304,286,351,346,315,300,281,221,47,873,226]","trial_type":"two-door-navigation","trial_index":28,"time_elapsed":1108435,"internal_node_id":"0.0-2.0-26.0"},{"group":"hexagon_bi","room_assignment":["purple","yellow","blue","red","grey","green"],"door_color_assignment":["white","black"],"door_generator_assignment":[0,1],"goal":3,"start":2,"action_noise":0.15,"location_history":"[2,1,0,5,4,5,4,5,4,3]","action_history":"[0,1,1,1,0,0,1,0,0]","door_history":"[0,1,1,1,0,0,1,0,0]","location_rts":"[1748,96,190,693,2066,877,354,298,2153]","trial_type":"two-door-navigation","trial_index":29,"time_elapsed":1129655,"internal_node_id":"0.0-2.0-27.0"},{"group":"hexagon_bi","room_assignment":["purple","yellow","blue","red","grey","green"],"door_color_assignment":["white","black"],"door_generator_assignment":[0,1],"goal":0,"start":3,"action_noise":0.15,"location_history":"[3,4,5,4,3,4,3,4,3,2,3,2,3,2,1,2,3,4,5,4,5,0]","action_history":"[0,1,1,0,0,0,0,0,0,1,1,1,0,0,0,1,0,0,1,1,1]","door_history":"[0,1,1,0,0,0,0,0,0,1,1,1,0,0,0,1,0,0,1,1,1]","location_rts":"[441,851,774,58,89,16,319,49,697,643,697,576,1222,682,388,779,149,347,371,124,407]","trial_type":"two-door-navigation","trial_index":30,"time_elapsed":1164420,"internal_node_id":"0.0-2.0-28.0"},{"group":"hexagon_bi","room_assignment":["purple","yellow","blue","red","grey","green"],"door_color_assignment":["white","black"],"door_generator_assignment":[0,1],"goal":1,"start":0,"action_noise":0.15,"location_history":"[0,1]","action_history":"[0]","door_history":"[0]","location_rts":"[305]","trial_type":"two-door-navigation","trial_index":31,"time_elapsed":1169254,"internal_node_id":"0.0-2.0-29.0"},{"group":"hexagon_bi","room_assignment":["purple","yellow","blue","red","grey","green"],"door_color_assignment":["white","black"],"door_generator_assignment":[0,1],"goal":4,"start":1,"action_noise":0.15,"location_history":"[1,2,1,2,1,0,5,0,5,0,1,0,1,0,1,2,3,2,3,2,3,2,3,2,3,4]","action_history":"[0,0,0,0,0,0,0,0,0,1,1,1,1,1,0,1,1,1,1,1,1,0,0,1,0]","door_history":"[0,0,0,0,0,0,0,0,0,1,1,1,1,1,0,1,1,1,1,1,1,0,0,1,0]","location_rts":"[369,366,287,338,278,312,275,233,291,53,392,294,303,2820,695,146,198,319,319,465,604,671,253,455,445]","trial_type":"two-door-navigation","trial_index":32,"time_elapsed":1209631,"internal_node_id":"0.0-2.0-30.0"},{"group":"hexagon_bi","room_assignment":["purple","yellow","blue","red","grey","green"],"door_color_assignment":["white","black"],"door_generator_assignment":[0,1],"goal":5,"start":4,"action_noise":0.15,"location_history":"[4,5]","action_history":"[1]","door_history":"[1]","location_rts":"[1079]","trial_type":"two-door-navigation","trial_index":33,"time_elapsed":1215241,"internal_node_id":"0.0-2.0-31.0"},{"group":"hexagon_bi","room_assignment":["purple","yellow","blue","red","grey","green"],"door_color_assignment":["white","black"],"door_generator_assignment":[0,1],"goal":0,"start":5,"action_noise":0.15,"location_history":"[5,4,5,0]","action_history":"[0,1,1]","door_history":"[0,1,1]","location_rts":"[548,2362,972]","trial_type":"two-door-navigation","trial_index":34,"time_elapsed":1225707,"internal_node_id":"0.0-2.0-32.0"},{"group":"hexagon_bi","room_assignment":["purple","yellow","blue","red","grey","green"],"door_color_assignment":["white","black"],"door_generator_assignment":[0,1],"goal":3,"start":0,"action_noise":0.15,"location_history":"[0,5,0,1,0,1,0,5,0,5,4,5,0,1,0,1,2,1,2,1,2,1,2,3]","action_history":"[0,1,1,0,1,1,0,0,0,1,1,1,1,1,1,1,0,0,0,0,0,1,1]","door_history":"[0,1,1,0,1,1,0,0,0,1,1,1,1,1,1,1,0,0,0,0,0,1,1]","location_rts":"[759,833,559,74,456,459,354,279,857,446,667,330,388,267,331,217,350,326,393,473,715,80,718]","trial_type":"two-door-navigation","trial_index":35,"time_elapsed":1263155,"internal_node_id":"0.0-2.0-33.0"},{"group":"hexagon_bi","room_assignment":["purple","yellow","blue","red","grey","green"],"door_color_assignment":["white","black"],"door_generator_assignment":[0,1],"goal":1,"start":3,"action_noise":0.15,"location_history":"[3,2,1]","action_history":"[1,0]","door_history":"[1,0]","location_rts":"[7313,3275]","trial_type":"two-door-navigation","trial_index":36,"time_elapsed":1279296,"internal_node_id":"0.0-2.0-34.0"},{"group":"hexagon_bi","room_assignment":["purple","yellow","blue","red","grey","green"],"door_color_assignment":["white","black"],"door_generator_assignment":[0,1],"goal":2,"start":1,"action_noise":0.15,"location_history":"[1,0,5,0,5,4,5,4,3,2]","action_history":"[1,0,0,0,1,1,1,1,0]","door_history":"[1,0,0,0,1,1,1,1,0]","location_rts":"[6891,886,3949,402,601,455,735,799,400]","trial_type":"two-door-navigation","trial_index":37,"time_elapsed":1307144,"internal_node_id":"0.0-2.0-35.0"},{"group":"hexagon_bi","room_assignment":["purple","yellow","blue","red","grey","green"],"door_color_assignment":["white","black"],"door_generator_assignment":[0,1],"goal":4,"start":2,"action_noise":0.15,"location_history":"[2,1,0,1,2,1,0,5,0,1,2,1,2,3,2,3,2,3,2,1,2,1,2,3,2,3,2,3,2,1,2,1,2,1,0,1,0,5,0,5,0,5,4]","action_history":"[0,1,1,0,0,1,0,0,0,0,0,0,1,1,1,1,1,1,0,0,0,0,1,1,1,1,1,1,0,0,0,0,0,0,1,1,1,0,0,0,0,0]","door_history":"[0,1,1,0,0,1,0,0,0,0,0,0,1,1,1,1,1,1,0,0,0,0,1,1,1,1,1,1,0,0,0,0,0,0,1,1,1,0,0,0,0,0]","location_rts":"[603,326,598,403,328,256,287,543,298,217,170,630,81,387,497,351,309,333,15,281,629,664,499,458,475,442,454,434,451,637,493,2925,571,2961,1234,475,578,1499,503,588,793,910]","trial_type":"two-door-navigation","trial_index":38,"time_elapsed":1379373,"internal_node_id":"0.0-2.0-36.0"},{"group":"hexagon_bi","room_assignment":["purple","yellow","blue","red","grey","green"],"door_color_assignment":["white","black"],"door_generator_assignment":[0,1],"goal":5,"start":4,"action_noise":0.15,"location_history":"[4,3,2,3,2,3,2,1,2,3,4,5]","action_history":"[0,1,1,1,1,0,0,0,0,1,1]","door_history":"[0,1,1,1,1,0,0,0,0,1,1]","location_rts":"[554,431,1192,1867,2929,422,482,1152,421,690,834]","trial_type":"two-door-navigation","trial_index":39,"time_elapsed":1405148,"internal_node_id":"0.0-2.0-37.0"},{"group":"hexagon_bi","room_assignment":["purple","yellow","blue","red","grey","green"],"door_color_assignment":["white","black"],"door_generator_assignment":[0,1],"goal":1,"start":5,"action_noise":0.15,"location_history":"[5,0,5,4,5,0,5,0,1]","action_history":"[0,0,0,0,0,0,0,1]","door_history":"[0,0,0,0,0,0,0,1]","location_rts":"[3046,1325,708,501,194,765,1771,2050]","trial_type":"two-door-navigation","trial_index":40,"time_elapsed":1427226,"internal_node_id":"0.0-2.0-38.0"},{"group":"hexagon_bi","room_assignment":["purple","yellow","blue","red","grey","green"],"door_color_assignment":["white","black"],"door_generator_assignment":[0,1],"goal":4,"start":1,"action_noise":0.15,"location_history":"[1,0,5,0,5,0,1,0,5,4]","action_history":"[1,0,0,0,0,1,1,1,1]","door_history":"[1,0,0,0,0,1,1,1,1]","location_rts":"[3226,91,328,3738,651,1260,365,338,330]","trial_type":"two-door-navigation","trial_index":41,"time_elapsed":1450305,"internal_node_id":"0.0-2.0-39.0"},{"group":"hexagon_bi","room_assignment":["purple","yellow","blue","red","grey","green"],"door_color_assignment":["white","black"],"door_generator_assignment":[0,1],"goal":3,"start":4,"action_noise":0.15,"location_history":"[4,3]","action_history":"[0]","door_history":"[0]","location_rts":"[1694]","trial_type":"two-door-navigation","trial_index":42,"time_elapsed":1456526,"internal_node_id":"0.0-2.0-40.0"},{"group":"hexagon_bi","room_assignment":["purple","yellow","blue","red","grey","green"],"door_color_assignment":["white","black"],"door_generator_assignment":[0,1],"goal":2,"start":3,"action_noise":0.15,"location_history":"[3,2]","action_history":"[1]","door_history":"[1]","location_rts":"[345]","trial_type":"two-door-navigation","trial_index":43,"time_elapsed":1461397,"internal_node_id":"0.0-2.0-41.0"},{"group":"hexagon_bi","room_assignment":["purple","yellow","blue","red","grey","green"],"door_color_assignment":["white","black"],"door_generator_assignment":[0,1],"goal":0,"start":2,"action_noise":0.15,"location_history":"[2,1,2,3,4,3,2,3,2,1,2,1,0]","action_history":"[0,1,1,0,0,1,1,1,0,0,0,1]","door_history":"[0,1,1,0,0,1,1,1,0,0,0,1]","location_rts":"[1630,585,579,893,358,913,436,366,576,365,165,1082]","trial_type":"two-door-navigation","trial_index":44,"time_elapsed":1485155,"internal_node_id":"0.0-2.0-42.0"},{"group":"hexagon_bi","room_assignment":["purple","yellow","blue","red","grey","green"],"door_color_assignment":["white","black"],"door_generator_assignment":[0,1],"goal":5,"start":0,"action_noise":0.15,"location_history":"[0,5]","action_history":"[1]","door_history":"[1]","location_rts":"[744]","trial_type":"two-door-navigation","trial_index":45,"time_elapsed":1490428,"internal_node_id":"0.0-2.0-43.0"},{"group":"hexagon_bi","room_assignment":["purple","yellow","blue","red","grey","green"],"door_color_assignment":["white","black"],"door_generator_assignment":[0,1],"goal":0,"start":5,"action_noise":0.15,"location_history":"[5,0]","action_history":"[0]","door_history":"[0]","location_rts":"[359]","trial_type":"two-door-navigation","trial_index":46,"time_elapsed":1495312,"internal_node_id":"0.0-2.0-44.0"},{"group":"hexagon_bi","room_assignment":["purple","yellow","blue","red","grey","green"],"door_color_assignment":["white","black"],"door_generator_assignment":[0,1],"goal":2,"start":0,"action_noise":0.15,"location_history":"[0,5,0,5,0,5,0,5,0,1,0,1,0,1,0,1,0,5,4,3,4,3,2]","action_history":"[0,0,0,0,0,0,0,0,1,1,1,1,1,1,1,0,0,0,0,0,0,1]","door_history":"[0,0,0,0,0,0,0,0,1,1,1,1,1,1,1,0,0,0,0,0,0,1]","location_rts":"[354,569,484,377,247,428,163,460,561,338,530,223,648,391,383,696,651,560,347,403,301,519]","trial_type":"two-door-navigation","trial_index":47,"time_elapsed":1531092,"internal_node_id":"0.0-2.0-45.0"},{"group":"hexagon_bi","room_assignment":["purple","yellow","blue","red","grey","green"],"door_color_assignment":["white","black"],"door_generator_assignment":[0,1],"goal":4,"start":2,"action_noise":0.15,"location_history":"[2,3,4]","action_history":"[1,0]","door_history":"[1,0]","location_rts":"[342,555]","trial_type":"two-door-navigation","trial_index":48,"time_elapsed":1537552,"internal_node_id":"0.0-2.0-46.0"},{"group":"hexagon_bi","room_assignment":["purple","yellow","blue","red","grey","green"],"door_color_assignment":["white","black"],"door_generator_assignment":[0,1],"goal":1,"start":4,"action_noise":0.15,"location_history":"[4,3,2,3,2,1]","action_history":"[0,1,1,1,1]","door_history":"[0,1,1,1,1]","location_rts":"[546,3037,987,513,274]","trial_type":"two-door-navigation","trial_index":49,"time_elapsed":1551528,"internal_node_id":"0.0-2.0-47.0"},{"group":"hexagon_bi","room_assignment":["purple","yellow","blue","red","grey","green"],"door_color_assignment":["white","black"],"door_generator_assignment":[0,1],"goal":5,"start":1,"action_noise":0.15,"location_history":"[1,2,1,2,1,2,1,2,1,0,1,0,1,0,1,0,1,2,1,2,1,2,1,0,1,2,1,2,1,2,1,0,1,0,5]","action_history":"[0,0,0,0,0,0,0,0,1,1,1,1,1,1,1,1,0,0,0,0,0,0,1,1,0,0,0,0,0,0,1,1,1,1]","door_history":"[0,0,0,0,0,0,0,0,1,1,1,1,1,1,1,1,0,0,0,0,0,0,1,1,0,0,0,0,0,0,1,1,1,1]","location_rts":"[651,372,1244,628,1277,308,2666,504,1556,1135,567,727,724,3412,848,419,452,469,450,416,449,381,2017,495,975,222,798,485,445,656,519,594,739,539]","trial_type":"two-door-navigation","trial_index":50,"time_elapsed":1618040,"internal_node_id":"0.0-2.0-48.0"},{"group":"hexagon_bi","room_assignment":["purple","yellow","blue","red","grey","green"],"door_color_assignment":["white","black"],"door_generator_assignment":[0,1],"goal":3,"start":5,"action_noise":0.15,"location_history":"[5,0,1,0,1,0,1,2,3]","action_history":"[0,1,1,1,1,1,1,1]","door_history":"[0,1,1,1,1,1,1,1]","location_rts":"[506,1261,217,513,519,201,458,652]","trial_type":"two-door-navigation","trial_index":51,"time_elapsed":1634055,"internal_node_id":"0.0-2.0-49.0"},{"view_history":"[{\"page_index\":0,\"viewing_time\":12674}]","rt":12674,"trial_type":"instructions","trial_index":52,"time_elapsed":1647731,"internal_node_id":"0.0-3.0"},{"view_history":"[{\"page_index\":0,\"viewing_time\":40463},{\"page_index\":1,\"viewing_time\":8314}]","rt":48777,"trial_type":"instructions","trial_index":53,"time_elapsed":1697508,"internal_node_id":"0.0-4.0"},{"group":"hexagon_tri","fractal_assignment":["../images/gry_blk.png","../images/blu_wht.png","../images/org_blu.png","../images/cyn_red.png","../images/ylw_slt.png","../images/pnk_blu.png"],"mutagen_generator_assignment":[0,1],"goal":3,"start":5,"action_noise":0.15,"location_history":"[5,0,1,3]","action_history":"[0,1,0]","mutagen_history":"[0,1,0]","location_rts":"[6880,1175,8472]","trial_type":"fractal-mutation","trial_index":54,"time_elapsed":1721667,"internal_node_id":"0.0-5.0-0.0"},{"group":"hexagon_tri","fractal_assignment":["../images/gry_blk.png","../images/blu_wht.png","../images/org_blu.png","../images/cyn_red.png","../images/ylw_slt.png","../images/pnk_blu.png"],"mutagen_generator_assignment":[0,1],"goal":1,"start":3,"action_noise":0.15,"location_history":"[3,4,0,5,0,1]","action_history":"[1,0,0,1,1]","mutagen_history":"[1,0,0,1,1]","location_rts":"[12561,2573,1551,2934,1583]","trial_type":"fractal-mutation","trial_index":55,"time_elapsed":1752623,"internal_node_id":"0.0-5.0-1.0"},{"group":"hexagon_tri","fractal_assignment":["../images/gry_blk.png","../images/blu_wht.png","../images/org_blu.png","../images/cyn_red.png","../images/ylw_slt.png","../images/pnk_blu.png"],"mutagen_generator_assignment":[0,1],"goal":0,"start":1,"action_noise":0.15,"location_history":"[1,3,2,3,4,2,1,3,4,2,3,4,0]","action_history":"[0,0,1,1,1,0,0,1,1,1,1,0]","mutagen_history":"[0,0,1,1,1,0,0,1,1,1,1,0]","location_rts":"[1517,2128,3510,1212,1836,1724,1252,779,1431,1174,830,271]","trial_type":"fractal-mutation","trial_index":56,"time_elapsed":1788200,"internal_node_id":"0.0-5.0-2.0"},{"group":"hexagon_tri","fractal_assignment":["../images/gry_blk.png","../images/blu_wht.png","../images/org_blu.png","../images/cyn_red.png","../images/ylw_slt.png","../images/pnk_blu.png"],"mutagen_generator_assignment":[0,1],"goal":3,"start":0,"action_noise":0.15,"location_history":"[0,5,0,1,3]","action_history":"[1,1,1,0]","mutagen_history":"[1,1,1,0]","location_rts":"[1813,1271,1112,837]","trial_type":"fractal-mutation","trial_index":57,"time_elapsed":1801708,"internal_node_id":"0.0-5.0-3.0"},{"group":"hexagon_tri","fractal_assignment":["../images/gry_blk.png","../images/blu_wht.png","../images/org_blu.png","../images/cyn_red.png","../images/ylw_slt.png","../images/pnk_blu.png"],"mutagen_generator_assignment":[0,1],"goal":4,"start":3,"action_noise":0.15,"location_history":"[3,2,3,4]","action_history":"[0,1,1]","mutagen_history":"[0,1,1]","location_rts":"[1186,1441,1351]","trial_type":"fractal-mutation","trial_index":58,"time_elapsed":1812963,"internal_node_id":"0.0-5.0-4.0"},{"group":"hexagon_tri","fractal_assignment":["../images/gry_blk.png","../images/blu_wht.png","../images/org_blu.png","../images/cyn_red.png","../images/ylw_slt.png","../images/pnk_blu.png"],"mutagen_generator_assignment":[0,1],"goal":2,"start":4,"action_noise":0.15,"location_history":"[4,0,5,0,1,5,0,5,4,0,1,5,0,1,3,4,0,5,4,0,1,5,0,1,3,2]","action_history":"[0,0,0,0,0,0,0,0,0,1,1,1,1,0,1,0,0,0,1,1,1,1,1,0,0]","mutagen_history":"[0,0,0,0,0,0,0,0,0,1,1,1,1,0,1,0,0,0,1,1,1,1,1,0,0]","location_rts":"[772,573,706,815,1051,743,787,666,791,345,952,1262,1055,1521,2143,1461,2318,995,923,582,507,1001,555,1555,439]","trial_type":"fractal-mutation","trial_index":59,"time_elapsed":1871140,"internal_node_id":"0.0-5.0-5.0"},{"group":"hexagon_tri","fractal_assignment":["../images/gry_blk.png","../images/blu_wht.png","../images/org_blu.png","../images/cyn_red.png","../images/ylw_slt.png","../images/pnk_blu.png"],"mutagen_generator_assignment":[0,1],"goal":1,"start":2,"action_noise":0.15,"location_history":"[2,1]","action_history":"[0]","mutagen_history":"[0]","location_rts":"[89]","trial_type":"fractal-mutation","trial_index":60,"time_elapsed":1875996,"internal_node_id":"0.0-5.0-6.0"},{"group":"hexagon_tri","fractal_assignment":["../images/gry_blk.png","../images/blu_wht.png","../images/org_blu.png","../images/cyn_red.png","../images/ylw_slt.png","../images/pnk_blu.png"],"mutagen_generator_assignment":[0,1],"goal":5,"start":1,"action_noise":0.15,"location_history":"[1,5]","action_history":"[1]","mutagen_history":"[1]","location_rts":"[1826]","trial_type":"fractal-mutation","trial_index":61,"time_elapsed":1882597,"internal_node_id":"0.0-5.0-7.0"},{"group":"hexagon_tri","fractal_assignment":["../images/gry_blk.png","../images/blu_wht.png","../images/org_blu.png","../images/cyn_red.png","../images/ylw_slt.png","../images/pnk_blu.png"],"mutagen_generator_assignment":[0,1],"goal":4,"start":5,"action_noise":0.15,"location_history":"[5,0,5,4]","action_history":"[1,0,0]","mutagen_history":"[1,0,0]","location_rts":"[898,787,707]","trial_type":"fractal-mutation","trial_index":62,"time_elapsed":1892099,"internal_node_id":"0.0-5.0-8.0"},{"group":"hexagon_tri","fractal_assignment":["../images/gry_blk.png","../images/blu_wht.png","../images/org_blu.png","../images/cyn_red.png","../images/ylw_slt.png","../images/pnk_blu.png"],"mutagen_generator_assignment":[0,1],"goal":2,"start":4,"action_noise":0.15,"location_history":"[4,0,1,3,2]","action_history":"[0,0,0,0]","mutagen_history":"[0,0,0,0]","location_rts":"[2007,446,190,705]","trial_type":"fractal-mutation","trial_index":63,"time_elapsed":1903761,"internal_node_id":"0.0-5.0-9.0"},{"group":"hexagon_tri","fractal_assignment":["../images/gry_blk.png","../images/blu_wht.png","../images/org_blu.png","../images/cyn_red.png","../images/ylw_slt.png","../images/pnk_blu.png"],"mutagen_generator_assignment":[0,1],"goal":0,"start":2,"action_noise":0.15,"location_history":"[2,3,4,0]","action_history":"[1,1,1]","mutagen_history":"[1,1,1]","location_rts":"[1692,11,1305]","trial_type":"fractal-mutation","trial_index":64,"time_elapsed":1914197,"internal_node_id":"0.0-5.0-10.0"},{"group":"hexagon_tri","fractal_assignment":["../images/gry_blk.png","../images/blu_wht.png","../images/org_blu.png","../images/cyn_red.png","../images/ylw_slt.png","../images/pnk_blu.png"],"mutagen_generator_assignment":[0,1],"goal":1,"start":0,"action_noise":0.15,"location_history":"[0,1]","action_history":"[1]","mutagen_history":"[1]","location_rts":"[1453]","trial_type":"fractal-mutation","trial_index":65,"time_elapsed":1920432,"internal_node_id":"0.0-5.0-11.0"},{"group":"hexagon_tri","fractal_assignment":["../images/gry_blk.png","../images/blu_wht.png","../images/org_blu.png","../images/cyn_red.png","../images/ylw_slt.png","../images/pnk_blu.png"],"mutagen_generator_assignment":[0,1],"goal":3,"start":1,"action_noise":0.15,"location_history":"[1,3]","action_history":"[0]","mutagen_history":"[0]","location_rts":"[806]","trial_type":"fractal-mutation","trial_index":66,"time_elapsed":1925993,"internal_node_id":"0.0-5.0-12.0"},{"group":"hexagon_tri","fractal_assignment":["../images/gry_blk.png","../images/blu_wht.png","../images/org_blu.png","../images/cyn_red.png","../images/ylw_slt.png","../images/pnk_blu.png"],"mutagen_generator_assignment":[0,1],"goal":5,"start":3,"action_noise":0.15,"location_history":"[3,4,0,1,5]","action_history":"[0,0,1,1]","mutagen_history":"[0,0,1,1]","location_rts":"[834,1251,1947,1414]","trial_type":"fractal-mutation","trial_index":67,"time_elapsed":1939781,"internal_node_id":"0.0-5.0-13.0"},{"group":"hexagon_tri","fractal_assignment":["../images/gry_blk.png","../images/blu_wht.png","../images/org_blu.png","../images/cyn_red.png","../images/ylw_slt.png","../images/pnk_blu.png"],"mutagen_generator_assignment":[0,1],"goal":4,"start":5,"action_noise":0.15,"location_history":"[5,0,1,5,0,5,4]","action_history":"[1,1,1,1,0,0]","mutagen_history":"[1,1,1,1,0,0]","location_rts":"[122,404,997,668,329,392]","trial_type":"fractal-mutation","trial_index":68,"time_elapsed":1953618,"internal_node_id":"0.0-5.0-14.0"},{"group":"hexagon_tri","fractal_assignment":["../images/gry_blk.png","../images/blu_wht.png","../images/org_blu.png","../images/cyn_red.png","../images/ylw_slt.png","../images/pnk_blu.png"],"mutagen_generator_assignment":[0,1],"goal":0,"start":4,"action_noise":0.15,"location_history":"[4,0]","action_history":"[0]","mutagen_history":"[0]","location_rts":"[916]","trial_type":"fractal-mutation","trial_index":69,"time_elapsed":1959234,"internal_node_id":"0.0-5.0-15.0"},{"group":"hexagon_tri","fractal_assignment":["../images/gry_blk.png","../images/blu_wht.png","../images/org_blu.png","../images/cyn_red.png","../images/ylw_slt.png","../images/pnk_blu.png"],"mutagen_generator_assignment":[0,1],"goal":3,"start":0,"action_noise":0.15,"location_history":"[0,5,0,1,5,0,5,0,1,3]","action_history":"[0,1,1,1,1,1,1,1,1]","mutagen_history":"[0,1,1,1,1,1,1,1,1]","location_rts":"[2160,701,865,52,409,222,395,1343,217]","trial_type":"fractal-mutation","trial_index":70,"time_elapsed":1980179,"internal_node_id":"0.0-5.0-16.0"},{"group":"hexagon_tri","fractal_assignment":["../images/gry_blk.png","../images/blu_wht.png","../images/org_blu.png","../images/cyn_red.png","../images/ylw_slt.png","../images/pnk_blu.png"],"mutagen_generator_assignment":[0,1],"goal":1,"start":3,"action_noise":0.15,"location_history":"[3,4,0,5,0,1]","action_history":"[0,1,1,1,1]","mutagen_history":"[0,1,1,1,1]","location_rts":"[187,183,65,205,2530]","trial_type":"fractal-mutation","trial_index":71,"time_elapsed":1993038,"internal_node_id":"0.0-5.0-17.0"},{"group":"hexagon_tri","fractal_assignment":["../images/gry_blk.png","../images/blu_wht.png","../images/org_blu.png","../images/cyn_red.png","../images/ylw_slt.png","../images/pnk_blu.png"],"mutagen_generator_assignment":[0,1],"goal":5,"start":1,"action_noise":0.15,"location_history":"[1,3,2,1,3,2,1,3,4,2,3,4,2,3,4,2,1,5]","action_history":"[0,0,0,0,0,0,0,1,1,1,1,1,1,1,1,1,1]","mutagen_history":"[0,0,0,0,0,0,0,1,1,1,1,1,1,1,1,1,1]","location_rts":"[345,1740,202,457,984,721,598,1140,234,1349,1429,584,286,1472,196,371,514]","trial_type":"fractal-mutation","trial_index":72,"time_elapsed":2029964,"internal_node_id":"0.0-5.0-18.0"},{"group":"hexagon_tri","fractal_assignment":["../images/gry_blk.png","../images/blu_wht.png","../images/org_blu.png","../images/cyn_red.png","../images/ylw_slt.png","../images/pnk_blu.png"],"mutagen_generator_assignment":[0,1],"goal":2,"start":5,"action_noise":0.15,"location_history":"[5,4,0,5,4,0,5,4,0,5,4,0,1,3,2]","action_history":"[0,0,0,0,0,0,0,0,0,0,0,0,0,0]","mutagen_history":"[0,0,0,0,0,0,0,0,0,0,0,0,0,0]","location_rts":"[1819,1224,1016,1505,570,721,762,3704,451,1170,1745,444,514,1310]","trial_type":"fractal-mutation","trial_index":73,"time_elapsed":2067029,"internal_node_id":"0.0-5.0-19.0"},{"group":"hexagon_tri","fractal_assignment":["../images/gry_blk.png","../images/blu_wht.png","../images/org_blu.png","../images/cyn_red.png","../images/ylw_slt.png","../images/pnk_blu.png"],"mutagen_generator_assignment":[0,1],"goal":4,"start":2,"action_noise":0.15,"location_history":"[2,3,4]","action_history":"[1,1]","mutagen_history":"[1,1]","location_rts":"[545,241]","trial_type":"fractal-mutation","trial_index":74,"time_elapsed":2073875,"internal_node_id":"0.0-5.0-20.0"},{"group":"hexagon_tri","fractal_assignment":["../images/gry_blk.png","../images/blu_wht.png","../images/org_blu.png","../images/cyn_red.png","../images/ylw_slt.png","../images/pnk_blu.png"],"mutagen_generator_assignment":[0,1],"goal":1,"start":4,"action_noise":0.15,"location_history":"[4,0,5,4,0,5,4,0,1]","action_history":"[0,0,0,0,0,0,0,1]","mutagen_history":"[0,0,0,0,0,0,0,1]","location_rts":"[226,718,197,48,141,50,10,2049]","trial_type":"fractal-mutation","trial_index":75,"time_elapsed":2090333,"internal_node_id":"0.0-5.0-21.0"},{"group":"hexagon_tri","fractal_assignment":["../images/gry_blk.png","../images/blu_wht.png","../images/org_blu.png","../images/cyn_red.png","../images/ylw_slt.png","../images/pnk_blu.png"],"mutagen_generator_assignment":[0,1],"goal":3,"start":1,"action_noise":0.15,"location_history":"[1,5,0,1,5,4,2,1,5,4,2,1,5,4,2,3]","action_history":"[0,1,1,1,1,1,0,1,1,1,0,1,0,1,1]","mutagen_history":"[0,1,1,1,1,1,0,1,1,1,0,1,0,1,1]","location_rts":"[1329,1384,89,164,1536,529,38946,1419,5400,1160,855,1191,1529,1751,771]","trial_type":"fractal-mutation","trial_index":76,"time_elapsed":2170451,"internal_node_id":"0.0-5.0-22.0"},{"group":"hexagon_tri","fractal_assignment":["../images/gry_blk.png","../images/blu_wht.png","../images/org_blu.png","../images/cyn_red.png","../images/ylw_slt.png","../images/pnk_blu.png"],"mutagen_generator_assignment":[0,1],"goal":2,"start":3,"action_noise":0.15,"location_history":"[3,4,2]","action_history":"[0,1]","mutagen_history":"[0,1]","location_rts":"[1364,439]","trial_type":"fractal-mutation","trial_index":77,"time_elapsed":2178239,"internal_node_id":"0.0-5.0-23.0"},{"group":"hexagon_tri","fractal_assignment":["../images/gry_blk.png","../images/blu_wht.png","../images/org_blu.png","../images/cyn_red.png","../images/ylw_slt.png","../images/pnk_blu.png"],"mutagen_generator_assignment":[0,1],"goal":0,"start":2,"action_noise":0.15,"location_history":"[2,1,5,0]","action_history":"[0,1,1]","mutagen_history":"[0,1,1]","location_rts":"[352,1509,1129]","trial_type":"fractal-mutation","trial_index":78,"time_elapsed":2188461,"internal_node_id":"0.0-5.0-24.0"},{"group":"hexagon_tri","fractal_assignment":["../images/gry_blk.png","../images/blu_wht.png","../images/org_blu.png","../images/cyn_red.png","../images/ylw_slt.png","../images/pnk_blu.png"],"mutagen_generator_assignment":[0,1],"goal":5,"start":0,"action_noise":0.15,"location_history":"[0,5]","action_history":"[0]","mutagen_history":"[0]","location_rts":"[1145]","trial_type":"fractal-mutation","trial_index":79,"time_elapsed":2194320,"internal_node_id":"0.0-5.0-25.0"},{"group":"hexagon_tri","fractal_assignment":["../images/gry_blk.png","../images/blu_wht.png","../images/org_blu.png","../images/cyn_red.png","../images/ylw_slt.png","../images/pnk_blu.png"],"mutagen_generator_assignment":[0,1],"goal":2,"start":5,"action_noise":0.15,"location_history":"[5,0,1,5,4,2]","action_history":"[1,1,1,1,1]","mutagen_history":"[1,1,1,1,1]","location_rts":"[1487,993,1168,713,715]","trial_type":"fractal-mutation","trial_index":80,"time_elapsed":2209272,"internal_node_id":"0.0-5.0-26.0"},{"group":"hexagon_tri","fractal_assignment":["../images/gry_blk.png","../images/blu_wht.png","../images/org_blu.png","../images/cyn_red.png","../images/ylw_slt.png","../images/pnk_blu.png"],"mutagen_generator_assignment":[0,1],"goal":3,"start":2,"action_noise":0.15,"location_history":"[2,1,3]","action_history":"[0,0]","mutagen_history":"[0,0]","location_rts":"[996,480]","trial_type":"fractal-mutation","trial_index":81,"time_elapsed":2216660,"internal_node_id":"0.0-5.0-27.0"},{"group":"hexagon_tri","fractal_assignment":["../images/gry_blk.png","../images/blu_wht.png","../images/org_blu.png","../images/cyn_red.png","../images/ylw_slt.png","../images/pnk_blu.png"],"mutagen_generator_assignment":[0,1],"goal":0,"start":3,"action_noise":0.15,"location_history":"[3,4,2,1,5,4,2,3,4,0]","action_history":"[1,1,0,1,0,1,1,0,0]","mutagen_history":"[1,1,0,1,0,1,1,0,0]","location_rts":"[1635,1245,1507,1296,456,1032,749,682,207]","trial_type":"fractal-mutation","trial_index":82,"time_elapsed":2240053,"internal_node_id":"0.0-5.0-28.0"},{"group":"hexagon_tri","fractal_assignment":["../images/gry_blk.png","../images/blu_wht.png","../images/org_blu.png","../images/cyn_red.png","../images/ylw_slt.png","../images/pnk_blu.png"],"mutagen_generator_assignment":[0,1],"goal":1,"start":0,"action_noise":0.15,"location_history":"[0,1]","action_history":"[1]","mutagen_history":"[1]","location_rts":"[1135]","trial_type":"fractal-mutation","trial_index":83,"time_elapsed":2246007,"internal_node_id":"0.0-5.0-29.0"},{"group":"hexagon_tri","fractal_assignment":["../images/gry_blk.png","../images/blu_wht.png","../images/org_blu.png","../images/cyn_red.png","../images/ylw_slt.png","../images/pnk_blu.png"],"mutagen_generator_assignment":[0,1],"goal":4,"start":1,"action_noise":0.15,"location_history":"[1,3,2,1,5,0,1,5,4]","action_history":"[0,0,1,1,1,1,1,0]","mutagen_history":"[0,0,1,1,1,1,1,0]","location_rts":"[406,569,595,684,523,919,295,171]","trial_type":"fractal-mutation","trial_index":84,"time_elapsed":2263598,"internal_node_id":"0.0-5.0-30.0"},{"group":"hexagon_tri","fractal_assignment":["../images/gry_blk.png","../images/blu_wht.png","../images/org_blu.png","../images/cyn_red.png","../images/ylw_slt.png","../images/pnk_blu.png"],"mutagen_generator_assignment":[0,1],"goal":5,"start":4,"action_noise":0.15,"location_history":"[4,2,3,4,2,3,4,2,3,2,1,3,2,3,2,1,3,2,1,3,4,2,3,2,1,3,2,1,3,4,0,5]","action_history":"[1,1,1,1,1,1,1,1,0,0,0,0,1,0,0,1,1,0,0,1,1,0,0,0,0,0,0,0,0,0,0]","mutagen_history":"[1,1,1,1,1,1,1,1,0,0,0,0,1,0,0,1,1,0,0,1,1,0,0,0,0,0,0,0,0,0,0]","location_rts":"[313,292,6,267,215,92,332,316,69,941,953,3,73,690,2565,581,963,838,58,4053,1383,644,945,932,865,602,1218,429,329,596,618]","trial_type":"fractal-mutation","trial_index":85,"time_elapsed":2327091,"internal_node_id":"0.0-5.0-31.0"},{"group":"hexagon_tri","fractal_assignment":["../images/gry_blk.png","../images/blu_wht.png","../images/org_blu.png","../images/cyn_red.png","../images/ylw_slt.png","../images/pnk_blu.png"],"mutagen_generator_assignment":[0,1],"goal":0,"start":5,"action_noise":0.15,"location_history":"[5,4,0]","action_history":"[0,0]","mutagen_history":"[0,0]","location_rts":"[524,417]","trial_type":"fractal-mutation","trial_index":86,"time_elapsed":2333921,"internal_node_id":"0.0-5.0-32.0"},{"group":"hexagon_tri","fractal_assignment":["../images/gry_blk.png","../images/blu_wht.png","../images/org_blu.png","../images/cyn_red.png","../images/ylw_slt.png","../images/pnk_blu.png"],"mutagen_generator_assignment":[0,1],"goal":3,"start":0,"action_noise":0.15,"location_history":"[0,5,0,1,3]","action_history":"[1,1,1,0]","mutagen_history":"[1,1,1,0]","location_rts":"[843,175,2848,2106]","trial_type":"fractal-mutation","trial_index":87,"time_elapsed":2348474,"internal_node_id":"0.0-5.0-33.0"},{"group":"hexagon_tri","fractal_assignment":["../images/gry_blk.png","../images/blu_wht.png","../images/org_blu.png","../images/cyn_red.png","../images/ylw_slt.png","../images/pnk_blu.png"],"mutagen_generator_assignment":[0,1],"goal":1,"start":3,"action_noise":0.15,"location_history":"[3,4,0,1]","action_history":"[1,0,1]","mutagen_history":"[1,0,1]","location_rts":"[1269,375,582]","trial_type":"fractal-mutation","trial_index":88,"time_elapsed":2357995,"internal_node_id":"0.0-5.0-34.0"},{"group":"hexagon_tri","fractal_assignment":["../images/gry_blk.png","../images/blu_wht.png","../images/org_blu.png","../images/cyn_red.png","../images/ylw_slt.png","../images/pnk_blu.png"],"mutagen_generator_assignment":[0,1],"goal":2,"start":1,"action_noise":0.15,"location_history":"[1,5,0,1,5,4,2]","action_history":"[1,1,1,1,1,1]","mutagen_history":"[1,1,1,1,1,1]","location_rts":"[814,673,26,354,706,160]","trial_type":"fractal-mutation","trial_index":89,"time_elapsed":2371745,"internal_node_id":"0.0-5.0-35.0"},{"group":"hexagon_tri","fractal_assignment":["../images/gry_blk.png","../images/blu_wht.png","../images/org_blu.png","../images/cyn_red.png","../images/ylw_slt.png","../images/pnk_blu.png"],"mutagen_generator_assignment":[0,1],"goal":4,"start":2,"action_noise":0.15,"location_history":"[2,1,3,2,3,4]","action_history":"[0,0,0,1,1]","mutagen_history":"[0,0,0,1,1]","location_rts":"[26963,716,288,664,50]","trial_type":"fractal-mutation","trial_index":90,"time_elapsed":2410082,"internal_node_id":"0.0-5.0-36.0"},{"group":"hexagon_tri","fractal_assignment":["../images/gry_blk.png","../images/blu_wht.png","../images/org_blu.png","../images/cyn_red.png","../images/ylw_slt.png","../images/pnk_blu.png"],"mutagen_generator_assignment":[0,1],"goal":5,"start":4,"action_noise":0.15,"location_history":"[4,0,5]","action_history":"[1,1]","mutagen_history":"[1,1]","location_rts":"[893,302]","trial_type":"fractal-mutation","trial_index":91,"time_elapsed":2417296,"internal_node_id":"0.0-5.0-37.0"},{"group":"hexagon_tri","fractal_assignment":["../images/gry_blk.png","../images/blu_wht.png","../images/org_blu.png","../images/cyn_red.png","../images/ylw_slt.png","../images/pnk_blu.png"],"mutagen_generator_assignment":[0,1],"goal":1,"start":5,"action_noise":0.15,"location_history":"[5,4,2,1]","action_history":"[0,0,0]","mutagen_history":"[0,0,0]","location_rts":"[135,206,342]","trial_type":"fractal-mutation","trial_index":92,"time_elapsed":2425173,"internal_node_id":"0.0-5.0-38.0"},{"group":"hexagon_tri","fractal_assignment":["../images/gry_blk.png","../images/blu_wht.png","../images/org_blu.png","../images/cyn_red.png","../images/ylw_slt.png","../images/pnk_blu.png"],"mutagen_generator_assignment":[0,1],"goal":4,"start":1,"action_noise":0.15,"location_history":"[1,3,4]","action_history":"[1,1]","mutagen_history":"[1,1]","location_rts":"[1508,1077]","trial_type":"fractal-mutation","trial_index":93,"time_elapsed":2433767,"internal_node_id":"0.0-5.0-39.0"},{"group":"hexagon_tri","fractal_assignment":["../images/gry_blk.png","../images/blu_wht.png","../images/org_blu.png","../images/cyn_red.png","../images/ylw_slt.png","../images/pnk_blu.png"],"mutagen_generator_assignment":[0,1],"goal":3,"start":4,"action_noise":0.15,"location_history":"[4,0,5,0,1,3]","action_history":"[0,0,1,1,1]","mutagen_history":"[0,0,1,1,1]","location_rts":"[664,663,937,148,127]","trial_type":"fractal-mutation","trial_index":94,"time_elapsed":2446104,"internal_node_id":"0.0-5.0-40.0"},{"group":"hexagon_tri","fractal_assignment":["../images/gry_blk.png","../images/blu_wht.png","../images/org_blu.png","../images/cyn_red.png","../images/ylw_slt.png","../images/pnk_blu.png"],"mutagen_generator_assignment":[0,1],"goal":2,"start":3,"action_noise":0.15,"location_history":"[3,4,0,5,4,0,1,5,0,1,5,0,1,5,0,1,5,0,1,3,2]","action_history":"[0,0,0,0,0,0,0,1,1,1,1,1,1,1,1,1,1,1,0,0]","mutagen_history":"[0,0,0,0,0,0,0,1,1,1,1,1,1,1,1,1,1,1,0,0]","location_rts":"[366,475,178,140,140,462,383,2319,247,340,2637,912,1755,916,293,245,1544,30,420,252]","trial_type":"fractal-mutation","trial_index":95,"time_elapsed":2488286,"internal_node_id":"0.0-5.0-41.0"},{"group":"hexagon_tri","fractal_assignment":["../images/gry_blk.png","../images/blu_wht.png","../images/org_blu.png","../images/cyn_red.png","../images/ylw_slt.png","../images/pnk_blu.png"],"mutagen_generator_assignment":[0,1],"goal":0,"start":2,"action_noise":0.15,"location_history":"[2,1,3,2,1,3,2,1,3,2,1,3,2,3,4,2,3,4,2,3,4,2,3,4,2,1,5,4,0]","action_history":"[0,0,0,0,0,0,0,0,0,0,0,0,0,1,1,1,1,1,1,1,1,1,1,0,0,0,0,0]","mutagen_history":"[0,0,0,0,0,0,0,0,0,0,0,0,0,1,1,1,1,1,1,1,1,1,1,0,0,0,0,0]","location_rts":"[1112,3550,543,145,420,256,267,727,1433,23,260,1059,1181,703,483,428,188,396,183,133,413,15,43,1587,2623,66,208,268]","trial_type":"fractal-mutation","trial_index":96,"time_elapsed":2545474,"internal_node_id":"0.0-5.0-42.0"},{"group":"hexagon_tri","fractal_assignment":["../images/gry_blk.png","../images/blu_wht.png","../images/org_blu.png","../images/cyn_red.png","../images/ylw_slt.png","../images/pnk_blu.png"],"mutagen_generator_assignment":[0,1],"goal":5,"start":0,"action_noise":0.15,"location_history":"[0,5]","action_history":"[0]","mutagen_history":"[0]","location_rts":"[52316]","trial_type":"fractal-mutation","trial_index":97,"time_elapsed":2602547,"internal_node_id":"0.0-5.0-43.0"},{"group":"hexagon_tri","fractal_assignment":["../images/gry_blk.png","../images/blu_wht.png","../images/org_blu.png","../images/cyn_red.png","../images/ylw_slt.png","../images/pnk_blu.png"],"mutagen_generator_assignment":[0,1],"goal":0,"start":5,"action_noise":0.15,"location_history":"[5,0]","action_history":"[1]","mutagen_history":"[1]","location_rts":"[3475]","trial_type":"fractal-mutation","trial_index":98,"time_elapsed":2610799,"internal_node_id":"0.0-5.0-44.0"},{"group":"hexagon_tri","fractal_assignment":["../images/gry_blk.png","../images/blu_wht.png","../images/org_blu.png","../images/cyn_red.png","../images/ylw_slt.png","../images/pnk_blu.png"],"mutagen_generator_assignment":[0,1],"goal":2,"start":0,"action_noise":0.15,"location_history":"[0,5,4,2]","action_history":"[0,0,1]","mutagen_history":"[0,0,1]","location_rts":"[21939,1062,1086]","trial_type":"fractal-mutation","trial_index":99,"time_elapsed":2642177,"internal_node_id":"0.0-5.0-45.0"},{"group":"hexagon_tri","fractal_assignment":["../images/gry_blk.png","../images/blu_wht.png","../images/org_blu.png","../images/cyn_red.png","../images/ylw_slt.png","../images/pnk_blu.png"],"mutagen_generator_assignment":[0,1],"goal":4,"start":2,"action_noise":0.15,"location_history":"[2,1,5,4]","action_history":"[0,1,1]","mutagen_history":"[0,1,1]","location_rts":"[1891,987,1641]","trial_type":"fractal-mutation","trial_index":100,"time_elapsed":2653983,"internal_node_id":"0.0-5.0-46.0"},{"group":"hexagon_tri","fractal_assignment":["../images/gry_blk.png","../images/blu_wht.png","../images/org_blu.png","../images/cyn_red.png","../images/ylw_slt.png","../images/pnk_blu.png"],"mutagen_generator_assignment":[0,1],"goal":1,"start":4,"action_noise":0.15,"location_history":"[4,0,5,0,1]","action_history":"[0,0,1,1]","mutagen_history":"[0,0,1,1]","location_rts":"[1942,1179,788,3897]","trial_type":"fractal-mutation","trial_index":101,"time_elapsed":2670302,"internal_node_id":"0.0-5.0-47.0"},{"group":"hexagon_tri","fractal_assignment":["../images/gry_blk.png","../images/blu_wht.png","../images/org_blu.png","../images/cyn_red.png","../images/ylw_slt.png","../images/pnk_blu.png"],"mutagen_generator_assignment":[0,1],"goal":5,"start":1,"action_noise":0.15,"location_history":"[1,5]","action_history":"[0]","mutagen_history":"[0]","location_rts":"[694]","trial_type":"fractal-mutation","trial_index":102,"time_elapsed":2675883,"internal_node_id":"0.0-5.0-48.0"},{"group":"hexagon_tri","fractal_assignment":["../images/gry_blk.png","../images/blu_wht.png","../images/org_blu.png","../images/cyn_red.png","../images/ylw_slt.png","../images/pnk_blu.png"],"mutagen_generator_assignment":[0,1],"goal":3,"start":5,"action_noise":0.15,"location_history":"[5,0,1,5,4,0,1,3]","action_history":"[1,1,1,0,0,0,0]","mutagen_history":"[1,1,1,0,0,0,0]","location_rts":"[4027,854,826,746,1244,73,96]","trial_type":"fractal-mutation","trial_index":103,"time_elapsed":2695898,"internal_node_id":"0.0-5.0-49.0"},{"view_history":"[{\"page_index\":0,\"viewing_time\":35821}]","rt":35822,"trial_type":"instructions","trial_index":104,"time_elapsed":2732720,"internal_node_id":"0.0-6.0"},{"rt":30039,"responses":"{\"Q0\":\"A1QUNP6IYOQMZ5\"}","trial_type":"survey-text","trial_index":105,"time_elapsed":2763767,"internal_node_id":"0.0-7.0"}]