[{"view_history":"[{\"page_index\":0,\"viewing_time\":2439},{\"page_index\":1,\"viewing_time\":11999}]","rt":14439,"trial_type":"instructions","trial_index":0,"time_elapsed":14439,"internal_node_id":"0.0-0.0"},{"view_history":"[{\"page_index\":0,\"viewing_time\":6108},{\"page_index\":1,\"viewing_time\":3863}]","rt":9973,"trial_type":"instructions","trial_index":1,"time_elapsed":25415,"internal_node_id":"0.0-1.0"},{"group":"hexagon_bi","room_assignment":["yellow","green","purple","blue","grey","red"],"door_color_assignment":["black","white"],"door_generator_assignment":[1,0],"goal":3,"start":5,"action_noise":0.15,"location_history":"[5,0,1,2,1,2,3]","action_history":"[0,0,0,0,0,1]","door_history":"[1,1,1,1,1,0]","location_rts":"[2809,624,607,899,636,248]","trial_type":"two-door-navigation","trial_index":2,"time_elapsed":41368,"internal_node_id":"0.0-2.0-0.0"},{"group":"hexagon_bi","room_assignment":["yellow","green","purple","blue","grey","red"],"door_color_assignment":["black","white"],"door_generator_assignment":[1,0],"goal":1,"start":3,"action_noise":0.15,"location_history":"[3,2,1]","action_history":"[1,0]","door_history":"[0,1]","location_rts":"[332,292]","trial_type":"two-door-navigation","trial_index":3,"time_elapsed":47538,"internal_node_id":"0.0-2.0-1.0"},{"group":"hexagon_bi","room_assignment":["yellow","green","purple","blue","grey","red"],"door_color_assignment":["black","white"],"door_generator_assignment":[1,0],"goal":0,"start":1,"action_noise":0.15,"location_history":"[1,2,1,2,1,0]","action_history":"[0,0,0,0,1]","door_history":"[1,1,1,1,0]","location_rts":"[683,236,324,387,197]","trial_type":"two-door-navigation","trial_index":4,"time_elapsed":57968,"internal_node_id":"0.0-2.0-2.0"},{"group":"hexagon_bi","room_assignment":["yellow","green","purple","blue","grey","red"],"door_color_assignment":["black","white"],"door_generator_assignment":[1,0],"goal":3,"start":0,"action_noise":0.15,"location_history":"[0,5,0,5,0,5,4,3]","action_history":"[1,1,0,1,0,1,0]","door_history":"[0,0,1,0,1,0,1]","location_rts":"[429,347,971,1108,908,258,508]","trial_type":"two-door-navigation","trial_index":5,"time_elapsed":73145,"internal_node_id":"0.0-2.0-3.0"},{"group":"hexagon_bi","room_assignment":["yellow","green","purple","blue","grey","red"],"door_color_assignment":["black","white"],"door_generator_assignment":[1,0],"goal":4,"start":3,"action_noise":0.15,"location_history":"[3,2,3,4]","action_history":"[1,0,0]","door_history":"[0,1,1]","location_rts":"[379,186,611]","trial_type":"two-door-navigation","trial_index":6,"time_elapsed":80888,"internal_node_id":"0.0-2.0-4.0"},{"group":"hexagon_bi","room_assignment":["yellow","green","purple","blue","grey","red"],"door_color_assignment":["black","white"],"door_generator_assignment":[1,0],"goal":2,"start":4,"action_noise":0.15,"location_history":"[4,3,2]","action_history":"[1,1]","door_history":"[0,0]","location_rts":"[509,372]","trial_type":"two-door-navigation","trial_index":7,"time_elapsed":87313,"internal_node_id":"0.0-2.0-5.0"},{"group":"hexagon_bi","room_assignment":["yellow","green","purple","blue","grey","red"],"door_color_assignment":["black","white"],"door_generator_assignment":[1,0],"goal":1,"start":2,"action_noise":0.15,"location_history":"[2,1]","action_history":"[0]","door_history":"[1]","location_rts":"[339]","trial_type":"two-door-navigation","trial_index":8,"time_elapsed":92177,"internal_node_id":"0.0-2.0-6.0"},{"group":"hexagon_bi","room_assignment":["yellow","green","purple","blue","grey","red"],"door_color_assignment":["black","white"],"door_generator_assignment":[1,0],"goal":5,"start":1,"action_noise":0.15,"location_history":"[1,2,1,2,3,4,5]","action_history":"[1,0,0,1,0,1]","door_history":"[0,1,1,0,1,0]","location_rts":"[331,620,243,316,301,414]","trial_type":"two-door-navigation","trial_index":9,"time_elapsed":104056,"internal_node_id":"0.0-2.0-7.0"},{"group":"hexagon_bi","room_assignment":["yellow","green","purple","blue","grey","red"],"door_color_assignment":["black","white"],"door_generator_assignment":[1,0],"goal":4,"start":5,"action_noise":0.15,"location_history":"[5,4]","action_history":"[0]","door_history":"[1]","location_rts":"[399]","trial_type":"two-door-navigation","trial_index":10,"time_elapsed":108979,"internal_node_id":"0.0-2.0-8.0"},{"group":"hexagon_bi","room_assignment":["yellow","green","purple","blue","grey","red"],"door_color_assignment":["black","white"],"door_generator_assignment":[1,0],"goal":2,"start":4,"action_noise":0.15,"location_history":"[4,5,4,5,0,5,0,5,4,3,2]","action_history":"[1,1,1,0,0,0,0,1,0,1]","door_history":"[0,0,0,1,1,1,1,0,1,0]","location_rts":"[491,338,340,107,389,364,363,467,259,245]","trial_type":"two-door-navigation","trial_index":11,"time_elapsed":126048,"internal_node_id":"0.0-2.0-9.0"},{"group":"hexagon_bi","room_assignment":["yellow","green","purple","blue","grey","red"],"door_color_assignment":["black","white"],"door_generator_assignment":[1,0],"goal":0,"start":2,"action_noise":0.15,"location_history":"[2,1,0]","action_history":"[0,1]","door_history":"[1,0]","location_rts":"[510,174]","trial_type":"two-door-navigation","trial_index":12,"time_elapsed":132274,"internal_node_id":"0.0-2.0-10.0"},{"group":"hexagon_bi","room_assignment":["yellow","green","purple","blue","grey","red"],"door_color_assignment":["black","white"],"door_generator_assignment":[1,0],"goal":1,"start":0,"action_noise":0.15,"location_history":"[0,1]","action_history":"[1]","door_history":"[0]","location_rts":"[362]","trial_type":"two-door-navigation","trial_index":13,"time_elapsed":137162,"internal_node_id":"0.0-2.0-11.0"},{"group":"hexagon_bi","room_assignment":["yellow","green","purple","blue","grey","red"],"door_color_assignment":["black","white"],"door_generator_assignment":[1,0],"goal":3,"start":1,"action_noise":0.15,"location_history":"[1,0,5,0,5,0,5,4,5,4,5,0,5,4,3]","action_history":"[1,0,0,1,1,0,1,0,1,1,0,1,0,0]","door_history":"[0,1,1,0,0,1,0,1,0,0,1,0,1,1]","location_rts":"[443,155,267,197,234,233,242,172,154,139,236,157,98,252]","trial_type":"two-door-navigation","trial_index":14,"time_elapsed":158048,"internal_node_id":"0.0-2.0-12.0"},{"group":"hexagon_bi","room_assignment":["yellow","green","purple","blue","grey","red"],"door_color_assignment":["black","white"],"door_generator_assignment":[1,0],"goal":5,"start":3,"action_noise":0.15,"location_history":"[3,2,1,2,3,4,5]","action_history":"[1,0,0,1,0,1]","door_history":"[0,1,1,0,1,0]","location_rts":"[548,708,275,44,117,76]","trial_type":"two-door-navigation","trial_index":15,"time_elapsed":169441,"internal_node_id":"0.0-2.0-13.0"},{"group":"hexagon_bi","room_assignment":["yellow","green","purple","blue","grey","red"],"door_color_assignment":["black","white"],"door_generator_assignment":[1,0],"goal":4,"start":5,"action_noise":0.15,"location_history":"[5,0,1,0,1,2,3,2,1,2,3,4]","action_history":"[0,1,0,1,0,0,1,0,0,1,0]","door_history":"[1,0,1,0,1,1,0,1,1,0,1]","location_rts":"[340,6,171,805,60,164,68,60,188,2845,326]","trial_type":"two-door-navigation","trial_index":16,"time_elapsed":189193,"internal_node_id":"0.0-2.0-14.0"},{"group":"hexagon_bi","room_assignment":["yellow","green","purple","blue","grey","red"],"door_color_assignment":["black","white"],"door_generator_assignment":[1,0],"goal":0,"start":4,"action_noise":0.15,"location_history":"[4,3,2,1,2,3,2,1,0]","action_history":"[0,1,0,0,1,1,0,1]","door_history":"[1,0,1,1,0,0,1,0]","location_rts":"[348,341,235,164,124,252,98,251]","trial_type":"two-door-navigation","trial_index":17,"time_elapsed":202678,"internal_node_id":"0.0-2.0-15.0"},{"group":"hexagon_bi","room_assignment":["yellow","green","purple","blue","grey","red"],"door_color_assignment":["black","white"],"door_generator_assignment":[1,0],"goal":3,"start":0,"action_noise":0.15,"location_history":"[0,5,4,5,4,5,0,5,0,5,4,5,0,5,4,5,0,5,0,1,0,5,4,3]","action_history":"[0,1,1,0,1,0,0,1,0,0,1,0,0,1,0,0,0,0,1,1,0,1,0]","door_history":"[1,0,0,1,0,1,1,0,1,1,0,1,1,0,1,1,1,1,0,0,1,0,1]","location_rts":"[444,37,170,52,76,75,107,132,84,215,165,228,93,122,28,155,206,244,90,164,114,100,155]","trial_type":"two-door-navigation","trial_index":18,"time_elapsed":232926,"internal_node_id":"0.0-2.0-16.0"},{"group":"hexagon_bi","room_assignment":["yellow","green","purple","blue","grey","red"],"door_color_assignment":["black","white"],"door_generator_assignment":[1,0],"goal":1,"start":3,"action_noise":0.15,"location_history":"[3,4,3,2,1]","action_history":"[1,0,1,0]","door_history":"[0,1,0,1]","location_rts":"[279,420,365,188]","trial_type":"two-door-navigation","trial_index":19,"time_elapsed":241760,"internal_node_id":"0.0-2.0-17.0"},{"group":"hexagon_bi","room_assignment":["yellow","green","purple","blue","grey","red"],"door_color_assignment":["black","white"],"door_generator_assignment":[1,0],"goal":5,"start":1,"action_noise":0.15,"location_history":"[1,0,5]","action_history":"[1,0]","door_history":"[0,1]","location_rts":"[485,4]","trial_type":"two-door-navigation","trial_index":20,"time_elapsed":247793,"internal_node_id":"0.0-2.0-18.0"},{"group":"hexagon_bi","room_assignment":["yellow","green","purple","blue","grey","red"],"door_color_assignment":["black","white"],"door_generator_assignment":[1,0],"goal":2,"start":5,"action_noise":0.15,"location_history":"[5,0,1,2]","action_history":"[0,1,0]","door_history":"[1,0,1]","location_rts":"[996,325,109]","trial_type":"two-door-navigation","trial_index":21,"time_elapsed":255783,"internal_node_id":"0.0-2.0-19.0"},{"group":"hexagon_bi","room_assignment":["yellow","green","purple","blue","grey","red"],"door_color_assignment":["black","white"],"door_generator_assignment":[1,0],"goal":4,"start":2,"action_noise":0.15,"location_history":"[2,1,2,3,2,1,2,3,2,1,2,3,4]","action_history":"[1,0,1,1,0,0,1,1,0,0,1,0]","door_history":"[0,1,0,0,1,1,0,0,1,1,0,1]","location_rts":"[365,348,405,251,125,155,117,251,110,154,53,149]","trial_type":"two-door-navigation","trial_index":22,"time_elapsed":274008,"internal_node_id":"0.0-2.0-20.0"},{"group":"hexagon_bi","room_assignment":["yellow","green","purple","blue","grey","red"],"door_color_assignment":["black","white"],"door_generator_assignment":[1,0],"goal":1,"start":4,"action_noise":0.15,"location_history":"[4,3,2,1]","action_history":"[0,1,0]","door_history":"[1,0,1]","location_rts":"[476,53,61]","trial_type":"two-door-navigation","trial_index":23,"time_elapsed":281161,"internal_node_id":"0.0-2.0-21.0"},{"group":"hexagon_bi","room_assignment":["yellow","green","purple","blue","grey","red"],"door_color_assignment":["black","white"],"door_generator_assignment":[1,0],"goal":3,"start":1,"action_noise":0.15,"location_history":"[1,2,3]","action_history":"[0,1]","door_history":"[1,0]","location_rts":"[771,6477]","trial_type":"two-door-navigation","trial_index":24,"time_elapsed":293953,"internal_node_id":"0.0-2.0-22.0"},{"group":"hexagon_bi","room_assignment":["yellow","green","purple","blue","grey","red"],"door_color_assignment":["black","white"],"door_generator_assignment":[1,0],"goal":2,"start":3,"action_noise":0.15,"location_history":"[3,4,5,0,5,4,5,4,3,2]","action_history":"[0,1,0,0,1,1,1,0,1]","door_history":"[1,0,1,1,0,0,0,1,0]","location_rts":"[381,123,98,124,5,276,267,86,220]","trial_type":"two-door-navigation","trial_index":25,"time_elapsed":308216,"internal_node_id":"0.0-2.0-23.0"},{"group":"hexagon_bi","room_assignment":["yellow","green","purple","blue","grey","red"],"door_color_assignment":["black","white"],"door_generator_assignment":[1,0],"goal":0,"start":2,"action_noise":0.15,"location_history":"[2,1,0]","action_history":"[0,1]","door_history":"[1,0]","location_rts":"[389,108]","trial_type":"two-door-navigation","trial_index":26,"time_elapsed":314257,"internal_node_id":"0.0-2.0-24.0"},{"group":"hexagon_bi","room_assignment":["yellow","green","purple","blue","grey","red"],"door_color_assignment":["black","white"],"door_generator_assignment":[1,0],"goal":5,"start":0,"action_noise":0.15,"location_history":"[0,5]","action_history":"[0]","door_history":"[1]","location_rts":"[412]","trial_type":"two-door-navigation","trial_index":27,"time_elapsed":319191,"internal_node_id":"0.0-2.0-25.0"},{"group":"hexagon_bi","room_assignment":["yellow","green","purple","blue","grey","red"],"door_color_assignment":["black","white"],"door_generator_assignment":[1,0],"goal":2,"start":5,"action_noise":0.15,"location_history":"[5,4,3,4,3,2]","action_history":"[1,0,1,0,1]","door_history":"[0,1,0,1,0]","location_rts":"[422,260,145,932,331]","trial_type":"two-door-navigation","trial_index":28,"time_elapsed":329888,"internal_node_id":"0.0-2.0-26.0"},{"group":"hexagon_bi","room_assignment":["yellow","green","purple","blue","grey","red"],"door_color_assignment":["black","white"],"door_generator_assignment":[1,0],"goal":3,"start":2,"action_noise":0.15,"location_history":"[2,1,0,5,4,3]","action_history":"[0,1,0,1,0]","door_history":"[1,0,1,0,1]","location_rts":"[758,148,667,235,43]","trial_type":"two-door-navigation","trial_index":29,"time_elapsed":340345,"internal_node_id":"0.0-2.0-27.0"},{"group":"hexagon_bi","room_assignment":["yellow","green","purple","blue","grey","red"],"door_color_assignment":["black","white"],"door_generator_assignment":[1,0],"goal":0,"start":3,"action_noise":0.15,"location_history":"[3,2,1,0]","action_history":"[1,0,1]","door_history":"[0,1,0]","location_rts":"[772,614,995]","trial_type":"two-door-navigation","trial_index":30,"time_elapsed":349286,"internal_node_id":"0.0-2.0-28.0"},{"group":"hexagon_bi","room_assignment":["yellow","green","purple","blue","grey","red"],"door_color_assignment":["black","white"],"door_generator_assignment":[1,0],"goal":1,"start":0,"action_noise":0.15,"location_history":"[0,5,4,3,2,3,4,5,0,5,4,3,2,3,2,3,2,3,2,1]","action_history":"[0,1,0,1,1,0,1,0,1,0,0,1,1,0,1,0,0,1,0]","door_history":"[1,0,1,0,0,1,0,1,0,1,1,0,0,1,0,1,1,0,1]","location_rts":"[448,259,211,30,236,82,204,103,380,51,156,21,132,4,45,27,106,123,35]","trial_type":"two-door-navigation","trial_index":31,"time_elapsed":374825,"internal_node_id":"0.0-2.0-29.0"},{"group":"hexagon_bi","room_assignment":["yellow","green","purple","blue","grey","red"],"door_color_assignment":["black","white"],"door_generator_assignment":[1,0],"goal":4,"start":1,"action_noise":0.15,"location_history":"[1,2,3,4]","action_history":"[0,1,0]","door_history":"[1,0,1]","location_rts":"[508,84,60]","trial_type":"two-door-navigation","trial_index":32,"time_elapsed":382041,"internal_node_id":"0.0-2.0-30.0"},{"group":"hexagon_bi","room_assignment":["yellow","green","purple","blue","grey","red"],"door_color_assignment":["black","white"],"door_generator_assignment":[1,0],"goal":5,"start":4,"action_noise":0.15,"location_history":"[4,3,4,5]","action_history":"[0,1,1]","door_history":"[1,0,0]","location_rts":"[3747,332,363]","trial_type":"two-door-navigation","trial_index":33,"time_elapsed":393048,"internal_node_id":"0.0-2.0-31.0"},{"group":"hexagon_bi","room_assignment":["yellow","green","purple","blue","grey","red"],"door_color_assignment":["black","white"],"door_generator_assignment":[1,0],"goal":0,"start":5,"action_noise":0.15,"location_history":"[5,0]","action_history":"[0]","door_history":"[1]","location_rts":"[598]","trial_type":"two-door-navigation","trial_index":34,"time_elapsed":398167,"internal_node_id":"0.0-2.0-32.0"},{"group":"hexagon_bi","room_assignment":["yellow","green","purple","blue","grey","red"],"door_color_assignment":["black","white"],"door_generator_assignment":[1,0],"goal":3,"start":0,"action_noise":0.15,"location_history":"[0,1,2,1,0,1,2,3]","action_history":"[1,0,0,1,1,0,1]","door_history":"[0,1,1,0,0,1,0]","location_rts":"[405,181,227,108,211,125,188]","trial_type":"two-door-navigation","trial_index":35,"time_elapsed":410256,"internal_node_id":"0.0-2.0-33.0"},{"group":"hexagon_bi","room_assignment":["yellow","green","purple","blue","grey","red"],"door_color_assignment":["black","white"],"door_generator_assignment":[1,0],"goal":1,"start":3,"action_noise":0.15,"location_history":"[3,2,3,4,3,4,3,2,1]","action_history":"[0,1,1,0,0,0,1,0]","door_history":"[1,0,0,1,1,1,0,1]","location_rts":"[526,403,307,133,214,243,36,84]","trial_type":"two-door-navigation","trial_index":36,"time_elapsed":423863,"internal_node_id":"0.0-2.0-34.0"},{"group":"hexagon_bi","room_assignment":["yellow","green","purple","blue","grey","red"],"door_color_assignment":["black","white"],"door_generator_assignment":[1,0],"goal":2,"start":1,"action_noise":0.15,"location_history":"[1,0,5,4,3,4,5,4,3,2]","action_history":"[1,0,1,0,0,1,1,0,1]","door_history":"[0,1,0,1,1,0,0,1,0]","location_rts":"[317,28,36,75,115,91,186,45,99]","trial_type":"two-door-navigation","trial_index":37,"time_elapsed":437545,"internal_node_id":"0.0-2.0-35.0"},{"group":"hexagon_bi","room_assignment":["yellow","green","purple","blue","grey","red"],"door_color_assignment":["black","white"],"door_generator_assignment":[1,0],"goal":4,"start":2,"action_noise":0.15,"location_history":"[2,3,4]","action_history":"[1,0]","door_history":"[0,1]","location_rts":"[1068,326]","trial_type":"two-door-navigation","trial_index":38,"time_elapsed":444479,"internal_node_id":"0.0-2.0-36.0"},{"group":"hexagon_bi","room_assignment":["yellow","green","purple","blue","grey","red"],"door_color_assignment":["black","white"],"door_generator_assignment":[1,0],"goal":5,"start":4,"action_noise":0.15,"location_history":"[4,3,2,1,2,1,2,3,2,3,4,5]","action_history":"[0,1,0,1,0,0,1,1,1,0,1]","door_history":"[1,0,1,0,1,1,0,0,0,1,0]","location_rts":"[821,52,36,75,59,106,595,307,371,548,413]","trial_type":"two-door-navigation","trial_index":39,"time_elapsed":462592,"internal_node_id":"0.0-2.0-37.0"},{"group":"hexagon_bi","room_assignment":["yellow","green","purple","blue","grey","red"],"door_color_assignment":["black","white"],"door_generator_assignment":[1,0],"goal":1,"start":5,"action_noise":0.15,"location_history":"[5,0,5,0,5,0,1]","action_history":"[0,1,0,0,1,1]","door_history":"[1,0,1,1,0,0]","location_rts":"[437,91,141,131,109,259]","trial_type":"two-door-navigation","trial_index":40,"time_elapsed":473384,"internal_node_id":"0.0-2.0-38.0"},{"group":"hexagon_bi","room_assignment":["yellow","green","purple","blue","grey","red"],"door_color_assignment":["black","white"],"door_generator_assignment":[1,0],"goal":4,"start":1,"action_noise":0.15,"location_history":"[1,0,1,0,1,0,5,4]","action_history":"[1,0,1,1,0,0,1]","door_history":"[0,1,0,0,1,1,0]","location_rts":"[710,235,100,227,178,260,258]","trial_type":"two-door-navigation","trial_index":41,"time_elapsed":485999,"internal_node_id":"0.0-2.0-39.0"},{"group":"hexagon_bi","room_assignment":["yellow","green","purple","blue","grey","red"],"door_color_assignment":["black","white"],"door_generator_assignment":[1,0],"goal":3,"start":4,"action_noise":0.15,"location_history":"[4,3]","action_history":"[0]","door_history":"[1]","location_rts":"[622]","trial_type":"two-door-navigation","trial_index":42,"time_elapsed":491145,"internal_node_id":"0.0-2.0-40.0"},{"group":"hexagon_bi","room_assignment":["yellow","green","purple","blue","grey","red"],"door_color_assignment":["black","white"],"door_generator_assignment":[1,0],"goal":2,"start":3,"action_noise":0.15,"location_history":"[3,4,3,4,5,0,1,2]","action_history":"[0,1,1,1,0,0,0]","door_history":"[1,0,0,0,1,1,1]","location_rts":"[540,109,237,291,476,77,124]","trial_type":"two-door-navigation","trial_index":43,"time_elapsed":503641,"internal_node_id":"0.0-2.0-41.0"},{"group":"hexagon_bi","room_assignment":["yellow","green","purple","blue","grey","red"],"door_color_assignment":["black","white"],"door_generator_assignment":[1,0],"goal":0,"start":2,"action_noise":0.15,"location_history":"[2,3,2,1,0]","action_history":"[1,0,0,1]","door_history":"[0,1,1,0]","location_rts":"[707,189,660,38]","trial_type":"two-door-navigation","trial_index":44,"time_elapsed":512818,"internal_node_id":"0.0-2.0-42.0"},{"group":"hexagon_bi","room_assignment":["yellow","green","purple","blue","grey","red"],"door_color_assignment":["black","white"],"door_generator_assignment":[1,0],"goal":5,"start":0,"action_noise":0.15,"location_history":"[0,1,0,1,2,3,2,1,2,1,0,1,2,1,2,3,4,5]","action_history":"[1,0,1,0,1,1,0,0,0,1,1,0,0,1,0,0,1]","door_history":"[0,1,0,1,0,0,1,1,1,0,0,1,1,0,1,1,0]","location_rts":"[2100,874,76,435,165,260,180,173,164,108,195,148,289,131,68,316,142]","trial_type":"two-door-navigation","trial_index":45,"time_elapsed":539489,"internal_node_id":"0.0-2.0-43.0"},{"group":"hexagon_bi","room_assignment":["yellow","green","purple","blue","grey","red"],"door_color_assignment":["black","white"],"door_generator_assignment":[1,0],"goal":0,"start":5,"action_noise":0.15,"location_history":"[5,0]","action_history":"[0]","door_history":"[1]","location_rts":"[357]","trial_type":"two-door-navigation","trial_index":46,"time_elapsed":544367,"internal_node_id":"0.0-2.0-44.0"},{"group":"hexagon_bi","room_assignment":["yellow","green","purple","blue","grey","red"],"door_color_assignment":["black","white"],"door_generator_assignment":[1,0],"goal":2,"start":0,"action_noise":0.15,"location_history":"[0,1,2]","action_history":"[1,0]","door_history":"[0,1]","location_rts":"[518,79]","trial_type":"two-door-navigation","trial_index":47,"time_elapsed":550504,"internal_node_id":"0.0-2.0-45.0"},{"group":"hexagon_bi","room_assignment":["yellow","green","purple","blue","grey","red"],"door_color_assignment":["black","white"],"door_generator_assignment":[1,0],"goal":4,"start":2,"action_noise":0.15,"location_history":"[2,3,4]","action_history":"[1,0]","door_history":"[0,1]","location_rts":"[1620,155]","trial_type":"two-door-navigation","trial_index":48,"time_elapsed":557825,"internal_node_id":"0.0-2.0-46.0"},{"group":"hexagon_bi","room_assignment":["yellow","green","purple","blue","grey","red"],"door_color_assignment":["black","white"],"door_generator_assignment":[1,0],"goal":1,"start":4,"action_noise":0.15,"location_history":"[4,3,2,1]","action_history":"[0,1,0]","door_history":"[1,0,1]","location_rts":"[364,171,204]","trial_type":"two-door-navigation","trial_index":49,"time_elapsed":565128,"internal_node_id":"0.0-2.0-47.0"},{"group":"hexagon_bi","room_assignment":["yellow","green","purple","blue","grey","red"],"door_color_assignment":["black","white"],"door_generator_assignment":[1,0],"goal":5,"start":1,"action_noise":0.15,"location_history":"[1,2,3,4,3,2,1,0,5]","action_history":"[0,1,0,0,1,0,1,0]","door_history":"[1,0,1,1,0,1,0,1]","location_rts":"[940,29,86,42,68,46,100,11]","trial_type":"two-door-navigation","trial_index":50,"time_elapsed":578113,"internal_node_id":"0.0-2.0-48.0"},{"group":"hexagon_bi","room_assignment":["yellow","green","purple","blue","grey","red"],"door_color_assignment":["black","white"],"door_generator_assignment":[1,0],"goal":3,"start":5,"action_noise":0.15,"location_history":"[5,4,3]","action_history":"[1,0]","door_history":"[0,1]","location_rts":"[355,28]","trial_type":"two-door-navigation","trial_index":51,"time_elapsed":584040,"internal_node_id":"0.0-2.0-49.0"},{"view_history":"[{\"page_index\":0,\"viewing_time\":1717}]","rt":1717,"trial_type":"instructions","trial_index":52,"time_elapsed":586758,"internal_node_id":"0.0-3.0"},{"view_history":"[{\"page_index\":0,\"viewing_time\":1494},{\"page_index\":1,\"viewing_time\":1168}]","rt":2662,"trial_type":"instructions","trial_index":53,"time_elapsed":590421,"internal_node_id":"0.0-4.0"},{"group":"hexagon_bi","fractal_assignment":["../images/blu_wht.png","../images/cyn_red.png","../images/pnk_blu.png","../images/gry_blk.png","../images/org_blu.png","../images/ylw_slt.png"],"mutagen_generator_assignment":[0,1],"goal":3,"start":5,"action_noise":0.15,"location_history":"[5,0,1,0,5,4,3]","action_history":"[0,1,1,0,1,0]","mutagen_history":"[0,1,1,0,1,0]","location_rts":"[2968,441,427,176,178,185]","trial_type":"fractal-mutation","trial_index":54,"time_elapsed":604492,"internal_node_id":"0.0-5.0-0.0"},{"group":"hexagon_bi","fractal_assignment":["../images/blu_wht.png","../images/cyn_red.png","../images/pnk_blu.png","../images/gry_blk.png","../images/org_blu.png","../images/ylw_slt.png"],"mutagen_generator_assignment":[0,1],"goal":1,"start":3,"action_noise":0.15,"location_history":"[3,2,1]","action_history":"[1,0]","mutagen_history":"[1,0]","location_rts":"[527,227]","trial_type":"fractal-mutation","trial_index":55,"time_elapsed":610809,"internal_node_id":"0.0-5.0-1.0"},{"group":"hexagon_bi","fractal_assignment":["../images/blu_wht.png","../images/cyn_red.png","../images/pnk_blu.png","../images/gry_blk.png","../images/org_blu.png","../images/ylw_slt.png"],"mutagen_generator_assignment":[0,1],"goal":0,"start":1,"action_noise":0.15,"location_history":"[1,2,3,4,5,4,5,0]","action_history":"[0,1,0,1,0,1,0]","mutagen_history":"[0,1,0,1,0,1,0]","location_rts":"[377,195,159,128,138,122,132]","trial_type":"fractal-mutation","trial_index":56,"time_elapsed":622753,"internal_node_id":"0.0-5.0-2.0"},{"group":"hexagon_bi","fractal_assignment":["../images/blu_wht.png","../images/cyn_red.png","../images/pnk_blu.png","../images/gry_blk.png","../images/org_blu.png","../images/ylw_slt.png"],"mutagen_generator_assignment":[0,1],"goal":3,"start":0,"action_noise":0.15,"location_history":"[0,5,0,5,0,1,2,3]","action_history":"[1,0,1,0,1,0,1]","mutagen_history":"[1,0,1,0,1,0,1]","location_rts":"[346,96,137,122,106,102,130]","trial_type":"fractal-mutation","trial_index":57,"time_elapsed":634476,"internal_node_id":"0.0-5.0-3.0"},{"group":"hexagon_bi","fractal_assignment":["../images/blu_wht.png","../images/cyn_red.png","../images/pnk_blu.png","../images/gry_blk.png","../images/org_blu.png","../images/ylw_slt.png"],"mutagen_generator_assignment":[0,1],"goal":4,"start":3,"action_noise":0.15,"location_history":"[3,4]","action_history":"[0]","mutagen_history":"[0]","location_rts":"[303]","trial_type":"fractal-mutation","trial_index":58,"time_elapsed":639305,"internal_node_id":"0.0-5.0-4.0"},{"group":"hexagon_bi","fractal_assignment":["../images/blu_wht.png","../images/cyn_red.png","../images/pnk_blu.png","../images/gry_blk.png","../images/org_blu.png","../images/ylw_slt.png"],"mutagen_generator_assignment":[0,1],"goal":2,"start":4,"action_noise":0.15,"location_history":"[4,5,0,1,2]","action_history":"[1,0,1,0]","mutagen_history":"[1,0,1,0]","location_rts":"[506,108,130,140]","trial_type":"fractal-mutation","trial_index":59,"time_elapsed":647794,"internal_node_id":"0.0-5.0-5.0"},{"group":"hexagon_bi","fractal_assignment":["../images/blu_wht.png","../images/cyn_red.png","../images/pnk_blu.png","../images/gry_blk.png","../images/org_blu.png","../images/ylw_slt.png"],"mutagen_generator_assignment":[0,1],"goal":1,"start":2,"action_noise":0.15,"location_history":"[2,1]","action_history":"[0]","mutagen_history":"[0]","location_rts":"[345]","trial_type":"fractal-mutation","trial_index":60,"time_elapsed":652665,"internal_node_id":"0.0-5.0-6.0"},{"group":"hexagon_bi","fractal_assignment":["../images/blu_wht.png","../images/cyn_red.png","../images/pnk_blu.png","../images/gry_blk.png","../images/org_blu.png","../images/ylw_slt.png"],"mutagen_generator_assignment":[0,1],"goal":5,"start":1,"action_noise":0.15,"location_history":"[1,0,5]","action_history":"[1,0]","mutagen_history":"[1,0]","location_rts":"[306,122]","trial_type":"fractal-mutation","trial_index":61,"time_elapsed":658641,"internal_node_id":"0.0-5.0-7.0"},{"group":"hexagon_bi","fractal_assignment":["../images/blu_wht.png","../images/cyn_red.png","../images/pnk_blu.png","../images/gry_blk.png","../images/org_blu.png","../images/ylw_slt.png"],"mutagen_generator_assignment":[0,1],"goal":4,"start":5,"action_noise":0.15,"location_history":"[5,4]","action_history":"[0]","mutagen_history":"[0]","location_rts":"[378]","trial_type":"fractal-mutation","trial_index":62,"time_elapsed":663544,"internal_node_id":"0.0-5.0-8.0"},{"group":"hexagon_bi","fractal_assignment":["../images/blu_wht.png","../images/cyn_red.png","../images/pnk_blu.png","../images/gry_blk.png","../images/org_blu.png","../images/ylw_slt.png"],"mutagen_generator_assignment":[0,1],"goal":2,"start":4,"action_noise":0.15,"location_history":"[4,5,0,5,0,1,0,1,2]","action_history":"[1,0,1,0,1,0,1,0]","mutagen_history":"[1,0,1,0,1,0,1,0]","location_rts":"[306,189,153,90,170,108,130,118]","trial_type":"fractal-mutation","trial_index":63,"time_elapsed":676521,"internal_node_id":"0.0-5.0-9.0"},{"group":"hexagon_bi","fractal_assignment":["../images/blu_wht.png","../images/cyn_red.png","../images/pnk_blu.png","../images/gry_blk.png","../images/org_blu.png","../images/ylw_slt.png"],"mutagen_generator_assignment":[0,1],"goal":0,"start":2,"action_noise":0.15,"location_history":"[2,3,2,3,2,3,4,5,0]","action_history":"[1,0,1,0,1,0,1,0]","mutagen_history":"[1,0,1,0,1,0,1,0]","location_rts":"[347,125,169,165,145,154,235,166]","trial_type":"fractal-mutation","trial_index":64,"time_elapsed":689728,"internal_node_id":"0.0-5.0-10.0"},{"group":"hexagon_bi","fractal_assignment":["../images/blu_wht.png","../images/cyn_red.png","../images/pnk_blu.png","../images/gry_blk.png","../images/org_blu.png","../images/ylw_slt.png"],"mutagen_generator_assignment":[0,1],"goal":1,"start":0,"action_noise":0.15,"location_history":"[0,5,4,3,4,3,2,1]","action_history":"[0,1,0,1,0,1,0]","mutagen_history":"[0,1,0,1,0,1,0]","location_rts":"[443,178,185,114,198,138,131]","trial_type":"fractal-mutation","trial_index":65,"time_elapsed":701784,"internal_node_id":"0.0-5.0-11.0"},{"group":"hexagon_bi","fractal_assignment":["../images/blu_wht.png","../images/cyn_red.png","../images/pnk_blu.png","../images/gry_blk.png","../images/org_blu.png","../images/ylw_slt.png"],"mutagen_generator_assignment":[0,1],"goal":3,"start":1,"action_noise":0.15,"location_history":"[1,0,5,4,5,4,5,4,3]","action_history":"[1,0,1,0,1,0,1,0]","mutagen_history":"[1,0,1,0,1,0,1,0]","location_rts":"[354,138,82,164,266,113,234,153]","trial_type":"fractal-mutation","trial_index":66,"time_elapsed":714993,"internal_node_id":"0.0-5.0-12.0"},{"group":"hexagon_bi","fractal_assignment":["../images/blu_wht.png","../images/cyn_red.png","../images/pnk_blu.png","../images/gry_blk.png","../images/org_blu.png","../images/ylw_slt.png"],"mutagen_generator_assignment":[0,1],"goal":5,"start":3,"action_noise":0.15,"location_history":"[3,2,3,2,3,2,1,2,1,0,5]","action_history":"[1,0,1,0,1,0,1,0,1,0]","mutagen_history":"[1,0,1,0,1,0,1,0,1,0]","location_rts":"[3026,72,187,75,145,126,35,129,162,125]","trial_type":"fractal-mutation","trial_index":67,"time_elapsed":732816,"internal_node_id":"0.0-5.0-13.0"},{"group":"hexagon_bi","fractal_assignment":["../images/blu_wht.png","../images/cyn_red.png","../images/pnk_blu.png","../images/gry_blk.png","../images/org_blu.png","../images/ylw_slt.png"],"mutagen_generator_assignment":[0,1],"goal":4,"start":5,"action_noise":0.15,"location_history":"[5,4]","action_history":"[1]","mutagen_history":"[1]","location_rts":"[292]","trial_type":"fractal-mutation","trial_index":68,"time_elapsed":737633,"internal_node_id":"0.0-5.0-14.0"},{"group":"hexagon_bi","fractal_assignment":["../images/blu_wht.png","../images/cyn_red.png","../images/pnk_blu.png","../images/gry_blk.png","../images/org_blu.png","../images/ylw_slt.png"],"mutagen_generator_assignment":[0,1],"goal":0,"start":4,"action_noise":0.15,"location_history":"[4,3,2,3,4,3,2,3,4,5,0]","action_history":"[0,1,0,1,0,1,1,0,1,0]","mutagen_history":"[0,1,0,1,0,1,1,0,1,0]","location_rts":"[770,139,100,121,144,177,187,133,315,138]","trial_type":"fractal-mutation","trial_index":69,"time_elapsed":753608,"internal_node_id":"0.0-5.0-15.0"},{"group":"hexagon_bi","fractal_assignment":["../images/blu_wht.png","../images/cyn_red.png","../images/pnk_blu.png","../images/gry_blk.png","../images/org_blu.png","../images/ylw_slt.png"],"mutagen_generator_assignment":[0,1],"goal":3,"start":0,"action_noise":0.15,"location_history":"[0,1,2,3]","action_history":"[1,0,1]","mutagen_history":"[1,0,1]","location_rts":"[410,151,106]","trial_type":"fractal-mutation","trial_index":70,"time_elapsed":760851,"internal_node_id":"0.0-5.0-16.0"},{"group":"hexagon_bi","fractal_assignment":["../images/blu_wht.png","../images/cyn_red.png","../images/pnk_blu.png","../images/gry_blk.png","../images/org_blu.png","../images/ylw_slt.png"],"mutagen_generator_assignment":[0,1],"goal":1,"start":3,"action_noise":0.15,"location_history":"[3,2,1]","action_history":"[1,0]","mutagen_history":"[1,0]","location_rts":"[488,102]","trial_type":"fractal-mutation","trial_index":71,"time_elapsed":766991,"internal_node_id":"0.0-5.0-17.0"},{"group":"hexagon_bi","fractal_assignment":["../images/blu_wht.png","../images/cyn_red.png","../images/pnk_blu.png","../images/gry_blk.png","../images/org_blu.png","../images/ylw_slt.png"],"mutagen_generator_assignment":[0,1],"goal":5,"start":1,"action_noise":0.15,"location_history":"[1,0,5]","action_history":"[1,0]","mutagen_history":"[1,0]","location_rts":"[275,108]","trial_type":"fractal-mutation","trial_index":72,"time_elapsed":772929,"internal_node_id":"0.0-5.0-18.0"},{"group":"hexagon_bi","fractal_assignment":["../images/blu_wht.png","../images/cyn_red.png","../images/pnk_blu.png","../images/gry_blk.png","../images/org_blu.png","../images/ylw_slt.png"],"mutagen_generator_assignment":[0,1],"goal":2,"start":5,"action_noise":0.15,"location_history":"[5,4,3,2]","action_history":"[1,0,1]","mutagen_history":"[1,0,1]","location_rts":"[667,63,114]","trial_type":"fractal-mutation","trial_index":73,"time_elapsed":780362,"internal_node_id":"0.0-5.0-19.0"},{"group":"hexagon_bi","fractal_assignment":["../images/blu_wht.png","../images/cyn_red.png","../images/pnk_blu.png","../images/gry_blk.png","../images/org_blu.png","../images/ylw_slt.png"],"mutagen_generator_assignment":[0,1],"goal":4,"start":2,"action_noise":0.15,"location_history":"[2,3,4]","action_history":"[1,0]","mutagen_history":"[1,0]","location_rts":"[345,111]","trial_type":"fractal-mutation","trial_index":74,"time_elapsed":786376,"internal_node_id":"0.0-5.0-20.0"},{"group":"hexagon_bi","fractal_assignment":["../images/blu_wht.png","../images/cyn_red.png","../images/pnk_blu.png","../images/gry_blk.png","../images/org_blu.png","../images/ylw_slt.png"],"mutagen_generator_assignment":[0,1],"goal":1,"start":4,"action_noise":0.15,"location_history":"[4,3,2,1]","action_history":"[1,0,1]","mutagen_history":"[1,0,1]","location_rts":"[330,104,161]","trial_type":"fractal-mutation","trial_index":75,"time_elapsed":793560,"internal_node_id":"0.0-5.0-21.0"},{"group":"hexagon_bi","fractal_assignment":["../images/blu_wht.png","../images/cyn_red.png","../images/pnk_blu.png","../images/gry_blk.png","../images/org_blu.png","../images/ylw_slt.png"],"mutagen_generator_assignment":[0,1],"goal":3,"start":1,"action_noise":0.15,"location_history":"[1,0,5,4,5,4,5,0,1,2,3]","action_history":"[1,0,1,1,0,1,0,1,0,1]","mutagen_history":"[1,0,1,1,0,1,0,1,0,1]","location_rts":"[530,130,236,288,234,290,584,206,391,193]","trial_type":"fractal-mutation","trial_index":76,"time_elapsed":810413,"internal_node_id":"0.0-5.0-22.0"},{"group":"hexagon_bi","fractal_assignment":["../images/blu_wht.png","../images/cyn_red.png","../images/pnk_blu.png","../images/gry_blk.png","../images/org_blu.png","../images/ylw_slt.png"],"mutagen_generator_assignment":[0,1],"goal":2,"start":3,"action_noise":0.15,"location_history":"[3,2]","action_history":"[1]","mutagen_history":"[1]","location_rts":"[310]","trial_type":"fractal-mutation","trial_index":77,"time_elapsed":815257,"internal_node_id":"0.0-5.0-23.0"},{"group":"hexagon_bi","fractal_assignment":["../images/blu_wht.png","../images/cyn_red.png","../images/pnk_blu.png","../images/gry_blk.png","../images/org_blu.png","../images/ylw_slt.png"],"mutagen_generator_assignment":[0,1],"goal":0,"start":2,"action_noise":0.15,"location_history":"[2,1,2,3,4,5,0]","action_history":"[1,0,1,0,1,0]","mutagen_history":"[1,0,1,0,1,0]","location_rts":"[41,167,106,101,162,189]","trial_type":"fractal-mutation","trial_index":78,"time_elapsed":825672,"internal_node_id":"0.0-5.0-24.0"},{"group":"hexagon_bi","fractal_assignment":["../images/blu_wht.png","../images/cyn_red.png","../images/pnk_blu.png","../images/gry_blk.png","../images/org_blu.png","../images/ylw_slt.png"],"mutagen_generator_assignment":[0,1],"goal":5,"start":0,"action_noise":0.15,"location_history":"[0,5]","action_history":"[0]","mutagen_history":"[0]","location_rts":"[1850]","trial_type":"fractal-mutation","trial_index":79,"time_elapsed":832049,"internal_node_id":"0.0-5.0-25.0"},{"group":"hexagon_bi","fractal_assignment":["../images/blu_wht.png","../images/cyn_red.png","../images/pnk_blu.png","../images/gry_blk.png","../images/org_blu.png","../images/ylw_slt.png"],"mutagen_generator_assignment":[0,1],"goal":2,"start":5,"action_noise":0.15,"location_history":"[5,4,3,2]","action_history":"[1,0,1]","mutagen_history":"[1,0,1]","location_rts":"[2481,126,306]","trial_type":"fractal-mutation","trial_index":80,"time_elapsed":841541,"internal_node_id":"0.0-5.0-26.0"},{"group":"hexagon_bi","fractal_assignment":["../images/blu_wht.png","../images/cyn_red.png","../images/pnk_blu.png","../images/gry_blk.png","../images/org_blu.png","../images/ylw_slt.png"],"mutagen_generator_assignment":[0,1],"goal":3,"start":2,"action_noise":0.15,"location_history":"[2,3]","action_history":"[1]","mutagen_history":"[1]","location_rts":"[478]","trial_type":"fractal-mutation","trial_index":81,"time_elapsed":846550,"internal_node_id":"0.0-5.0-27.0"},{"group":"hexagon_bi","fractal_assignment":["../images/blu_wht.png","../images/cyn_red.png","../images/pnk_blu.png","../images/gry_blk.png","../images/org_blu.png","../images/ylw_slt.png"],"mutagen_generator_assignment":[0,1],"goal":0,"start":3,"action_noise":0.15,"location_history":"[3,2,1,2,1,0]","action_history":"[1,0,1,0,1]","mutagen_history":"[1,0,1,0,1]","location_rts":"[493,197,267,158,154]","trial_type":"fractal-mutation","trial_index":82,"time_elapsed":856446,"internal_node_id":"0.0-5.0-28.0"},{"group":"hexagon_bi","fractal_assignment":["../images/blu_wht.png","../images/cyn_red.png","../images/pnk_blu.png","../images/gry_blk.png","../images/org_blu.png","../images/ylw_slt.png"],"mutagen_generator_assignment":[0,1],"goal":1,"start":0,"action_noise":0.15,"location_history":"[0,1]","action_history":"[1]","mutagen_history":"[1]","location_rts":"[797]","trial_type":"fractal-mutation","trial_index":83,"time_elapsed":861769,"internal_node_id":"0.0-5.0-29.0"},{"group":"hexagon_bi","fractal_assignment":["../images/blu_wht.png","../images/cyn_red.png","../images/pnk_blu.png","../images/gry_blk.png","../images/org_blu.png","../images/ylw_slt.png"],"mutagen_generator_assignment":[0,1],"goal":4,"start":1,"action_noise":0.15,"location_history":"[1,0,5,4]","action_history":"[1,0,1]","mutagen_history":"[1,0,1]","location_rts":"[585,185,282]","trial_type":"fractal-mutation","trial_index":84,"time_elapsed":869396,"internal_node_id":"0.0-5.0-30.0"},{"group":"hexagon_bi","fractal_assignment":["../images/blu_wht.png","../images/cyn_red.png","../images/pnk_blu.png","../images/gry_blk.png","../images/org_blu.png","../images/ylw_slt.png"],"mutagen_generator_assignment":[0,1],"goal":5,"start":4,"action_noise":0.15,"location_history":"[4,5]","action_history":"[1]","mutagen_history":"[1]","location_rts":"[935]","trial_type":"fractal-mutation","trial_index":85,"time_elapsed":874858,"internal_node_id":"0.0-5.0-31.0"},{"group":"hexagon_bi","fractal_assignment":["../images/blu_wht.png","../images/cyn_red.png","../images/pnk_blu.png","../images/gry_blk.png","../images/org_blu.png","../images/ylw_slt.png"],"mutagen_generator_assignment":[0,1],"goal":0,"start":5,"action_noise":0.15,"location_history":"[5,4,5,4,3,2,3,4,5,4,5,0]","action_history":"[1,0,1,0,1,1,0,1,1,0,1]","mutagen_history":"[1,0,1,0,1,1,0,1,1,0,1]","location_rts":"[1137,274,202,960,779,621,177,130,215,136,130]","trial_type":"fractal-mutation","trial_index":86,"time_elapsed":894390,"internal_node_id":"0.0-5.0-32.0"},{"group":"hexagon_bi","fractal_assignment":["../images/blu_wht.png","../images/cyn_red.png","../images/pnk_blu.png","../images/gry_blk.png","../images/org_blu.png","../images/ylw_slt.png"],"mutagen_generator_assignment":[0,1],"goal":3,"start":0,"action_noise":0.15,"location_history":"[0,1,2,1,2,3]","action_history":"[1,0,1,0,1]","mutagen_history":"[1,0,1,0,1]","location_rts":"[382,352,251,187,1033]","trial_type":"fractal-mutation","trial_index":87,"time_elapsed":905219,"internal_node_id":"0.0-5.0-33.0"},{"group":"hexagon_bi","fractal_assignment":["../images/blu_wht.png","../images/cyn_red.png","../images/pnk_blu.png","../images/gry_blk.png","../images/org_blu.png","../images/ylw_slt.png"],"mutagen_generator_assignment":[0,1],"goal":1,"start":3,"action_noise":0.15,"location_history":"[3,2,1]","action_history":"[1,0]","mutagen_history":"[1,0]","location_rts":"[425,321]","trial_type":"fractal-mutation","trial_index":88,"time_elapsed":911513,"internal_node_id":"0.0-5.0-34.0"},{"group":"hexagon_bi","fractal_assignment":["../images/blu_wht.png","../images/cyn_red.png","../images/pnk_blu.png","../images/gry_blk.png","../images/org_blu.png","../images/ylw_slt.png"],"mutagen_generator_assignment":[0,1],"goal":2,"start":1,"action_noise":0.15,"location_history":"[1,2]","action_history":"[0]","mutagen_history":"[0]","location_rts":"[1276]","trial_type":"fractal-mutation","trial_index":89,"time_elapsed":917312,"internal_node_id":"0.0-5.0-35.0"},{"group":"hexagon_bi","fractal_assignment":["../images/blu_wht.png","../images/cyn_red.png","../images/pnk_blu.png","../images/gry_blk.png","../images/org_blu.png","../images/ylw_slt.png"],"mutagen_generator_assignment":[0,1],"goal":4,"start":2,"action_noise":0.15,"location_history":"[2,1,2,1,0,5,0,5,0,5,4]","action_history":"[0,1,0,1,0,1,0,1,0,1]","mutagen_history":"[0,1,0,1,0,1,0,1,0,1]","location_rts":"[1163,307,304,370,310,538,419,273,211,252]","trial_type":"fractal-mutation","trial_index":90,"time_elapsed":935205,"internal_node_id":"0.0-5.0-36.0"},{"group":"hexagon_bi","fractal_assignment":["../images/blu_wht.png","../images/cyn_red.png","../images/pnk_blu.png","../images/gry_blk.png","../images/org_blu.png","../images/ylw_slt.png"],"mutagen_generator_assignment":[0,1],"goal":5,"start":4,"action_noise":0.15,"location_history":"[4,3,4,5]","action_history":"[1,0,1]","mutagen_history":"[1,0,1]","location_rts":"[496,182,386]","trial_type":"fractal-mutation","trial_index":91,"time_elapsed":942842,"internal_node_id":"0.0-5.0-37.0"},{"group":"hexagon_bi","fractal_assignment":["../images/blu_wht.png","../images/cyn_red.png","../images/pnk_blu.png","../images/gry_blk.png","../images/org_blu.png","../images/ylw_slt.png"],"mutagen_generator_assignment":[0,1],"goal":1,"start":5,"action_noise":0.15,"location_history":"[5,4,5,4,3,2,1]","action_history":"[1,0,1,0,1,0]","mutagen_history":"[1,0,1,0,1,0]","location_rts":"[353,186,282,345,315,168]","trial_type":"fractal-mutation","trial_index":92,"time_elapsed":954129,"internal_node_id":"0.0-5.0-38.0"},{"group":"hexagon_bi","fractal_assignment":["../images/blu_wht.png","../images/cyn_red.png","../images/pnk_blu.png","../images/gry_blk.png","../images/org_blu.png","../images/ylw_slt.png"],"mutagen_generator_assignment":[0,1],"goal":4,"start":1,"action_noise":0.15,"location_history":"[1,0,1,0,5,4]","action_history":"[1,0,1,0,1]","mutagen_history":"[1,0,1,0,1]","location_rts":"[5219,208,82,343,640]","trial_type":"fractal-mutation","trial_index":93,"time_elapsed":969820,"internal_node_id":"0.0-5.0-39.0"},{"group":"hexagon_bi","fractal_assignment":["../images/blu_wht.png","../images/cyn_red.png","../images/pnk_blu.png","../images/gry_blk.png","../images/org_blu.png","../images/ylw_slt.png"],"mutagen_generator_assignment":[0,1],"goal":3,"start":4,"action_noise":0.15,"location_history":"[4,5,0,5,4,5,0,1,2,3]","action_history":"[1,0,1,0,1,0,1,0,1]","mutagen_history":"[1,0,1,0,1,0,1,0,1]","location_rts":"[1231,271,203,350,200,304,251,247,266]","trial_type":"fractal-mutation","trial_index":94,"time_elapsed":985870,"internal_node_id":"0.0-5.0-40.0"},{"group":"hexagon_bi","fractal_assignment":["../images/blu_wht.png","../images/cyn_red.png","../images/pnk_blu.png","../images/gry_blk.png","../images/org_blu.png","../images/ylw_slt.png"],"mutagen_generator_assignment":[0,1],"goal":2,"start":3,"action_noise":0.15,"location_history":"[3,4,5,4,3,2]","action_history":"[1,0,1,0,1]","mutagen_history":"[1,0,1,0,1]","location_rts":"[2349,251,1105,278,1251]","trial_type":"fractal-mutation","trial_index":95,"time_elapsed":999735,"internal_node_id":"0.0-5.0-41.0"},{"group":"hexagon_bi","fractal_assignment":["../images/blu_wht.png","../images/cyn_red.png","../images/pnk_blu.png","../images/gry_blk.png","../images/org_blu.png","../images/ylw_slt.png"],"mutagen_generator_assignment":[0,1],"goal":0,"start":2,"action_noise":0.15,"location_history":"[2,1,0]","action_history":"[0,1]","mutagen_history":"[0,1]","location_rts":"[516,89]","trial_type":"fractal-mutation","trial_index":96,"time_elapsed":1005890,"internal_node_id":"0.0-5.0-42.0"},{"group":"hexagon_bi","fractal_assignment":["../images/blu_wht.png","../images/cyn_red.png","../images/pnk_blu.png","../images/gry_blk.png","../images/org_blu.png","../images/ylw_slt.png"],"mutagen_generator_assignment":[0,1],"goal":5,"start":0,"action_noise":0.15,"location_history":"[0,1,2,3,4,5]","action_history":"[1,0,1,0,1]","mutagen_history":"[1,0,1,0,1]","location_rts":"[368,109,147,92,83]","trial_type":"fractal-mutation","trial_index":97,"time_elapsed":1015322,"internal_node_id":"0.0-5.0-43.0"},{"group":"hexagon_bi","fractal_assignment":["../images/blu_wht.png","../images/cyn_red.png","../images/pnk_blu.png","../images/gry_blk.png","../images/org_blu.png","../images/ylw_slt.png"],"mutagen_generator_assignment":[0,1],"goal":0,"start":5,"action_noise":0.15,"location_history":"[5,4,3,2,1,2,1,2,3,2,1,0]","action_history":"[1,0,1,0,0,1,0,1,0,0,1]","mutagen_history":"[1,0,1,0,0,1,0,1,0,0,1]","location_rts":"[321,63,122,103,2466,297,288,962,928,1066,130]","trial_type":"fractal-mutation","trial_index":98,"time_elapsed":1036838,"internal_node_id":"0.0-5.0-44.0"},{"group":"hexagon_bi","fractal_assignment":["../images/blu_wht.png","../images/cyn_red.png","../images/pnk_blu.png","../images/gry_blk.png","../images/org_blu.png","../images/ylw_slt.png"],"mutagen_generator_assignment":[0,1],"goal":2,"start":0,"action_noise":0.15,"location_history":"[0,5,0,1,2]","action_history":"[1,0,1,0]","mutagen_history":"[1,0,1,0]","location_rts":"[398,94,99,129]","trial_type":"fractal-mutation","trial_index":99,"time_elapsed":1045160,"internal_node_id":"0.0-5.0-45.0"},{"group":"hexagon_bi","fractal_assignment":["../images/blu_wht.png","../images/cyn_red.png","../images/pnk_blu.png","../images/gry_blk.png","../images/org_blu.png","../images/ylw_slt.png"],"mutagen_generator_assignment":[0,1],"goal":4,"start":2,"action_noise":0.15,"location_history":"[2,1,2,3,4]","action_history":"[1,0,1,0]","mutagen_history":"[1,0,1,0]","location_rts":"[675,152,122,117]","trial_type":"fractal-mutation","trial_index":100,"time_elapsed":1053824,"internal_node_id":"0.0-5.0-46.0"},{"group":"hexagon_bi","fractal_assignment":["../images/blu_wht.png","../images/cyn_red.png","../images/pnk_blu.png","../images/gry_blk.png","../images/org_blu.png","../images/ylw_slt.png"],"mutagen_generator_assignment":[0,1],"goal":1,"start":4,"action_noise":0.15,"location_history":"[4,5,0,1]","action_history":"[1,0,1]","mutagen_history":"[1,0,1]","location_rts":"[331,247,114]","trial_type":"fractal-mutation","trial_index":101,"time_elapsed":1061093,"internal_node_id":"0.0-5.0-47.0"},{"group":"hexagon_bi","fractal_assignment":["../images/blu_wht.png","../images/cyn_red.png","../images/pnk_blu.png","../images/gry_blk.png","../images/org_blu.png","../images/ylw_slt.png"],"mutagen_generator_assignment":[0,1],"goal":5,"start":1,"action_noise":0.15,"location_history":"[1,2,3,2,3,4,3,4,5]","action_history":"[0,1,0,1,0,1,0,1]","mutagen_history":"[0,1,0,1,0,1,0,1]","location_rts":"[325,155,121,137,134,34,127,90]","trial_type":"fractal-mutation","trial_index":102,"time_elapsed":1073910,"internal_node_id":"0.0-5.0-48.0"},{"group":"hexagon_bi","fractal_assignment":["../images/blu_wht.png","../images/cyn_red.png","../images/pnk_blu.png","../images/gry_blk.png","../images/org_blu.png","../images/ylw_slt.png"],"mutagen_generator_assignment":[0,1],"goal":3,"start":5,"action_noise":0.15,"location_history":"[5,4,5,0,1,2,3]","action_history":"[0,1,0,1,0,1]","mutagen_history":"[0,1,0,1,0,1]","location_rts":"[414,121,142,75,70,66]","trial_type":"fractal-mutation","trial_index":103,"time_elapsed":1084449,"internal_node_id":"0.0-5.0-49.0"},{"view_history":"[{\"page_index\":0,\"viewing_time\":3437}]","rt":3437,"trial_type":"instructions","trial_index":104,"time_elapsed":1088887,"internal_node_id":"0.0-6.0"},{"rt":12893,"responses":"{\"Q0\":\"Thank you for having me be a part of this awesome study!\"}","trial_type":"survey-text","trial_index":105,"time_elapsed":1102785,"internal_node_id":"0.0-7.0"}]