[{"view_history":"[{\"page_index\":0,\"viewing_time\":31294},{\"page_index\":1,\"viewing_time\":118524}]","rt":149818,"trial_type":"instructions","trial_index":0,"time_elapsed":149820,"internal_node_id":"0.0-0.0"},{"view_history":"[{\"page_index\":0,\"viewing_time\":3022},{\"page_index\":1,\"viewing_time\":51690}]","rt":54712,"trial_type":"instructions","trial_index":1,"time_elapsed":205538,"internal_node_id":"0.0-1.0"},{"group":"hexagon_tri","room_assignment":["grey","red","green","purple","blue","yellow"],"door_color_assignment":["white","black"],"door_generator_assignment":[1,0],"goal":3,"start":5,"action_noise":0.15,"location_history":"[5,0,5,0,1,3]","action_history":"[0,1,1,0,0]","door_history":"[1,0,0,1,1]","location_rts":"[2450,82356,304,832,414]","trial_type":"two-door-navigation","trial_index":2,"time_elapsed":300764,"internal_node_id":"0.0-2.0-0.0"},{"group":"hexagon_tri","room_assignment":["grey","red","green","purple","blue","yellow"],"door_color_assignment":["white","black"],"door_generator_assignment":[1,0],"goal":1,"start":3,"action_noise":0.15,"location_history":"[3,4,0,1]","action_history":"[1,0,1]","door_history":"[0,1,0]","location_rts":"[518,448,368]","trial_type":"two-door-navigation","trial_index":3,"time_elapsed":308722,"internal_node_id":"0.0-2.0-1.0"},{"group":"hexagon_tri","room_assignment":["grey","red","green","purple","blue","yellow"],"door_color_assignment":["white","black"],"door_generator_assignment":[1,0],"goal":0,"start":1,"action_noise":0.15,"location_history":"[1,3,2,1,3,2,3,4,0]","action_history":"[0,1,1,0,0,0,1,1]","door_history":"[1,0,0,1,1,1,0,0]","location_rts":"[62324,398,15970,586,430,350,440,354]","trial_type":"two-door-navigation","trial_index":4,"time_elapsed":401398,"internal_node_id":"0.0-2.0-2.0"},{"group":"hexagon_tri","room_assignment":["grey","red","green","purple","blue","yellow"],"door_color_assignment":["white","black"],"door_generator_assignment":[1,0],"goal":3,"start":0,"action_noise":0.15,"location_history":"[0,5,0,5,4,0,5,0,1,5,4,0,5,0,1,3]","action_history":"[0,1,0,0,0,0,1,1,1,0,0,0,1,1,0]","door_history":"[1,0,1,1,1,1,0,0,0,1,1,1,0,0,1]","location_rts":"[44874,422,378,380,536,488,810,512,514,426,304,522,544,412,260]","trial_type":"two-door-navigation","trial_index":5,"time_elapsed":471838,"internal_node_id":"0.0-2.0-3.0"},{"group":"hexagon_tri","room_assignment":["grey","red","green","purple","blue","yellow"],"door_color_assignment":["white","black"],"door_generator_assignment":[1,0],"goal":4,"start":3,"action_noise":0.15,"location_history":"[3,4]","action_history":"[1]","door_history":"[0]","location_rts":"[766]","trial_type":"two-door-navigation","trial_index":6,"time_elapsed":477152,"internal_node_id":"0.0-2.0-4.0"},{"group":"hexagon_tri","room_assignment":["grey","red","green","purple","blue","yellow"],"door_color_assignment":["white","black"],"door_generator_assignment":[1,0],"goal":2,"start":4,"action_noise":0.15,"location_history":"[4,0,5,0,5,0,1,3,4,0,1,5,4,2]","action_history":"[0,1,1,0,0,1,0,1,0,1,1,0,1]","door_history":"[1,0,0,1,1,0,1,0,1,0,0,1,0]","location_rts":"[578,778,1054,552,740,400,1934,932,566,444,466,414,652]","trial_type":"two-door-navigation","trial_index":7,"time_elapsed":503614,"internal_node_id":"0.0-2.0-5.0"},{"group":"hexagon_tri","room_assignment":["grey","red","green","purple","blue","yellow"],"door_color_assignment":["white","black"],"door_generator_assignment":[1,0],"goal":1,"start":2,"action_noise":0.15,"location_history":"[2,3,2,1]","action_history":"[1,0,1]","door_history":"[0,1,0]","location_rts":"[788,280,1054]","trial_type":"two-door-navigation","trial_index":8,"time_elapsed":512348,"internal_node_id":"0.0-2.0-6.0"},{"group":"hexagon_tri","room_assignment":["grey","red","green","purple","blue","yellow"],"door_color_assignment":["white","black"],"door_generator_assignment":[1,0],"goal":5,"start":1,"action_noise":0.15,"location_history":"[1,5]","action_history":"[1]","door_history":"[0]","location_rts":"[43202]","trial_type":"two-door-navigation","trial_index":9,"time_elapsed":560102,"internal_node_id":"0.0-2.0-7.0"},{"group":"hexagon_tri","room_assignment":["grey","red","green","purple","blue","yellow"],"door_color_assignment":["white","black"],"door_generator_assignment":[1,0],"goal":4,"start":5,"action_noise":0.15,"location_history":"[5,4]","action_history":"[0]","door_history":"[1]","location_rts":"[11426]","trial_type":"two-door-navigation","trial_index":10,"time_elapsed":576076,"internal_node_id":"0.0-2.0-8.0"},{"group":"hexagon_tri","room_assignment":["grey","red","green","purple","blue","yellow"],"door_color_assignment":["white","black"],"door_generator_assignment":[1,0],"goal":2,"start":4,"action_noise":0.15,"location_history":"[4,2]","action_history":"[1]","door_history":"[0]","location_rts":"[388]","trial_type":"two-door-navigation","trial_index":11,"time_elapsed":581008,"internal_node_id":"0.0-2.0-9.0"},{"group":"hexagon_tri","room_assignment":["grey","red","green","purple","blue","yellow"],"door_color_assignment":["white","black"],"door_generator_assignment":[1,0],"goal":0,"start":2,"action_noise":0.15,"location_history":"[2,1,3,2,1,3,4,0]","action_history":"[0,0,0,0,1,1,0]","door_history":"[1,1,1,1,0,0,1]","location_rts":"[654,358,380,534,268,422,592]","trial_type":"two-door-navigation","trial_index":12,"time_elapsed":595010,"internal_node_id":"0.0-2.0-10.0"},{"group":"hexagon_tri","room_assignment":["grey","red","green","purple","blue","yellow"],"door_color_assignment":["white","black"],"door_generator_assignment":[1,0],"goal":1,"start":0,"action_noise":0.15,"location_history":"[0,1]","action_history":"[1]","door_history":"[0]","location_rts":"[67434]","trial_type":"two-door-navigation","trial_index":13,"time_elapsed":666986,"internal_node_id":"0.0-2.0-11.0"},{"group":"hexagon_tri","room_assignment":["grey","red","green","purple","blue","yellow"],"door_color_assignment":["white","black"],"door_generator_assignment":[1,0],"goal":3,"start":1,"action_noise":0.15,"location_history":"[1,3]","action_history":"[0]","door_history":"[1]","location_rts":"[24564]","trial_type":"two-door-navigation","trial_index":14,"time_elapsed":696100,"internal_node_id":"0.0-2.0-12.0"},{"group":"hexagon_tri","room_assignment":["grey","red","green","purple","blue","yellow"],"door_color_assignment":["white","black"],"door_generator_assignment":[1,0],"goal":5,"start":3,"action_noise":0.15,"location_history":"[3,4,0,5]","action_history":"[1,0,0]","door_history":"[0,1,1]","location_rts":"[638,532,476]","trial_type":"two-door-navigation","trial_index":15,"time_elapsed":704356,"internal_node_id":"0.0-2.0-13.0"},{"group":"hexagon_tri","room_assignment":["grey","red","green","purple","blue","yellow"],"door_color_assignment":["white","black"],"door_generator_assignment":[1,0],"goal":4,"start":5,"action_noise":0.15,"location_history":"[5,4]","action_history":"[0]","door_history":"[1]","location_rts":"[1246]","trial_type":"two-door-navigation","trial_index":16,"time_elapsed":710152,"internal_node_id":"0.0-2.0-14.0"},{"group":"hexagon_tri","room_assignment":["grey","red","green","purple","blue","yellow"],"door_color_assignment":["white","black"],"door_generator_assignment":[1,0],"goal":0,"start":4,"action_noise":0.15,"location_history":"[4,2,1,3,2,3,2,3,4,2,3,4,2,3,2,3,2,3,4,0]","action_history":"[1,0,1,0,1,0,1,1,1,1,1,1,0,0,1,0,1,1,0]","door_history":"[0,1,0,1,0,1,0,0,0,0,0,0,1,1,0,1,0,0,1]","location_rts":"[4274,1178,512,536,4974,344,352,332,370,10150,554,876,358,7760,412,716,3590,420,328]","trial_type":"two-door-navigation","trial_index":17,"time_elapsed":771412,"internal_node_id":"0.0-2.0-15.0"},{"group":"hexagon_tri","room_assignment":["grey","red","green","purple","blue","yellow"],"door_color_assignment":["white","black"],"door_generator_assignment":[1,0],"goal":3,"start":0,"action_noise":0.15,"location_history":"[0,5,4,0,1,3]","action_history":"[0,1,0,1,1]","door_history":"[1,0,1,0,0]","location_rts":"[378,336,446,534,82]","trial_type":"two-door-navigation","trial_index":18,"time_elapsed":781888,"internal_node_id":"0.0-2.0-16.0"},{"group":"hexagon_tri","room_assignment":["grey","red","green","purple","blue","yellow"],"door_color_assignment":["white","black"],"door_generator_assignment":[1,0],"goal":1,"start":3,"action_noise":0.15,"location_history":"[3,4,0,5,0,1]","action_history":"[1,0,0,1,1]","door_history":"[0,1,1,0,0]","location_rts":"[800,346,358,622,316]","trial_type":"two-door-navigation","trial_index":19,"time_elapsed":793028,"internal_node_id":"0.0-2.0-17.0"},{"group":"hexagon_tri","room_assignment":["grey","red","green","purple","blue","yellow"],"door_color_assignment":["white","black"],"door_generator_assignment":[1,0],"goal":5,"start":1,"action_noise":0.15,"location_history":"[1,3,4,0,5]","action_history":"[0,1,0,1]","door_history":"[1,0,1,0]","location_rts":"[2676,37224,354,386]","trial_type":"two-door-navigation","trial_index":20,"time_elapsed":841322,"internal_node_id":"0.0-2.0-18.0"},{"group":"hexagon_tri","room_assignment":["grey","red","green","purple","blue","yellow"],"door_color_assignment":["white","black"],"door_generator_assignment":[1,0],"goal":2,"start":5,"action_noise":0.15,"location_history":"[5,0,1,3,2]","action_history":"[1,0,0,0]","door_history":"[0,1,1,1]","location_rts":"[1188,394,500,616]","trial_type":"two-door-navigation","trial_index":21,"time_elapsed":851680,"internal_node_id":"0.0-2.0-19.0"},{"group":"hexagon_tri","room_assignment":["grey","red","green","purple","blue","yellow"],"door_color_assignment":["white","black"],"door_generator_assignment":[1,0],"goal":4,"start":2,"action_noise":0.15,"location_history":"[2,1,5,4]","action_history":"[0,1,0]","door_history":"[1,0,1]","location_rts":"[79238,298,12558]","trial_type":"two-door-navigation","trial_index":22,"time_elapsed":950400,"internal_node_id":"0.0-2.0-20.0"},{"group":"hexagon_tri","room_assignment":["grey","red","green","purple","blue","yellow"],"door_color_assignment":["white","black"],"door_generator_assignment":[1,0],"goal":1,"start":4,"action_noise":0.15,"location_history":"[4,0,5,0,1]","action_history":"[0,0,1,1]","door_history":"[1,1,0,0]","location_rts":"[286,53044,622,364]","trial_type":"two-door-navigation","trial_index":23,"time_elapsed":1012392,"internal_node_id":"0.0-2.0-21.0"},{"group":"hexagon_tri","room_assignment":["grey","red","green","purple","blue","yellow"],"door_color_assignment":["white","black"],"door_generator_assignment":[1,0],"goal":3,"start":1,"action_noise":0.15,"location_history":"[1,3]","action_history":"[1]","door_history":"[0]","location_rts":"[308202]","trial_type":"two-door-navigation","trial_index":24,"time_elapsed":1325132,"internal_node_id":"0.0-2.0-22.0"},{"group":"hexagon_tri","room_assignment":["grey","red","green","purple","blue","yellow"],"door_color_assignment":["white","black"],"door_generator_assignment":[1,0],"goal":2,"start":3,"action_noise":0.15,"location_history":"[3,4,0,1,5,0,5,0,1,3,2]","action_history":"[0,0,1,1,1,0,0,1,0,0]","door_history":"[1,1,0,0,0,1,1,0,1,1]","location_rts":"[728,314,744,12,446,284,156592,4440,404,348]","trial_type":"two-door-navigation","trial_index":25,"time_elapsed":1503278,"internal_node_id":"0.0-2.0-23.0"},{"group":"hexagon_tri","room_assignment":["grey","red","green","purple","blue","yellow"],"door_color_assignment":["white","black"],"door_generator_assignment":[1,0],"goal":0,"start":2,"action_noise":0.15,"location_history":"[2,1,5,0]","action_history":"[0,1,1]","door_history":"[1,0,0]","location_rts":"[666,392,370]","trial_type":"two-door-navigation","trial_index":26,"time_elapsed":1511330,"internal_node_id":"0.0-2.0-24.0"},{"group":"hexagon_tri","room_assignment":["grey","red","green","purple","blue","yellow"],"door_color_assignment":["white","black"],"door_generator_assignment":[1,0],"goal":5,"start":0,"action_noise":0.15,"location_history":"[0,5]","action_history":"[0]","door_history":"[1]","location_rts":"[966]","trial_type":"two-door-navigation","trial_index":27,"time_elapsed":1516846,"internal_node_id":"0.0-2.0-25.0"},{"group":"hexagon_tri","room_assignment":["grey","red","green","purple","blue","yellow"],"door_color_assignment":["white","black"],"door_generator_assignment":[1,0],"goal":2,"start":5,"action_noise":0.15,"location_history":"[5,4,2]","action_history":"[0,1]","door_history":"[1,0]","location_rts":"[474,1696]","trial_type":"two-door-navigation","trial_index":28,"time_elapsed":1524604,"internal_node_id":"0.0-2.0-26.0"},{"group":"hexagon_tri","room_assignment":["grey","red","green","purple","blue","yellow"],"door_color_assignment":["white","black"],"door_generator_assignment":[1,0],"goal":3,"start":2,"action_noise":0.15,"location_history":"[2,1,5,0,5,0,5,4,2,1,5,4,0,1,5,0,1,3]","action_history":"[0,1,1,0,1,0,0,1,0,1,0,0,1,1,1,1,0]","door_history":"[1,0,0,1,0,1,1,0,1,0,1,1,0,0,0,0,1]","location_rts":"[342,342,288,296,348,370,296,242,348,458,53904,316,212,282,418,298,298]","trial_type":"two-door-navigation","trial_index":29,"time_elapsed":1604752,"internal_node_id":"0.0-2.0-27.0"},{"group":"hexagon_tri","room_assignment":["grey","red","green","purple","blue","yellow"],"door_color_assignment":["white","black"],"door_generator_assignment":[1,0],"goal":0,"start":3,"action_noise":0.15,"location_history":"[3,4,2,1,5,0]","action_history":"[1,1,0,1,1]","door_history":"[0,0,1,0,0]","location_rts":"[470,830,388,1348,270]","trial_type":"two-door-navigation","trial_index":30,"time_elapsed":1616764,"internal_node_id":"0.0-2.0-28.0"},{"group":"hexagon_tri","room_assignment":["grey","red","green","purple","blue","yellow"],"door_color_assignment":["white","black"],"door_generator_assignment":[1,0],"goal":1,"start":0,"action_noise":0.15,"location_history":"[0,1]","action_history":"[1]","door_history":"[0]","location_rts":"[512]","trial_type":"two-door-navigation","trial_index":31,"time_elapsed":1621832,"internal_node_id":"0.0-2.0-29.0"},{"group":"hexagon_tri","room_assignment":["grey","red","green","purple","blue","yellow"],"door_color_assignment":["white","black"],"door_generator_assignment":[1,0],"goal":4,"start":1,"action_noise":0.15,"location_history":"[1,5,0,5,0,1,5,0,1,3,2,1,5,0,1,3,2,1,3,4]","action_history":"[1,0,0,1,1,1,1,0,0,0,1,0,1,0,0,1,0,0,0]","door_history":"[0,1,1,0,0,0,0,1,1,1,0,1,0,1,1,0,1,1,1]","location_rts":"[288,356,160,222,518,292,238,358,446,712,14,288,274,552,552,272,336,908,568]","trial_type":"two-door-navigation","trial_index":32,"time_elapsed":1652382,"internal_node_id":"0.0-2.0-30.0"},{"group":"hexagon_tri","room_assignment":["grey","red","green","purple","blue","yellow"],"door_color_assignment":["white","black"],"door_generator_assignment":[1,0],"goal":5,"start":4,"action_noise":0.15,"location_history":"[4,2,1,3,2,3,4,2,1,3,2,1,3,2,1,3,4,0,5]","action_history":"[1,0,0,0,1,1,0,0,0,0,0,0,0,0,0,1,0,0]","door_history":"[0,1,1,1,0,0,1,1,1,1,1,1,1,1,1,0,1,1]","location_rts":"[44156,512,7894,370,566,406,284,438,402,326,296,122,272,350,348,264,314,424]","trial_type":"two-door-navigation","trial_index":33,"time_elapsed":1732280,"internal_node_id":"0.0-2.0-31.0"},{"group":"hexagon_tri","room_assignment":["grey","red","green","purple","blue","yellow"],"door_color_assignment":["white","black"],"door_generator_assignment":[1,0],"goal":0,"start":5,"action_noise":0.15,"location_history":"[5,0]","action_history":"[1]","door_history":"[0]","location_rts":"[866]","trial_type":"two-door-navigation","trial_index":34,"time_elapsed":1737688,"internal_node_id":"0.0-2.0-32.0"},{"group":"hexagon_tri","room_assignment":["grey","red","green","purple","blue","yellow"],"door_color_assignment":["white","black"],"door_generator_assignment":[1,0],"goal":3,"start":0,"action_noise":0.15,"location_history":"[0,1,3]","action_history":"[1,0]","door_history":"[0,1]","location_rts":"[772,830]","trial_type":"two-door-navigation","trial_index":35,"time_elapsed":1744876,"internal_node_id":"0.0-2.0-33.0"},{"group":"hexagon_tri","room_assignment":["grey","red","green","purple","blue","yellow"],"door_color_assignment":["white","black"],"door_generator_assignment":[1,0],"goal":1,"start":3,"action_noise":0.15,"location_history":"[3,2,3,4,2,3,4,0,1]","action_history":"[0,1,0,1,0,1,0,1]","door_history":"[1,0,1,0,1,0,1,0]","location_rts":"[191800,412,482,1962,1918,484,1590,2406]","trial_type":"two-door-navigation","trial_index":36,"time_elapsed":1957730,"internal_node_id":"0.0-2.0-34.0"},{"group":"hexagon_tri","room_assignment":["grey","red","green","purple","blue","yellow"],"door_color_assignment":["white","black"],"door_generator_assignment":[1,0],"goal":2,"start":1,"action_noise":0.15,"location_history":"[1,3,2]","action_history":"[0,0]","door_history":"[1,1]","location_rts":"[1122,28236]","trial_type":"two-door-navigation","trial_index":37,"time_elapsed":1992664,"internal_node_id":"0.0-2.0-35.0"},{"group":"hexagon_tri","room_assignment":["grey","red","green","purple","blue","yellow"],"door_color_assignment":["white","black"],"door_generator_assignment":[1,0],"goal":4,"start":2,"action_noise":0.15,"location_history":"[2,1,3,2,3,2,3,2,1,5,0,5,4]","action_history":"[0,1,0,1,0,1,0,0,1,1,0,0]","door_history":"[1,0,1,0,1,0,1,1,0,0,1,1]","location_rts":"[394,276,5154,170,636,276,1148,494,356,220,610,7642]","trial_type":"two-door-navigation","trial_index":38,"time_elapsed":2025982,"internal_node_id":"0.0-2.0-36.0"},{"group":"hexagon_tri","room_assignment":["grey","red","green","purple","blue","yellow"],"door_color_assignment":["white","black"],"door_generator_assignment":[1,0],"goal":5,"start":4,"action_noise":0.15,"location_history":"[4,2,3,4,2,3,4,0,1,5]","action_history":"[1,0,0,1,1,1,0,1,1]","door_history":"[0,1,1,0,0,0,1,0,0]","location_rts":"[444,352,406,408,286,284,368,884,300]","trial_type":"two-door-navigation","trial_index":39,"time_elapsed":2042570,"internal_node_id":"0.0-2.0-37.0"},{"group":"hexagon_tri","room_assignment":["grey","red","green","purple","blue","yellow"],"door_color_assignment":["white","black"],"door_generator_assignment":[1,0],"goal":1,"start":5,"action_noise":0.15,"location_history":"[5,4,2,3,4,2,3,2,1]","action_history":"[0,1,1,1,1,0,0,0]","door_history":"[1,0,0,0,0,1,1,1]","location_rts":"[760,250,362,416,318,862,228,260]","trial_type":"two-door-navigation","trial_index":40,"time_elapsed":2057846,"internal_node_id":"0.0-2.0-38.0"},{"group":"hexagon_tri","room_assignment":["grey","red","green","purple","blue","yellow"],"door_color_assignment":["white","black"],"door_generator_assignment":[1,0],"goal":4,"start":1,"action_noise":0.15,"location_history":"[1,3,2,1,5,0,5,0,5,4]","action_history":"[0,0,0,1,0,0,1,0,0]","door_history":"[1,1,1,0,1,1,0,1,1]","location_rts":"[488,384,244,59432,266,254,500,472,102]","trial_type":"two-door-navigation","trial_index":41,"time_elapsed":2132838,"internal_node_id":"0.0-2.0-39.0"},{"group":"hexagon_tri","room_assignment":["grey","red","green","purple","blue","yellow"],"door_color_assignment":["white","black"],"door_generator_assignment":[1,0],"goal":3,"start":4,"action_noise":0.15,"location_history":"[4,2,1,3]","action_history":"[1,0,0]","door_history":"[0,1,1]","location_rts":"[52560,332,24]","trial_type":"two-door-navigation","trial_index":42,"time_elapsed":2192370,"internal_node_id":"0.0-2.0-40.0"},{"group":"hexagon_tri","room_assignment":["grey","red","green","purple","blue","yellow"],"door_color_assignment":["white","black"],"door_generator_assignment":[1,0],"goal":2,"start":3,"action_noise":0.15,"location_history":"[3,4,0,1,3,2]","action_history":"[1,0,1,0,0]","door_history":"[0,1,0,1,1]","location_rts":"[752,372,5260,386,274]","trial_type":"two-door-navigation","trial_index":43,"time_elapsed":2208086,"internal_node_id":"0.0-2.0-41.0"},{"group":"hexagon_tri","room_assignment":["grey","red","green","purple","blue","yellow"],"door_color_assignment":["white","black"],"door_generator_assignment":[1,0],"goal":0,"start":2,"action_noise":0.15,"location_history":"[2,3,4,2,3,2,1,3,4,0]","action_history":"[1,1,1,1,0,0,0,0,0]","door_history":"[0,0,0,0,1,1,1,1,1]","location_rts":"[1446,258,368,468,324,66,164,84,288]","trial_type":"two-door-navigation","trial_index":44,"time_elapsed":2224446,"internal_node_id":"0.0-2.0-42.0"},{"group":"hexagon_tri","room_assignment":["grey","red","green","purple","blue","yellow"],"door_color_assignment":["white","black"],"door_generator_assignment":[1,0],"goal":5,"start":0,"action_noise":0.15,"location_history":"[0,5]","action_history":"[0]","door_history":"[1]","location_rts":"[754]","trial_type":"two-door-navigation","trial_index":45,"time_elapsed":2229752,"internal_node_id":"0.0-2.0-43.0"},{"group":"hexagon_tri","room_assignment":["grey","red","green","purple","blue","yellow"],"door_color_assignment":["white","black"],"door_generator_assignment":[1,0],"goal":0,"start":5,"action_noise":0.15,"location_history":"[5,4,0]","action_history":"[0,0]","door_history":"[1,1]","location_rts":"[486,408]","trial_type":"two-door-navigation","trial_index":46,"time_elapsed":2236240,"internal_node_id":"0.0-2.0-44.0"},{"group":"hexagon_tri","room_assignment":["grey","red","green","purple","blue","yellow"],"door_color_assignment":["white","black"],"door_generator_assignment":[1,0],"goal":2,"start":0,"action_noise":0.15,"location_history":"[0,1,3,2]","action_history":"[1,0,0]","door_history":"[0,1,1]","location_rts":"[1304,750,552]","trial_type":"two-door-navigation","trial_index":47,"time_elapsed":2245464,"internal_node_id":"0.0-2.0-45.0"},{"group":"hexagon_tri","room_assignment":["grey","red","green","purple","blue","yellow"],"door_color_assignment":["white","black"],"door_generator_assignment":[1,0],"goal":4,"start":2,"action_noise":0.15,"location_history":"[2,1,5,0,5,4]","action_history":"[0,1,1,0,0]","door_history":"[1,0,0,1,1]","location_rts":"[456,290,456,300,592]","trial_type":"two-door-navigation","trial_index":48,"time_elapsed":2256256,"internal_node_id":"0.0-2.0-46.0"},{"group":"hexagon_tri","room_assignment":["grey","red","green","purple","blue","yellow"],"door_color_assignment":["white","black"],"door_generator_assignment":[1,0],"goal":1,"start":4,"action_noise":0.15,"location_history":"[4,2,1]","action_history":"[1,1]","door_history":"[0,0]","location_rts":"[3664,312]","trial_type":"two-door-navigation","trial_index":49,"time_elapsed":2265804,"internal_node_id":"0.0-2.0-47.0"},{"group":"hexagon_tri","room_assignment":["grey","red","green","purple","blue","yellow"],"door_color_assignment":["white","black"],"door_generator_assignment":[1,0],"goal":5,"start":1,"action_noise":0.15,"location_history":"[1,5]","action_history":"[1]","door_history":"[0]","location_rts":"[408]","trial_type":"two-door-navigation","trial_index":50,"time_elapsed":2270776,"internal_node_id":"0.0-2.0-48.0"},{"group":"hexagon_tri","room_assignment":["grey","red","green","purple","blue","yellow"],"door_color_assignment":["white","black"],"door_generator_assignment":[1,0],"goal":3,"start":5,"action_noise":0.15,"location_history":"[5,0,5,4,2,3]","action_history":"[1,0,0,1,1]","door_history":"[0,1,1,0,0]","location_rts":"[179022,494,246,24762,358]","trial_type":"two-door-navigation","trial_index":51,"time_elapsed":2484352,"internal_node_id":"0.0-2.0-49.0"},{"view_history":"[{\"page_index\":0,\"viewing_time\":2546}]","rt":2546,"trial_type":"instructions","trial_index":52,"time_elapsed":2487902,"internal_node_id":"0.0-3.0"},{"view_history":"[{\"page_index\":0,\"viewing_time\":2194},{\"page_index\":1,\"viewing_time\":3984}]","rt":6178,"trial_type":"instructions","trial_index":53,"time_elapsed":2495082,"internal_node_id":"0.0-4.0"},{"group":"hexagon_tri","fractal_assignment":["../images/cyn_red.png","../images/org_blu.png","../images/ylw_slt.png","../images/pnk_blu.png","../images/gry_blk.png","../images/blu_wht.png"],"mutagen_generator_assignment":[0,1],"goal":3,"start":5,"action_noise":0.15,"location_history":"[5,0,5,4,0,1,3]","action_history":"[0,0,1,0,1,0]","mutagen_history":"[0,0,1,0,1,0]","location_rts":"[5470,324,214,72,350,458]","trial_type":"fractal-mutation","trial_index":54,"time_elapsed":2512074,"internal_node_id":"0.0-5.0-0.0"},{"group":"hexagon_tri","fractal_assignment":["../images/cyn_red.png","../images/org_blu.png","../images/ylw_slt.png","../images/pnk_blu.png","../images/gry_blk.png","../images/blu_wht.png"],"mutagen_generator_assignment":[0,1],"goal":1,"start":3,"action_noise":0.15,"location_history":"[3,4,0,1]","action_history":"[1,0,1]","mutagen_history":"[1,0,1]","location_rts":"[326,128,646]","trial_type":"fractal-mutation","trial_index":55,"time_elapsed":2519978,"internal_node_id":"0.0-5.0-1.0"},{"group":"hexagon_tri","fractal_assignment":["../images/cyn_red.png","../images/org_blu.png","../images/ylw_slt.png","../images/pnk_blu.png","../images/gry_blk.png","../images/blu_wht.png"],"mutagen_generator_assignment":[0,1],"goal":0,"start":1,"action_noise":0.15,"location_history":"[1,5,4,2,1,5,0]","action_history":"[1,1,1,0,0,1]","mutagen_history":"[1,1,1,0,0,1]","location_rts":"[368,316,422,286,264,174]","trial_type":"fractal-mutation","trial_index":56,"time_elapsed":2531898,"internal_node_id":"0.0-5.0-2.0"},{"group":"hexagon_tri","fractal_assignment":["../images/cyn_red.png","../images/org_blu.png","../images/ylw_slt.png","../images/pnk_blu.png","../images/gry_blk.png","../images/blu_wht.png"],"mutagen_generator_assignment":[0,1],"goal":3,"start":0,"action_noise":0.15,"location_history":"[0,1,5,4,2,1,3]","action_history":"[1,1,0,0,0,0]","mutagen_history":"[1,1,0,0,0,0]","location_rts":"[324,238,54,290,314,300]","trial_type":"fractal-mutation","trial_index":57,"time_elapsed":2543428,"internal_node_id":"0.0-5.0-3.0"},{"group":"hexagon_tri","fractal_assignment":["../images/cyn_red.png","../images/org_blu.png","../images/ylw_slt.png","../images/pnk_blu.png","../images/gry_blk.png","../images/blu_wht.png"],"mutagen_generator_assignment":[0,1],"goal":4,"start":3,"action_noise":0.15,"location_history":"[3,2,3,4]","action_history":"[0,1,1]","mutagen_history":"[0,1,1]","location_rts":"[462,424,274]","trial_type":"fractal-mutation","trial_index":58,"time_elapsed":2551374,"internal_node_id":"0.0-5.0-4.0"},{"group":"hexagon_tri","fractal_assignment":["../images/cyn_red.png","../images/org_blu.png","../images/ylw_slt.png","../images/pnk_blu.png","../images/gry_blk.png","../images/blu_wht.png"],"mutagen_generator_assignment":[0,1],"goal":2,"start":4,"action_noise":0.15,"location_history":"[4,2]","action_history":"[1]","mutagen_history":"[1]","location_rts":"[322]","trial_type":"fractal-mutation","trial_index":59,"time_elapsed":2556340,"internal_node_id":"0.0-5.0-5.0"},{"group":"hexagon_tri","fractal_assignment":["../images/cyn_red.png","../images/org_blu.png","../images/ylw_slt.png","../images/pnk_blu.png","../images/gry_blk.png","../images/blu_wht.png"],"mutagen_generator_assignment":[0,1],"goal":1,"start":2,"action_noise":0.15,"location_history":"[2,1]","action_history":"[0]","mutagen_history":"[0]","location_rts":"[486]","trial_type":"fractal-mutation","trial_index":60,"time_elapsed":2561428,"internal_node_id":"0.0-5.0-6.0"},{"group":"hexagon_tri","fractal_assignment":["../images/cyn_red.png","../images/org_blu.png","../images/ylw_slt.png","../images/pnk_blu.png","../images/gry_blk.png","../images/blu_wht.png"],"mutagen_generator_assignment":[0,1],"goal":5,"start":1,"action_noise":0.15,"location_history":"[1,5]","action_history":"[1]","mutagen_history":"[1]","location_rts":"[372]","trial_type":"fractal-mutation","trial_index":61,"time_elapsed":2566420,"internal_node_id":"0.0-5.0-7.0"},{"group":"hexagon_tri","fractal_assignment":["../images/cyn_red.png","../images/org_blu.png","../images/ylw_slt.png","../images/pnk_blu.png","../images/gry_blk.png","../images/blu_wht.png"],"mutagen_generator_assignment":[0,1],"goal":4,"start":5,"action_noise":0.15,"location_history":"[5,0,5,0,5,0,5,4]","action_history":"[1,0,1,0,1,0,0]","mutagen_history":"[1,0,1,0,1,0,0]","location_rts":"[700,728,177568,7756,298,466,752]","trial_type":"fractal-mutation","trial_index":62,"time_elapsed":2765886,"internal_node_id":"0.0-5.0-8.0"},{"group":"hexagon_tri","fractal_assignment":["../images/cyn_red.png","../images/org_blu.png","../images/ylw_slt.png","../images/pnk_blu.png","../images/gry_blk.png","../images/blu_wht.png"],"mutagen_generator_assignment":[0,1],"goal":2,"start":4,"action_noise":0.15,"location_history":"[4,2]","action_history":"[0]","mutagen_history":"[0]","location_rts":"[14798]","trial_type":"fractal-mutation","trial_index":63,"time_elapsed":2785260,"internal_node_id":"0.0-5.0-9.0"},{"group":"hexagon_tri","fractal_assignment":["../images/cyn_red.png","../images/org_blu.png","../images/ylw_slt.png","../images/pnk_blu.png","../images/gry_blk.png","../images/blu_wht.png"],"mutagen_generator_assignment":[0,1],"goal":0,"start":2,"action_noise":0.15,"location_history":"[2,1,3,2,1,3,2,1,3,2,3,2,1,3,2,1,3,2,1,5,0]","action_history":"[0,0,0,0,0,0,0,0,1,1,0,0,1,1,0,0,0,0,1,0]","mutagen_history":"[0,0,0,0,0,0,0,0,1,1,0,0,1,1,0,0,0,0,1,0]","location_rts":"[462,68,538,968,1608,438,6032,4806,310,28,24,43206,936,522,6498,2168,2984,3902,236,6166]","trial_type":"fractal-mutation","trial_index":64,"time_elapsed":2892426,"internal_node_id":"0.0-5.0-10.0"},{"group":"hexagon_tri","fractal_assignment":["../images/cyn_red.png","../images/org_blu.png","../images/ylw_slt.png","../images/pnk_blu.png","../images/gry_blk.png","../images/blu_wht.png"],"mutagen_generator_assignment":[0,1],"goal":1,"start":0,"action_noise":0.15,"location_history":"[0,5,4,2,3,4,2,1]","action_history":"[0,0,1,1,1,1,0]","mutagen_history":"[0,0,1,1,1,1,0]","location_rts":"[5954,622,136,374,398,492,278]","trial_type":"fractal-mutation","trial_index":65,"time_elapsed":2911800,"internal_node_id":"0.0-5.0-11.0"},{"group":"hexagon_tri","fractal_assignment":["../images/cyn_red.png","../images/org_blu.png","../images/ylw_slt.png","../images/pnk_blu.png","../images/gry_blk.png","../images/blu_wht.png"],"mutagen_generator_assignment":[0,1],"goal":3,"start":1,"action_noise":0.15,"location_history":"[1,3]","action_history":"[0]","mutagen_history":"[0]","location_rts":"[710]","trial_type":"fractal-mutation","trial_index":66,"time_elapsed":2917100,"internal_node_id":"0.0-5.0-12.0"},{"group":"hexagon_tri","fractal_assignment":["../images/cyn_red.png","../images/org_blu.png","../images/ylw_slt.png","../images/pnk_blu.png","../images/gry_blk.png","../images/blu_wht.png"],"mutagen_generator_assignment":[0,1],"goal":5,"start":3,"action_noise":0.15,"location_history":"[3,4,2,3,4,0,5]","action_history":"[1,1,1,1,0,0]","mutagen_history":"[1,1,1,1,0,0]","location_rts":"[1102,1718,5780,9694,33834,578]","trial_type":"fractal-mutation","trial_index":67,"time_elapsed":2979898,"internal_node_id":"0.0-5.0-13.0"},{"group":"hexagon_tri","fractal_assignment":["../images/cyn_red.png","../images/org_blu.png","../images/ylw_slt.png","../images/pnk_blu.png","../images/gry_blk.png","../images/blu_wht.png"],"mutagen_generator_assignment":[0,1],"goal":4,"start":5,"action_noise":0.15,"location_history":"[5,4]","action_history":"[0]","mutagen_history":"[0]","location_rts":"[562]","trial_type":"fractal-mutation","trial_index":68,"time_elapsed":2985044,"internal_node_id":"0.0-5.0-14.0"},{"group":"hexagon_tri","fractal_assignment":["../images/cyn_red.png","../images/org_blu.png","../images/ylw_slt.png","../images/pnk_blu.png","../images/gry_blk.png","../images/blu_wht.png"],"mutagen_generator_assignment":[0,1],"goal":0,"start":4,"action_noise":0.15,"location_history":"[4,0]","action_history":"[0]","mutagen_history":"[0]","location_rts":"[1820]","trial_type":"fractal-mutation","trial_index":69,"time_elapsed":2991452,"internal_node_id":"0.0-5.0-15.0"},{"group":"hexagon_tri","fractal_assignment":["../images/cyn_red.png","../images/org_blu.png","../images/ylw_slt.png","../images/pnk_blu.png","../images/gry_blk.png","../images/blu_wht.png"],"mutagen_generator_assignment":[0,1],"goal":3,"start":0,"action_noise":0.15,"location_history":"[0,5,4,0,5,4,0,5,4,2,1,3]","action_history":"[0,0,0,0,0,0,0,0,1,0,0]","mutagen_history":"[0,0,0,0,0,0,0,0,1,0,0]","location_rts":"[56992,72,19844,696,60762,290,466,210,6710,4402,274]","trial_type":"fractal-mutation","trial_index":70,"time_elapsed":3157518,"internal_node_id":"0.0-5.0-16.0"},{"group":"hexagon_tri","fractal_assignment":["../images/cyn_red.png","../images/org_blu.png","../images/ylw_slt.png","../images/pnk_blu.png","../images/gry_blk.png","../images/blu_wht.png"],"mutagen_generator_assignment":[0,1],"goal":1,"start":3,"action_noise":0.15,"location_history":"[3,2,3,4,0,1]","action_history":"[0,1,1,0,1]","mutagen_history":"[0,1,1,0,1]","location_rts":"[430,222,18,456,390]","trial_type":"fractal-mutation","trial_index":71,"time_elapsed":3167988,"internal_node_id":"0.0-5.0-17.0"},{"group":"hexagon_tri","fractal_assignment":["../images/cyn_red.png","../images/org_blu.png","../images/ylw_slt.png","../images/pnk_blu.png","../images/gry_blk.png","../images/blu_wht.png"],"mutagen_generator_assignment":[0,1],"goal":5,"start":1,"action_noise":0.15,"location_history":"[1,5]","action_history":"[1]","mutagen_history":"[1]","location_rts":"[826]","trial_type":"fractal-mutation","trial_index":72,"time_elapsed":3173432,"internal_node_id":"0.0-5.0-18.0"},{"group":"hexagon_tri","fractal_assignment":["../images/cyn_red.png","../images/org_blu.png","../images/ylw_slt.png","../images/pnk_blu.png","../images/gry_blk.png","../images/blu_wht.png"],"mutagen_generator_assignment":[0,1],"goal":2,"start":5,"action_noise":0.15,"location_history":"[5,4,2]","action_history":"[0,1]","mutagen_history":"[0,1]","location_rts":"[10366,276]","trial_type":"fractal-mutation","trial_index":73,"time_elapsed":3189768,"internal_node_id":"0.0-5.0-19.0"},{"group":"hexagon_tri","fractal_assignment":["../images/cyn_red.png","../images/org_blu.png","../images/ylw_slt.png","../images/pnk_blu.png","../images/gry_blk.png","../images/blu_wht.png"],"mutagen_generator_assignment":[0,1],"goal":4,"start":2,"action_noise":0.15,"location_history":"[2,1,5,0,5,4]","action_history":"[0,1,1,0,0]","mutagen_history":"[0,1,1,0,0]","location_rts":"[1768,312,542,10000,18024]","trial_type":"fractal-mutation","trial_index":74,"time_elapsed":3229332,"internal_node_id":"0.0-5.0-20.0"},{"group":"hexagon_tri","fractal_assignment":["../images/cyn_red.png","../images/org_blu.png","../images/ylw_slt.png","../images/pnk_blu.png","../images/gry_blk.png","../images/blu_wht.png"],"mutagen_generator_assignment":[0,1],"goal":1,"start":4,"action_noise":0.15,"location_history":"[4,2,1]","action_history":"[1,0]","mutagen_history":"[1,0]","location_rts":"[9038,450]","trial_type":"fractal-mutation","trial_index":75,"time_elapsed":3244516,"internal_node_id":"0.0-5.0-21.0"},{"group":"hexagon_tri","fractal_assignment":["../images/cyn_red.png","../images/org_blu.png","../images/ylw_slt.png","../images/pnk_blu.png","../images/gry_blk.png","../images/blu_wht.png"],"mutagen_generator_assignment":[0,1],"goal":3,"start":1,"action_noise":0.15,"location_history":"[1,3]","action_history":"[0]","mutagen_history":"[0]","location_rts":"[7894]","trial_type":"fractal-mutation","trial_index":76,"time_elapsed":3257018,"internal_node_id":"0.0-5.0-22.0"},{"group":"hexagon_tri","fractal_assignment":["../images/cyn_red.png","../images/org_blu.png","../images/ylw_slt.png","../images/pnk_blu.png","../images/gry_blk.png","../images/blu_wht.png"],"mutagen_generator_assignment":[0,1],"goal":2,"start":3,"action_noise":0.15,"location_history":"[3,2]","action_history":"[0]","mutagen_history":"[0]","location_rts":"[3076]","trial_type":"fractal-mutation","trial_index":77,"time_elapsed":3264680,"internal_node_id":"0.0-5.0-23.0"},{"group":"hexagon_tri","fractal_assignment":["../images/cyn_red.png","../images/org_blu.png","../images/ylw_slt.png","../images/pnk_blu.png","../images/gry_blk.png","../images/blu_wht.png"],"mutagen_generator_assignment":[0,1],"goal":0,"start":2,"action_noise":0.15,"location_history":"[2,1,5,0]","action_history":"[0,1,1]","mutagen_history":"[0,1,1]","location_rts":"[560,6180,1196]","trial_type":"fractal-mutation","trial_index":78,"time_elapsed":3279436,"internal_node_id":"0.0-5.0-24.0"},{"group":"hexagon_tri","fractal_assignment":["../images/cyn_red.png","../images/org_blu.png","../images/ylw_slt.png","../images/pnk_blu.png","../images/gry_blk.png","../images/blu_wht.png"],"mutagen_generator_assignment":[0,1],"goal":5,"start":0,"action_noise":0.15,"location_history":"[0,5]","action_history":"[1]","mutagen_history":"[1]","location_rts":"[4656]","trial_type":"fractal-mutation","trial_index":79,"time_elapsed":3288716,"internal_node_id":"0.0-5.0-25.0"},{"group":"hexagon_tri","fractal_assignment":["../images/cyn_red.png","../images/org_blu.png","../images/ylw_slt.png","../images/pnk_blu.png","../images/gry_blk.png","../images/blu_wht.png"],"mutagen_generator_assignment":[0,1],"goal":2,"start":5,"action_noise":0.15,"location_history":"[5,4,2]","action_history":"[0,1]","mutagen_history":"[0,1]","location_rts":"[618,3884]","trial_type":"fractal-mutation","trial_index":80,"time_elapsed":3298918,"internal_node_id":"0.0-5.0-26.0"},{"group":"hexagon_tri","fractal_assignment":["../images/cyn_red.png","../images/org_blu.png","../images/ylw_slt.png","../images/pnk_blu.png","../images/gry_blk.png","../images/blu_wht.png"],"mutagen_generator_assignment":[0,1],"goal":3,"start":2,"action_noise":0.15,"location_history":"[2,1,5,0,5,0,5,0,5,4,2,3]","action_history":"[0,0,1,0,0,1,0,0,0,1,1]","mutagen_history":"[0,0,1,0,0,1,0,0,0,1,1]","location_rts":"[4528,15724,1264,3452,2502,786,3928,10228,818,3108,320]","trial_type":"fractal-mutation","trial_index":81,"time_elapsed":3361026,"internal_node_id":"0.0-5.0-27.0"},{"group":"hexagon_tri","fractal_assignment":["../images/cyn_red.png","../images/org_blu.png","../images/ylw_slt.png","../images/pnk_blu.png","../images/gry_blk.png","../images/blu_wht.png"],"mutagen_generator_assignment":[0,1],"goal":0,"start":3,"action_noise":0.15,"location_history":"[3,4,0]","action_history":"[1,0]","mutagen_history":"[1,0]","location_rts":"[2796,402]","trial_type":"fractal-mutation","trial_index":82,"time_elapsed":3369912,"internal_node_id":"0.0-5.0-28.0"},{"group":"hexagon_tri","fractal_assignment":["../images/cyn_red.png","../images/org_blu.png","../images/ylw_slt.png","../images/pnk_blu.png","../images/gry_blk.png","../images/blu_wht.png"],"mutagen_generator_assignment":[0,1],"goal":1,"start":0,"action_noise":0.15,"location_history":"[0,5,4,2,3,4,2,3,4,2,3,2,3,2,1]","action_history":"[0,1,1,1,1,1,1,1,1,1,0,1,1,0]","mutagen_history":"[0,1,1,1,1,1,1,1,1,1,0,1,1,0]","location_rts":"[1126,818,1406,3050,424,3540,776,5282,11730,3216,5770,872,3842,6394]","trial_type":"fractal-mutation","trial_index":83,"time_elapsed":3437012,"internal_node_id":"0.0-5.0-29.0"},{"group":"hexagon_tri","fractal_assignment":["../images/cyn_red.png","../images/org_blu.png","../images/ylw_slt.png","../images/pnk_blu.png","../images/gry_blk.png","../images/blu_wht.png"],"mutagen_generator_assignment":[0,1],"goal":4,"start":1,"action_noise":0.15,"location_history":"[1,5,4]","action_history":"[0,0]","mutagen_history":"[0,0]","location_rts":"[764,332]","trial_type":"fractal-mutation","trial_index":84,"time_elapsed":3443764,"internal_node_id":"0.0-5.0-30.0"},{"group":"hexagon_tri","fractal_assignment":["../images/cyn_red.png","../images/org_blu.png","../images/ylw_slt.png","../images/pnk_blu.png","../images/gry_blk.png","../images/blu_wht.png"],"mutagen_generator_assignment":[0,1],"goal":5,"start":4,"action_noise":0.15,"location_history":"[4,2,3,4,2,1,3,4,0,1,5]","action_history":"[1,1,1,1,0,0,1,0,1,1]","mutagen_history":"[1,1,1,1,0,0,1,0,1,1]","location_rts":"[468,10822,1790,3930,10150,460,6498,1768,444,492]","trial_type":"fractal-mutation","trial_index":85,"time_elapsed":3495076,"internal_node_id":"0.0-5.0-31.0"},{"group":"hexagon_tri","fractal_assignment":["../images/cyn_red.png","../images/org_blu.png","../images/ylw_slt.png","../images/pnk_blu.png","../images/gry_blk.png","../images/blu_wht.png"],"mutagen_generator_assignment":[0,1],"goal":0,"start":5,"action_noise":0.15,"location_history":"[5,0]","action_history":"[1]","mutagen_history":"[1]","location_rts":"[9224]","trial_type":"fractal-mutation","trial_index":86,"time_elapsed":3508946,"internal_node_id":"0.0-5.0-32.0"},{"group":"hexagon_tri","fractal_assignment":["../images/cyn_red.png","../images/org_blu.png","../images/ylw_slt.png","../images/pnk_blu.png","../images/gry_blk.png","../images/blu_wht.png"],"mutagen_generator_assignment":[0,1],"goal":3,"start":0,"action_noise":0.15,"location_history":"[0,1,3]","action_history":"[0,0]","mutagen_history":"[0,0]","location_rts":"[4872,8008]","trial_type":"fractal-mutation","trial_index":87,"time_elapsed":3527478,"internal_node_id":"0.0-5.0-33.0"},{"group":"hexagon_tri","fractal_assignment":["../images/cyn_red.png","../images/org_blu.png","../images/ylw_slt.png","../images/pnk_blu.png","../images/gry_blk.png","../images/blu_wht.png"],"mutagen_generator_assignment":[0,1],"goal":1,"start":3,"action_noise":0.15,"location_history":"[3,4,0,5,4,0,5,4,2,3,4,2,3,4,0,5,4,0,1]","action_history":"[1,0,0,0,1,0,1,1,1,1,1,1,1,0,0,0,0,1]","mutagen_history":"[1,0,0,0,1,0,1,1,1,1,1,1,1,0,0,0,0,1]","location_rts":"[5368,664,1066,6472,4398,648,600,3314,572,382,870,15134,2492,2608,596,20964,23950,498]","trial_type":"fractal-mutation","trial_index":88,"time_elapsed":3641248,"internal_node_id":"0.0-5.0-34.0"},{"group":"hexagon_tri","fractal_assignment":["../images/cyn_red.png","../images/org_blu.png","../images/ylw_slt.png","../images/pnk_blu.png","../images/gry_blk.png","../images/blu_wht.png"],"mutagen_generator_assignment":[0,1],"goal":2,"start":1,"action_noise":0.15,"location_history":"[1,3,4,0,5,0,1,5,4,0,5,4,0,1,5,0,1,5,0,5,4,2]","action_history":"[0,1,0,0,1,1,1,0,0,0,0,0,1,1,1,1,1,1,0,0,0]","mutagen_history":"[0,1,0,0,1,1,1,0,0,0,0,0,1,1,1,1,1,1,0,0,0]","location_rts":"[10342,918,2246,778,3544,6430,880,7344,4276,982,1058,16626,786,468,4628,574,574,870,3490,7822,516]","trial_type":"fractal-mutation","trial_index":89,"time_elapsed":3742668,"internal_node_id":"0.0-5.0-35.0"},{"group":"hexagon_tri","fractal_assignment":["../images/cyn_red.png","../images/org_blu.png","../images/ylw_slt.png","../images/pnk_blu.png","../images/gry_blk.png","../images/blu_wht.png"],"mutagen_generator_assignment":[0,1],"goal":4,"start":2,"action_noise":0.15,"location_history":"[2,1,3,2,1,3,4]","action_history":"[0,0,0,0,0,1]","mutagen_history":"[0,0,0,0,0,1]","location_rts":"[1140,692,876,680,5014,870]","trial_type":"fractal-mutation","trial_index":90,"time_elapsed":3761890,"internal_node_id":"0.0-5.0-36.0"},{"group":"hexagon_tri","fractal_assignment":["../images/cyn_red.png","../images/org_blu.png","../images/ylw_slt.png","../images/pnk_blu.png","../images/gry_blk.png","../images/blu_wht.png"],"mutagen_generator_assignment":[0,1],"goal":5,"start":4,"action_noise":0.15,"location_history":"[4,0,1,3,4,2,3,4,2,1,3,4,2,1,5]","action_history":"[1,1,1,1,1,0,1,1,0,1,1,1,1,1]","mutagen_history":"[1,1,1,1,1,0,1,1,0,1,1,1,1,1]","location_rts":"[532,448,582,1064,7082,9902,11124,790,15776,2096,798,11740,7598,1534]","trial_type":"fractal-mutation","trial_index":91,"time_elapsed":3851766,"internal_node_id":"0.0-5.0-37.0"},{"group":"hexagon_tri","fractal_assignment":["../images/cyn_red.png","../images/org_blu.png","../images/ylw_slt.png","../images/pnk_blu.png","../images/gry_blk.png","../images/blu_wht.png"],"mutagen_generator_assignment":[0,1],"goal":1,"start":5,"action_noise":0.15,"location_history":"[5,4,2,3,2,3,4,2,1]","action_history":"[0,0,1,0,1,1,1,1]","mutagen_history":"[0,0,1,0,1,1,1,1]","location_rts":"[7924,492,26184,2436,660,434,2358,1930]","trial_type":"fractal-mutation","trial_index":92,"time_elapsed":3906384,"internal_node_id":"0.0-5.0-38.0"},{"group":"hexagon_tri","fractal_assignment":["../images/cyn_red.png","../images/org_blu.png","../images/ylw_slt.png","../images/pnk_blu.png","../images/gry_blk.png","../images/blu_wht.png"],"mutagen_generator_assignment":[0,1],"goal":4,"start":1,"action_noise":0.15,"location_history":"[1,5,4]","action_history":"[0,1]","mutagen_history":"[0,1]","location_rts":"[788,17032]","trial_type":"fractal-mutation","trial_index":93,"time_elapsed":3929910,"internal_node_id":"0.0-5.0-39.0"},{"group":"hexagon_tri","fractal_assignment":["../images/cyn_red.png","../images/org_blu.png","../images/ylw_slt.png","../images/pnk_blu.png","../images/gry_blk.png","../images/blu_wht.png"],"mutagen_generator_assignment":[0,1],"goal":3,"start":4,"action_noise":0.15,"location_history":"[4,2,3]","action_history":"[1,1]","mutagen_history":"[1,1]","location_rts":"[972,1234]","trial_type":"fractal-mutation","trial_index":94,"time_elapsed":3937842,"internal_node_id":"0.0-5.0-40.0"},{"group":"hexagon_tri","fractal_assignment":["../images/cyn_red.png","../images/org_blu.png","../images/ylw_slt.png","../images/pnk_blu.png","../images/gry_blk.png","../images/blu_wht.png"],"mutagen_generator_assignment":[0,1],"goal":2,"start":3,"action_noise":0.15,"location_history":"[3,4,2]","action_history":"[0,1]","mutagen_history":"[0,1]","location_rts":"[736,438]","trial_type":"fractal-mutation","trial_index":95,"time_elapsed":3944700,"internal_node_id":"0.0-5.0-41.0"},{"group":"hexagon_tri","fractal_assignment":["../images/cyn_red.png","../images/org_blu.png","../images/ylw_slt.png","../images/pnk_blu.png","../images/gry_blk.png","../images/blu_wht.png"],"mutagen_generator_assignment":[0,1],"goal":0,"start":2,"action_noise":0.15,"location_history":"[2,3,4,2,3,2,3,4,2,1,5,4,2,3,2,1,5,0]","action_history":"[1,1,1,1,0,1,1,1,0,1,1,1,0,1,0,1,1]","mutagen_history":"[1,1,1,1,0,1,1,1,0,1,1,1,0,1,0,1,1]","location_rts":"[718,386,398,516,494,412,390,564,686,1178,556,750,668,624,498,804,520]","trial_type":"fractal-mutation","trial_index":96,"time_elapsed":3977046,"internal_node_id":"0.0-5.0-42.0"},{"group":"hexagon_tri","fractal_assignment":["../images/cyn_red.png","../images/org_blu.png","../images/ylw_slt.png","../images/pnk_blu.png","../images/gry_blk.png","../images/blu_wht.png"],"mutagen_generator_assignment":[0,1],"goal":5,"start":0,"action_noise":0.15,"location_history":"[0,5]","action_history":"[0]","mutagen_history":"[0]","location_rts":"[12584]","trial_type":"fractal-mutation","trial_index":97,"time_elapsed":3994218,"internal_node_id":"0.0-5.0-43.0"},{"group":"hexagon_tri","fractal_assignment":["../images/cyn_red.png","../images/org_blu.png","../images/ylw_slt.png","../images/pnk_blu.png","../images/gry_blk.png","../images/blu_wht.png"],"mutagen_generator_assignment":[0,1],"goal":0,"start":5,"action_noise":0.15,"location_history":"[5,4,2,1,3,4,2,1,3,2,3,2,1,5,4,2,1,3,2,1,5,4,2,1,3,4,2,3,2,3,2,3,2,3,2,1,5,4,0]","action_history":"[0,0,0,0,1,0,0,0,1,1,0,0,1,0,1,1,0,0,0,0,0,1,0,0,1,1,1,0,0,0,1,0,1,0,0,1,0,0]","mutagen_history":"[0,0,0,0,1,0,0,0,1,1,0,0,1,0,1,1,0,0,0,0,0,1,0,0,1,1,1,0,0,0,1,0,1,0,0,1,0,0]","location_rts":"[586,392,982,854,1190,762,512,834,740,852,4548,720,590,1188,422,20748,1130,620,6178,9972,5354,576,1058,13880,1012,488,382,388,1396,472,406,460,400,374,440,500,488,364]","trial_type":"fractal-mutation","trial_index":98,"time_elapsed":4121118,"internal_node_id":"0.0-5.0-44.0"},{"group":"hexagon_tri","fractal_assignment":["../images/cyn_red.png","../images/org_blu.png","../images/ylw_slt.png","../images/pnk_blu.png","../images/gry_blk.png","../images/blu_wht.png"],"mutagen_generator_assignment":[0,1],"goal":2,"start":0,"action_noise":0.15,"location_history":"[0,5,0,5,4,0,1,5,4,2]","action_history":"[0,0,0,0,0,1,1,1,1]","mutagen_history":"[0,0,0,0,0,1,1,1,1]","location_rts":"[33712,13136,432,392,936,3034,10592,810,4304]","trial_type":"fractal-mutation","trial_index":99,"time_elapsed":4201796,"internal_node_id":"0.0-5.0-45.0"},{"group":"hexagon_tri","fractal_assignment":["../images/cyn_red.png","../images/org_blu.png","../images/ylw_slt.png","../images/pnk_blu.png","../images/gry_blk.png","../images/blu_wht.png"],"mutagen_generator_assignment":[0,1],"goal":4,"start":2,"action_noise":0.15,"location_history":"[2,3,4]","action_history":"[1,1]","mutagen_history":"[1,1]","location_rts":"[9406,26796]","trial_type":"fractal-mutation","trial_index":100,"time_elapsed":4243714,"internal_node_id":"0.0-5.0-46.0"},{"group":"hexagon_tri","fractal_assignment":["../images/cyn_red.png","../images/org_blu.png","../images/ylw_slt.png","../images/pnk_blu.png","../images/gry_blk.png","../images/blu_wht.png"],"mutagen_generator_assignment":[0,1],"goal":1,"start":4,"action_noise":0.15,"location_history":"[4,0,1]","action_history":"[0,1]","mutagen_history":"[0,1]","location_rts":"[15684,1170]","trial_type":"fractal-mutation","trial_index":101,"time_elapsed":4266256,"internal_node_id":"0.0-5.0-47.0"},{"group":"hexagon_tri","fractal_assignment":["../images/cyn_red.png","../images/org_blu.png","../images/ylw_slt.png","../images/pnk_blu.png","../images/gry_blk.png","../images/blu_wht.png"],"mutagen_generator_assignment":[0,1],"goal":5,"start":1,"action_noise":0.15,"location_history":"[1,3,2,3,2,1,5]","action_history":"[0,0,0,0,1,1]","mutagen_history":"[0,0,0,0,1,1]","location_rts":"[3482,1656,3180,5644,628,842]","trial_type":"fractal-mutation","trial_index":102,"time_elapsed":4291696,"internal_node_id":"0.0-5.0-48.0"},{"group":"hexagon_tri","fractal_assignment":["../images/cyn_red.png","../images/org_blu.png","../images/ylw_slt.png","../images/pnk_blu.png","../images/gry_blk.png","../images/blu_wht.png"],"mutagen_generator_assignment":[0,1],"goal":3,"start":5,"action_noise":0.15,"location_history":"[5,4,2,1,3]","action_history":"[0,1,0,0]","mutagen_history":"[0,1,0,0]","location_rts":"[1782,184,44,48]","trial_type":"fractal-mutation","trial_index":103,"time_elapsed":4301588,"internal_node_id":"0.0-5.0-49.0"},{"view_history":"[{\"page_index\":0,\"viewing_time\":10610}]","rt":10610,"trial_type":"instructions","trial_index":104,"time_elapsed":4313202,"internal_node_id":"0.0-6.0"},{"rt":4648,"responses":"{\"Q0\":\"none\"}","trial_type":"survey-text","trial_index":105,"time_elapsed":4318854,"internal_node_id":"0.0-7.0"}]