[{"view_history":"[{\"page_index\":0,\"viewing_time\":4871},{\"page_index\":1,\"viewing_time\":4325439}]","rt":4330311,"trial_type":"instructions","trial_index":0,"time_elapsed":4330312,"internal_node_id":"0.0-0.0"},{"view_history":"[{\"page_index\":0,\"viewing_time\":3480},{\"page_index\":1,\"viewing_time\":20867}]","rt":24348,"trial_type":"instructions","trial_index":1,"time_elapsed":4355661,"internal_node_id":"0.0-1.0"},{"group":"hexagon_tri","room_assignment":["yellow","green","grey","blue","red","purple"],"door_color_assignment":["white","black"],"door_generator_assignment":[0,1],"goal":3,"start":5,"action_noise":0.15,"location_history":"[5,0,5,4,2,3]","action_history":"[1,0,0,1,1]","door_history":"[1,0,0,1,1]","location_rts":"[1362,662,387,436,255]","trial_type":"two-door-navigation","trial_index":2,"time_elapsed":4367371,"internal_node_id":"0.0-2.0-0.0"},{"group":"hexagon_tri","room_assignment":["yellow","green","grey","blue","red","purple"],"door_color_assignment":["white","black"],"door_generator_assignment":[0,1],"goal":1,"start":3,"action_noise":0.15,"location_history":"[3,4,2,1]","action_history":"[1,1,0]","door_history":"[1,1,0]","location_rts":"[514,390,536]","trial_type":"two-door-navigation","trial_index":3,"time_elapsed":4375374,"internal_node_id":"0.0-2.0-1.0"},{"group":"hexagon_tri","room_assignment":["yellow","green","grey","blue","red","purple"],"door_color_assignment":["white","black"],"door_generator_assignment":[0,1],"goal":0,"start":1,"action_noise":0.15,"location_history":"[1,5,4,0]","action_history":"[0,0,0]","door_history":"[0,0,0]","location_rts":"[91,279,226]","trial_type":"two-door-navigation","trial_index":4,"time_elapsed":4382535,"internal_node_id":"0.0-2.0-2.0"},{"group":"hexagon_tri","room_assignment":["yellow","green","grey","blue","red","purple"],"door_color_assignment":["white","black"],"door_generator_assignment":[0,1],"goal":3,"start":0,"action_noise":0.15,"location_history":"[0,1,3]","action_history":"[1,0]","door_history":"[1,0]","location_rts":"[352,416]","trial_type":"two-door-navigation","trial_index":5,"time_elapsed":4388848,"internal_node_id":"0.0-2.0-3.0"},{"group":"hexagon_tri","room_assignment":["yellow","green","grey","blue","red","purple"],"door_color_assignment":["white","black"],"door_generator_assignment":[0,1],"goal":4,"start":3,"action_noise":0.15,"location_history":"[3,4]","action_history":"[1]","door_history":"[1]","location_rts":"[321]","trial_type":"two-door-navigation","trial_index":6,"time_elapsed":4393694,"internal_node_id":"0.0-2.0-4.0"},{"group":"hexagon_tri","room_assignment":["yellow","green","grey","blue","red","purple"],"door_color_assignment":["white","black"],"door_generator_assignment":[0,1],"goal":2,"start":4,"action_noise":0.15,"location_history":"[4,2]","action_history":"[1]","door_history":"[1]","location_rts":"[279]","trial_type":"two-door-navigation","trial_index":7,"time_elapsed":4398497,"internal_node_id":"0.0-2.0-5.0"},{"group":"hexagon_tri","room_assignment":["yellow","green","grey","blue","red","purple"],"door_color_assignment":["white","black"],"door_generator_assignment":[0,1],"goal":1,"start":2,"action_noise":0.15,"location_history":"[2,1]","action_history":"[0]","door_history":"[0]","location_rts":"[7]","trial_type":"two-door-navigation","trial_index":8,"time_elapsed":4403025,"internal_node_id":"0.0-2.0-6.0"},{"group":"hexagon_tri","room_assignment":["yellow","green","grey","blue","red","purple"],"door_color_assignment":["white","black"],"door_generator_assignment":[0,1],"goal":5,"start":1,"action_noise":0.15,"location_history":"[1,3,2,1,5]","action_history":"[0,0,0,1]","door_history":"[0,0,0,1]","location_rts":"[266,562,212,313]","trial_type":"two-door-navigation","trial_index":9,"time_elapsed":4411964,"internal_node_id":"0.0-2.0-7.0"},{"group":"hexagon_tri","room_assignment":["yellow","green","grey","blue","red","purple"],"door_color_assignment":["white","black"],"door_generator_assignment":[0,1],"goal":4,"start":5,"action_noise":0.15,"location_history":"[5,0,1,3,4]","action_history":"[1,1,0,1]","door_history":"[1,1,0,1]","location_rts":"[485,601,603,659]","trial_type":"two-door-navigation","trial_index":10,"time_elapsed":4421898,"internal_node_id":"0.0-2.0-8.0"},{"group":"hexagon_tri","room_assignment":["yellow","green","grey","blue","red","purple"],"door_color_assignment":["white","black"],"door_generator_assignment":[0,1],"goal":2,"start":4,"action_noise":0.15,"location_history":"[4,2]","action_history":"[1]","door_history":"[1]","location_rts":"[282]","trial_type":"two-door-navigation","trial_index":11,"time_elapsed":4426705,"internal_node_id":"0.0-2.0-9.0"},{"group":"hexagon_tri","room_assignment":["yellow","green","grey","blue","red","purple"],"door_color_assignment":["white","black"],"door_generator_assignment":[0,1],"goal":0,"start":2,"action_noise":0.15,"location_history":"[2,1,3,2,1,5,0]","action_history":"[0,0,0,0,1,1]","door_history":"[0,0,0,0,1,1]","location_rts":"[571,406,41,2008,300,663]","trial_type":"two-door-navigation","trial_index":12,"time_elapsed":4440322,"internal_node_id":"0.0-2.0-10.0"},{"group":"hexagon_tri","room_assignment":["yellow","green","grey","blue","red","purple"],"door_color_assignment":["white","black"],"door_generator_assignment":[0,1],"goal":1,"start":0,"action_noise":0.15,"location_history":"[0,1]","action_history":"[1]","door_history":"[1]","location_rts":"[2271]","trial_type":"two-door-navigation","trial_index":13,"time_elapsed":4447117,"internal_node_id":"0.0-2.0-11.0"},{"group":"hexagon_tri","room_assignment":["yellow","green","grey","blue","red","purple"],"door_color_assignment":["white","black"],"door_generator_assignment":[0,1],"goal":3,"start":1,"action_noise":0.15,"location_history":"[1,5,0,5,4,0,1,3]","action_history":"[1,0,0,0,0,0,1]","door_history":"[1,0,0,0,0,0,1]","location_rts":"[338,512,69,445,325,492,350]","trial_type":"two-door-navigation","trial_index":14,"time_elapsed":4460294,"internal_node_id":"0.0-2.0-12.0"},{"group":"hexagon_tri","room_assignment":["yellow","green","grey","blue","red","purple"],"door_color_assignment":["white","black"],"door_generator_assignment":[0,1],"goal":5,"start":3,"action_noise":0.15,"location_history":"[3,4,2,1,5]","action_history":"[1,1,0,1]","door_history":"[1,1,0,1]","location_rts":"[3219,1498,316,119]","trial_type":"two-door-navigation","trial_index":15,"time_elapsed":4473030,"internal_node_id":"0.0-2.0-13.0"},{"group":"hexagon_tri","room_assignment":["yellow","green","grey","blue","red","purple"],"door_color_assignment":["white","black"],"door_generator_assignment":[0,1],"goal":4,"start":5,"action_noise":0.15,"location_history":"[5,0,5,0,1,3,2,1,5,0,1,3,2,1,3,2,3,4]","action_history":"[0,0,1,1,0,0,1,1,1,1,0,0,0,0,0,1,1]","door_history":"[0,0,1,1,0,0,1,1,1,1,0,0,0,0,0,1,1]","location_rts":"[115,346,163,419,199,245,573,278,290,285,430,382,419,263,305,131,343]","trial_type":"two-door-navigation","trial_index":16,"time_elapsed":4499066,"internal_node_id":"0.0-2.0-14.0"},{"group":"hexagon_tri","room_assignment":["yellow","green","grey","blue","red","purple"],"door_color_assignment":["white","black"],"door_generator_assignment":[0,1],"goal":0,"start":4,"action_noise":0.15,"location_history":"[4,0]","action_history":"[0]","door_history":"[0]","location_rts":"[106]","trial_type":"two-door-navigation","trial_index":17,"time_elapsed":4503696,"internal_node_id":"0.0-2.0-15.0"},{"group":"hexagon_tri","room_assignment":["yellow","green","grey","blue","red","purple"],"door_color_assignment":["white","black"],"door_generator_assignment":[0,1],"goal":3,"start":0,"action_noise":0.15,"location_history":"[0,1,5,4,0,5,4,2,1,3]","action_history":"[1,1,0,0,0,0,0,0,0]","door_history":"[1,1,0,0,0,0,0,0,0]","location_rts":"[486,673,733,267,643,579,443,328,368]","trial_type":"two-door-navigation","trial_index":18,"time_elapsed":4520904,"internal_node_id":"0.0-2.0-16.0"},{"group":"hexagon_tri","room_assignment":["yellow","green","grey","blue","red","purple"],"door_color_assignment":["white","black"],"door_generator_assignment":[0,1],"goal":1,"start":3,"action_noise":0.15,"location_history":"[3,4,0,1]","action_history":"[1,1,1]","door_history":"[1,1,1]","location_rts":"[349,87,624]","trial_type":"two-door-navigation","trial_index":19,"time_elapsed":4528528,"internal_node_id":"0.0-2.0-17.0"},{"group":"hexagon_tri","room_assignment":["yellow","green","grey","blue","red","purple"],"door_color_assignment":["white","black"],"door_generator_assignment":[0,1],"goal":5,"start":1,"action_noise":0.15,"location_history":"[1,3,4,0,5]","action_history":"[0,1,0,0]","door_history":"[0,1,0,0]","location_rts":"[245,323,254,289]","trial_type":"two-door-navigation","trial_index":20,"time_elapsed":4537222,"internal_node_id":"0.0-2.0-18.0"},{"group":"hexagon_tri","room_assignment":["yellow","green","grey","blue","red","purple"],"door_color_assignment":["white","black"],"door_generator_assignment":[0,1],"goal":2,"start":5,"action_noise":0.15,"location_history":"[5,4,0,5,4,0,5,4,2]","action_history":"[0,0,0,0,0,0,0,1]","door_history":"[0,0,0,0,0,0,0,1]","location_rts":"[1101,1118,262,483,195,251,527,302]","trial_type":"two-door-navigation","trial_index":21,"time_elapsed":4553132,"internal_node_id":"0.0-2.0-19.0"},{"group":"hexagon_tri","room_assignment":["yellow","green","grey","blue","red","purple"],"door_color_assignment":["white","black"],"door_generator_assignment":[0,1],"goal":4,"start":2,"action_noise":0.15,"location_history":"[2,1,3,2,3,4]","action_history":"[0,0,0,1,1]","door_history":"[0,0,0,1,1]","location_rts":"[3419,10635,643,853,373]","trial_type":"two-door-navigation","trial_index":22,"time_elapsed":4577659,"internal_node_id":"0.0-2.0-20.0"},{"group":"hexagon_tri","room_assignment":["yellow","green","grey","blue","red","purple"],"door_color_assignment":["white","black"],"door_generator_assignment":[0,1],"goal":1,"start":4,"action_noise":0.15,"location_history":"[4,2,3,4,0,5,4,2,1]","action_history":"[1,1,1,1,0,0,0,0]","door_history":"[1,1,1,1,0,0,0,0]","location_rts":"[986,420,711,502,208,3416,324,581]","trial_type":"two-door-navigation","trial_index":23,"time_elapsed":4596477,"internal_node_id":"0.0-2.0-21.0"},{"group":"hexagon_tri","room_assignment":["yellow","green","grey","blue","red","purple"],"door_color_assignment":["white","black"],"door_generator_assignment":[0,1],"goal":3,"start":1,"action_noise":0.15,"location_history":"[1,3]","action_history":"[1]","door_history":"[1]","location_rts":"[485]","trial_type":"two-door-navigation","trial_index":24,"time_elapsed":4601486,"internal_node_id":"0.0-2.0-22.0"},{"group":"hexagon_tri","room_assignment":["yellow","green","grey","blue","red","purple"],"door_color_assignment":["white","black"],"door_generator_assignment":[0,1],"goal":2,"start":3,"action_noise":0.15,"location_history":"[3,4,2]","action_history":"[1,0]","door_history":"[1,0]","location_rts":"[645,845]","trial_type":"two-door-navigation","trial_index":25,"time_elapsed":4608521,"internal_node_id":"0.0-2.0-23.0"},{"group":"hexagon_tri","room_assignment":["yellow","green","grey","blue","red","purple"],"door_color_assignment":["white","black"],"door_generator_assignment":[0,1],"goal":0,"start":2,"action_noise":0.15,"location_history":"[2,1,3,4,2,3,2,1,3,4,2,3,2,1,5,0]","action_history":"[0,0,1,1,0,0,0,0,1,1,1,0,0,1,1]","door_history":"[0,0,1,1,0,0,0,0,1,1,1,0,0,1,1]","location_rts":"[517,12148,1447,365,372,267,1262,311,428,503,267,5595,277,298,557]","trial_type":"two-door-navigation","trial_index":26,"time_elapsed":4651950,"internal_node_id":"0.0-2.0-24.0"},{"group":"hexagon_tri","room_assignment":["yellow","green","grey","blue","red","purple"],"door_color_assignment":["white","black"],"door_generator_assignment":[0,1],"goal":5,"start":0,"action_noise":0.15,"location_history":"[0,1,5]","action_history":"[1,1]","door_history":"[1,1]","location_rts":"[475,1611]","trial_type":"two-door-navigation","trial_index":27,"time_elapsed":4659578,"internal_node_id":"0.0-2.0-25.0"},{"group":"hexagon_tri","room_assignment":["yellow","green","grey","blue","red","purple"],"door_color_assignment":["white","black"],"door_generator_assignment":[0,1],"goal":2,"start":5,"action_noise":0.15,"location_history":"[5,0,1,3,2]","action_history":"[1,1,0,0]","door_history":"[1,1,0,0]","location_rts":"[2622,137,264,115]","trial_type":"two-door-navigation","trial_index":28,"time_elapsed":4670302,"internal_node_id":"0.0-2.0-26.0"},{"group":"hexagon_tri","room_assignment":["yellow","green","grey","blue","red","purple"],"door_color_assignment":["white","black"],"door_generator_assignment":[0,1],"goal":3,"start":2,"action_noise":0.15,"location_history":"[2,1,3]","action_history":"[0,0]","door_history":"[0,0]","location_rts":"[493,1751]","trial_type":"two-door-navigation","trial_index":29,"time_elapsed":4678086,"internal_node_id":"0.0-2.0-27.0"},{"group":"hexagon_tri","room_assignment":["yellow","green","grey","blue","red","purple"],"door_color_assignment":["white","black"],"door_generator_assignment":[0,1],"goal":0,"start":3,"action_noise":0.15,"location_history":"[3,4,2,3,4,0]","action_history":"[1,1,1,1,0]","door_history":"[1,1,1,1,0]","location_rts":"[116,93,3961,59,149]","trial_type":"two-door-navigation","trial_index":30,"time_elapsed":4691071,"internal_node_id":"0.0-2.0-28.0"},{"group":"hexagon_tri","room_assignment":["yellow","green","grey","blue","red","purple"],"door_color_assignment":["white","black"],"door_generator_assignment":[0,1],"goal":1,"start":0,"action_noise":0.15,"location_history":"[0,1]","action_history":"[1]","door_history":"[1]","location_rts":"[188]","trial_type":"two-door-navigation","trial_index":31,"time_elapsed":4695783,"internal_node_id":"0.0-2.0-29.0"},{"group":"hexagon_tri","room_assignment":["yellow","green","grey","blue","red","purple"],"door_color_assignment":["white","black"],"door_generator_assignment":[0,1],"goal":4,"start":1,"action_noise":0.15,"location_history":"[1,3,2,1,5,0,1,3,2,3,4]","action_history":"[0,0,1,1,1,1,0,0,1,1]","door_history":"[0,0,1,1,1,1,0,0,1,1]","location_rts":"[21490,635,479,624,519,844,292,330,66,359]","trial_type":"two-door-navigation","trial_index":32,"time_elapsed":4735126,"internal_node_id":"0.0-2.0-30.0"},{"group":"hexagon_tri","room_assignment":["yellow","green","grey","blue","red","purple"],"door_color_assignment":["white","black"],"door_generator_assignment":[0,1],"goal":5,"start":4,"action_noise":0.15,"location_history":"[4,2,3,4,2,1,3,4,2,1,3,4,2,3,2,1,3,2,1,5]","action_history":"[1,1,1,1,0,0,1,1,0,0,1,1,1,0,0,0,0,0,1]","door_history":"[1,1,1,1,0,0,1,1,0,0,1,1,1,0,0,0,0,0,1]","location_rts":"[1260,3885,3646,514,374,564,282,358,415,239,267,218,259,414,226,203,269,231,183]","trial_type":"two-door-navigation","trial_index":33,"time_elapsed":4771827,"internal_node_id":"0.0-2.0-31.0"},{"group":"hexagon_tri","room_assignment":["yellow","green","grey","blue","red","purple"],"door_color_assignment":["white","black"],"door_generator_assignment":[0,1],"goal":0,"start":5,"action_noise":0.15,"location_history":"[5,0]","action_history":"[1]","door_history":"[1]","location_rts":"[222]","trial_type":"two-door-navigation","trial_index":34,"time_elapsed":4776571,"internal_node_id":"0.0-2.0-32.0"},{"group":"hexagon_tri","room_assignment":["yellow","green","grey","blue","red","purple"],"door_color_assignment":["white","black"],"door_generator_assignment":[0,1],"goal":3,"start":0,"action_noise":0.15,"location_history":"[0,5,4,0,1,5,4,0,5,4,0,1,5,0,5,4,0,1,3]","action_history":"[0,0,0,1,1,1,1,0,0,0,1,1,1,0,0,0,1,0]","door_history":"[0,0,0,1,1,1,1,0,0,0,1,1,1,0,0,0,1,0]","location_rts":"[183,404,439,247,416,240,382,376,132,2734,993,1625,730,245,255,224,132,200]","trial_type":"two-door-navigation","trial_index":35,"time_elapsed":4808401,"internal_node_id":"0.0-2.0-33.0"},{"group":"hexagon_tri","room_assignment":["yellow","green","grey","blue","red","purple"],"door_color_assignment":["white","black"],"door_generator_assignment":[0,1],"goal":1,"start":3,"action_noise":0.15,"location_history":"[3,2,3,4,0,5,4,2,3,4,0,1]","action_history":"[0,1,1,0,0,0,1,1,0,0,0]","door_history":"[0,1,1,0,0,0,1,1,0,0,0]","location_rts":"[1853,899,584,202,580,32,11191,339,3231,651,495]","trial_type":"two-door-navigation","trial_index":36,"time_elapsed":4843187,"internal_node_id":"0.0-2.0-34.0"},{"group":"hexagon_tri","room_assignment":["yellow","green","grey","blue","red","purple"],"door_color_assignment":["white","black"],"door_generator_assignment":[0,1],"goal":2,"start":1,"action_noise":0.15,"location_history":"[1,3,2]","action_history":"[0,0]","door_history":"[0,0]","location_rts":"[211,1853]","trial_type":"two-door-navigation","trial_index":37,"time_elapsed":4850793,"internal_node_id":"0.0-2.0-35.0"},{"group":"hexagon_tri","room_assignment":["yellow","green","grey","blue","red","purple"],"door_color_assignment":["white","black"],"door_generator_assignment":[0,1],"goal":4,"start":2,"action_noise":0.15,"location_history":"[2,1,3,2,3,4]","action_history":"[0,0,0,1,1]","door_history":"[0,0,0,1,1]","location_rts":"[1080,873,1178,206,196]","trial_type":"two-door-navigation","trial_index":38,"time_elapsed":4862930,"internal_node_id":"0.0-2.0-36.0"},{"group":"hexagon_tri","room_assignment":["yellow","green","grey","blue","red","purple"],"door_color_assignment":["white","black"],"door_generator_assignment":[0,1],"goal":5,"start":4,"action_noise":0.15,"location_history":"[4,0,5]","action_history":"[0,0]","door_history":"[0,0]","location_rts":"[335,447]","trial_type":"two-door-navigation","trial_index":39,"time_elapsed":4869253,"internal_node_id":"0.0-2.0-37.0"},{"group":"hexagon_tri","room_assignment":["yellow","green","grey","blue","red","purple"],"door_color_assignment":["white","black"],"door_generator_assignment":[0,1],"goal":1,"start":5,"action_noise":0.15,"location_history":"[5,4,0,1]","action_history":"[0,0,0]","door_history":"[0,0,0]","location_rts":"[276,897,672]","trial_type":"two-door-navigation","trial_index":40,"time_elapsed":4877661,"internal_node_id":"0.0-2.0-38.0"},{"group":"hexagon_tri","room_assignment":["yellow","green","grey","blue","red","purple"],"door_color_assignment":["white","black"],"door_generator_assignment":[0,1],"goal":4,"start":1,"action_noise":0.15,"location_history":"[1,3,4]","action_history":"[0,1]","door_history":"[0,1]","location_rts":"[764,801]","trial_type":"two-door-navigation","trial_index":41,"time_elapsed":4884770,"internal_node_id":"0.0-2.0-39.0"},{"group":"hexagon_tri","room_assignment":["yellow","green","grey","blue","red","purple"],"door_color_assignment":["white","black"],"door_generator_assignment":[0,1],"goal":3,"start":4,"action_noise":0.15,"location_history":"[4,0,1,3]","action_history":"[0,1,0]","door_history":"[0,1,0]","location_rts":"[284,343,618]","trial_type":"two-door-navigation","trial_index":42,"time_elapsed":4892578,"internal_node_id":"0.0-2.0-40.0"},{"group":"hexagon_tri","room_assignment":["yellow","green","grey","blue","red","purple"],"door_color_assignment":["white","black"],"door_generator_assignment":[0,1],"goal":2,"start":3,"action_noise":0.15,"location_history":"[3,2]","action_history":"[0]","door_history":"[0]","location_rts":"[998]","trial_type":"two-door-navigation","trial_index":43,"time_elapsed":4898097,"internal_node_id":"0.0-2.0-41.0"},{"group":"hexagon_tri","room_assignment":["yellow","green","grey","blue","red","purple"],"door_color_assignment":["white","black"],"door_generator_assignment":[0,1],"goal":0,"start":2,"action_noise":0.15,"location_history":"[2,3,4,2,3,4,0]","action_history":"[1,1,1,1,1,0]","door_history":"[1,1,1,1,1,0]","location_rts":"[640,1085,449,349,311,2684]","trial_type":"two-door-navigation","trial_index":44,"time_elapsed":4913240,"internal_node_id":"0.0-2.0-42.0"},{"group":"hexagon_tri","room_assignment":["yellow","green","grey","blue","red","purple"],"door_color_assignment":["white","black"],"door_generator_assignment":[0,1],"goal":5,"start":0,"action_noise":0.15,"location_history":"[0,5]","action_history":"[0]","door_history":"[0]","location_rts":"[7057]","trial_type":"two-door-navigation","trial_index":45,"time_elapsed":4924820,"internal_node_id":"0.0-2.0-43.0"},{"group":"hexagon_tri","room_assignment":["yellow","green","grey","blue","red","purple"],"door_color_assignment":["white","black"],"door_generator_assignment":[0,1],"goal":0,"start":5,"action_noise":0.15,"location_history":"[5,0]","action_history":"[1]","door_history":"[1]","location_rts":"[275]","trial_type":"two-door-navigation","trial_index":46,"time_elapsed":4929618,"internal_node_id":"0.0-2.0-44.0"},{"group":"hexagon_tri","room_assignment":["yellow","green","grey","blue","red","purple"],"door_color_assignment":["white","black"],"door_generator_assignment":[0,1],"goal":2,"start":0,"action_noise":0.15,"location_history":"[0,1,3,4,2]","action_history":"[1,1,1,0]","door_history":"[1,1,1,0]","location_rts":"[598,552,587,362]","trial_type":"two-door-navigation","trial_index":47,"time_elapsed":4939301,"internal_node_id":"0.0-2.0-45.0"},{"group":"hexagon_tri","room_assignment":["yellow","green","grey","blue","red","purple"],"door_color_assignment":["white","black"],"door_generator_assignment":[0,1],"goal":4,"start":2,"action_noise":0.15,"location_history":"[2,3,4]","action_history":"[1,1]","door_history":"[1,1]","location_rts":"[1071,984]","trial_type":"two-door-navigation","trial_index":48,"time_elapsed":4946899,"internal_node_id":"0.0-2.0-46.0"},{"group":"hexagon_tri","room_assignment":["yellow","green","grey","blue","red","purple"],"door_color_assignment":["white","black"],"door_generator_assignment":[0,1],"goal":1,"start":4,"action_noise":0.15,"location_history":"[4,2,3,4,0,1]","action_history":"[1,1,1,0,0]","door_history":"[1,1,1,0,0]","location_rts":"[621,3530,478,78,313]","trial_type":"two-door-navigation","trial_index":49,"time_elapsed":4960521,"internal_node_id":"0.0-2.0-47.0"},{"group":"hexagon_tri","room_assignment":["yellow","green","grey","blue","red","purple"],"door_color_assignment":["white","black"],"door_generator_assignment":[0,1],"goal":5,"start":1,"action_noise":0.15,"location_history":"[1,3,2,3,4,2,3,4,0,5]","action_history":"[0,0,1,1,1,1,1,0,0]","door_history":"[0,0,1,1,1,1,1,0,0]","location_rts":"[888,732,393,657,281,308,127,814,1182]","trial_type":"two-door-navigation","trial_index":50,"time_elapsed":4978588,"internal_node_id":"0.0-2.0-48.0"},{"group":"hexagon_tri","room_assignment":["yellow","green","grey","blue","red","purple"],"door_color_assignment":["white","black"],"door_generator_assignment":[0,1],"goal":3,"start":5,"action_noise":0.15,"location_history":"[5,4,2,1,3]","action_history":"[1,1,0,0]","door_history":"[1,1,0,0]","location_rts":"[508,738,503,543]","trial_type":"two-door-navigation","trial_index":51,"time_elapsed":4988462,"internal_node_id":"0.0-2.0-49.0"},{"view_history":"[{\"page_index\":0,\"viewing_time\":3262}]","rt":3263,"trial_type":"instructions","trial_index":52,"time_elapsed":4992726,"internal_node_id":"0.0-3.0"},{"view_history":"[{\"page_index\":0,\"viewing_time\":62031},{\"page_index\":1,\"viewing_time\":22250}]","rt":84281,"trial_type":"instructions","trial_index":53,"time_elapsed":5078007,"internal_node_id":"0.0-4.0"},{"group":"hexagon_tri","fractal_assignment":["../images/blu_wht.png","../images/pnk_blu.png","../images/org_blu.png","../images/ylw_slt.png","../images/cyn_red.png","../images/gry_blk.png"],"mutagen_generator_assignment":[1,0],"goal":3,"start":5,"action_noise":0.15,"location_history":"[5,0,1,5,0,1,3]","action_history":"[1,0,0,1,1,1]","mutagen_history":"[0,1,1,0,0,0]","location_rts":"[1285,659,416,613,360,325]","trial_type":"fractal-mutation","trial_index":54,"time_elapsed":5091299,"internal_node_id":"0.0-5.0-0.0"},{"group":"hexagon_tri","fractal_assignment":["../images/blu_wht.png","../images/pnk_blu.png","../images/org_blu.png","../images/ylw_slt.png","../images/cyn_red.png","../images/gry_blk.png"],"mutagen_generator_assignment":[1,0],"goal":1,"start":3,"action_noise":0.15,"location_history":"[3,4,0,5,0,1]","action_history":"[0,0,0,1,1]","mutagen_history":"[1,1,1,0,0]","location_rts":"[302,497,387,457,378]","trial_type":"fractal-mutation","trial_index":55,"time_elapsed":5101937,"internal_node_id":"0.0-5.0-1.0"},{"group":"hexagon_tri","fractal_assignment":["../images/blu_wht.png","../images/pnk_blu.png","../images/org_blu.png","../images/ylw_slt.png","../images/cyn_red.png","../images/gry_blk.png"],"mutagen_generator_assignment":[1,0],"goal":0,"start":1,"action_noise":0.15,"location_history":"[1,5,0]","action_history":"[1,1]","mutagen_history":"[0,0]","location_rts":"[368,611]","trial_type":"fractal-mutation","trial_index":56,"time_elapsed":5108462,"internal_node_id":"0.0-5.0-2.0"},{"group":"hexagon_tri","fractal_assignment":["../images/blu_wht.png","../images/pnk_blu.png","../images/org_blu.png","../images/ylw_slt.png","../images/cyn_red.png","../images/gry_blk.png"],"mutagen_generator_assignment":[1,0],"goal":3,"start":0,"action_noise":0.15,"location_history":"[0,1,3]","action_history":"[1,1]","mutagen_history":"[0,0]","location_rts":"[610,2253]","trial_type":"fractal-mutation","trial_index":57,"time_elapsed":5116871,"internal_node_id":"0.0-5.0-3.0"},{"group":"hexagon_tri","fractal_assignment":["../images/blu_wht.png","../images/pnk_blu.png","../images/org_blu.png","../images/ylw_slt.png","../images/cyn_red.png","../images/gry_blk.png"],"mutagen_generator_assignment":[1,0],"goal":4,"start":3,"action_noise":0.15,"location_history":"[3,2,1,3,4]","action_history":"[0,0,0,1]","mutagen_history":"[1,1,1,0]","location_rts":"[1433,895,358,308]","trial_type":"fractal-mutation","trial_index":58,"time_elapsed":5127456,"internal_node_id":"0.0-5.0-4.0"},{"group":"hexagon_tri","fractal_assignment":["../images/blu_wht.png","../images/pnk_blu.png","../images/org_blu.png","../images/ylw_slt.png","../images/cyn_red.png","../images/gry_blk.png"],"mutagen_generator_assignment":[1,0],"goal":2,"start":4,"action_noise":0.15,"location_history":"[4,2]","action_history":"[1]","mutagen_history":"[0]","location_rts":"[436]","trial_type":"fractal-mutation","trial_index":59,"time_elapsed":5132416,"internal_node_id":"0.0-5.0-5.0"},{"group":"hexagon_tri","fractal_assignment":["../images/blu_wht.png","../images/pnk_blu.png","../images/org_blu.png","../images/ylw_slt.png","../images/cyn_red.png","../images/gry_blk.png"],"mutagen_generator_assignment":[1,0],"goal":1,"start":2,"action_noise":0.15,"location_history":"[2,1]","action_history":"[0]","mutagen_history":"[1]","location_rts":"[264]","trial_type":"fractal-mutation","trial_index":60,"time_elapsed":5137205,"internal_node_id":"0.0-5.0-6.0"},{"group":"hexagon_tri","fractal_assignment":["../images/blu_wht.png","../images/pnk_blu.png","../images/org_blu.png","../images/ylw_slt.png","../images/cyn_red.png","../images/gry_blk.png"],"mutagen_generator_assignment":[1,0],"goal":5,"start":1,"action_noise":0.15,"location_history":"[1,3,4,2,3,4,0,5]","action_history":"[0,1,1,1,1,1,0]","mutagen_history":"[1,0,0,0,0,0,1]","location_rts":"[289,372,284,385,476,413,405]","trial_type":"fractal-mutation","trial_index":61,"time_elapsed":5150485,"internal_node_id":"0.0-5.0-7.0"},{"group":"hexagon_tri","fractal_assignment":["../images/blu_wht.png","../images/pnk_blu.png","../images/org_blu.png","../images/ylw_slt.png","../images/cyn_red.png","../images/gry_blk.png"],"mutagen_generator_assignment":[1,0],"goal":4,"start":5,"action_noise":0.15,"location_history":"[5,4]","action_history":"[0]","mutagen_history":"[1]","location_rts":"[1259]","trial_type":"fractal-mutation","trial_index":62,"time_elapsed":5156277,"internal_node_id":"0.0-5.0-8.0"},{"group":"hexagon_tri","fractal_assignment":["../images/blu_wht.png","../images/pnk_blu.png","../images/org_blu.png","../images/ylw_slt.png","../images/cyn_red.png","../images/gry_blk.png"],"mutagen_generator_assignment":[1,0],"goal":2,"start":4,"action_noise":0.15,"location_history":"[4,0,5,4,0,1,5,0,5,4,2]","action_history":"[0,1,1,0,0,1,1,1,0,0]","mutagen_history":"[1,0,0,1,1,0,0,0,1,1]","location_rts":"[324,410,681,818,403,369,576,613,409,436]","trial_type":"fractal-mutation","trial_index":63,"time_elapsed":5175031,"internal_node_id":"0.0-5.0-9.0"},{"group":"hexagon_tri","fractal_assignment":["../images/blu_wht.png","../images/pnk_blu.png","../images/org_blu.png","../images/ylw_slt.png","../images/cyn_red.png","../images/gry_blk.png"],"mutagen_generator_assignment":[1,0],"goal":0,"start":2,"action_noise":0.15,"location_history":"[2,1,5,0]","action_history":"[0,1,1]","mutagen_history":"[1,0,0]","location_rts":"[336,381,77]","trial_type":"fractal-mutation","trial_index":64,"time_elapsed":5182392,"internal_node_id":"0.0-5.0-10.0"},{"group":"hexagon_tri","fractal_assignment":["../images/blu_wht.png","../images/pnk_blu.png","../images/org_blu.png","../images/ylw_slt.png","../images/cyn_red.png","../images/gry_blk.png"],"mutagen_generator_assignment":[1,0],"goal":1,"start":0,"action_noise":0.15,"location_history":"[0,1]","action_history":"[1]","mutagen_history":"[0]","location_rts":"[770]","trial_type":"fractal-mutation","trial_index":65,"time_elapsed":5187684,"internal_node_id":"0.0-5.0-11.0"},{"group":"hexagon_tri","fractal_assignment":["../images/blu_wht.png","../images/pnk_blu.png","../images/org_blu.png","../images/ylw_slt.png","../images/cyn_red.png","../images/gry_blk.png"],"mutagen_generator_assignment":[1,0],"goal":3,"start":1,"action_noise":0.15,"location_history":"[1,5,0,1,5,0,5,0,1,5,4,2,3]","action_history":"[1,1,1,1,1,0,1,1,1,0,0,1]","mutagen_history":"[0,0,0,0,0,1,0,0,0,1,1,0]","location_rts":"[290,363,359,361,378,300,430,352,370,142,316,68]","trial_type":"fractal-mutation","trial_index":66,"time_elapsed":5207173,"internal_node_id":"0.0-5.0-12.0"},{"group":"hexagon_tri","fractal_assignment":["../images/blu_wht.png","../images/pnk_blu.png","../images/org_blu.png","../images/ylw_slt.png","../images/cyn_red.png","../images/gry_blk.png"],"mutagen_generator_assignment":[1,0],"goal":5,"start":3,"action_noise":0.15,"location_history":"[3,4,0,5]","action_history":"[1,0,0]","mutagen_history":"[0,1,1]","location_rts":"[352,294,363]","trial_type":"fractal-mutation","trial_index":67,"time_elapsed":5214749,"internal_node_id":"0.0-5.0-13.0"},{"group":"hexagon_tri","fractal_assignment":["../images/blu_wht.png","../images/pnk_blu.png","../images/org_blu.png","../images/ylw_slt.png","../images/cyn_red.png","../images/gry_blk.png"],"mutagen_generator_assignment":[1,0],"goal":4,"start":5,"action_noise":0.15,"location_history":"[5,0,1,5,4]","action_history":"[1,1,0,0]","mutagen_history":"[0,0,1,1]","location_rts":"[650,1196,557,444]","trial_type":"fractal-mutation","trial_index":68,"time_elapsed":5225188,"internal_node_id":"0.0-5.0-14.0"},{"group":"hexagon_tri","fractal_assignment":["../images/blu_wht.png","../images/pnk_blu.png","../images/org_blu.png","../images/ylw_slt.png","../images/cyn_red.png","../images/gry_blk.png"],"mutagen_generator_assignment":[1,0],"goal":0,"start":4,"action_noise":0.15,"location_history":"[4,2,3,4,0]","action_history":"[1,1,1,0]","mutagen_history":"[0,0,0,1]","location_rts":"[679,1599,359,406]","trial_type":"fractal-mutation","trial_index":69,"time_elapsed":5235820,"internal_node_id":"0.0-5.0-15.0"},{"group":"hexagon_tri","fractal_assignment":["../images/blu_wht.png","../images/pnk_blu.png","../images/org_blu.png","../images/ylw_slt.png","../images/cyn_red.png","../images/gry_blk.png"],"mutagen_generator_assignment":[1,0],"goal":3,"start":0,"action_noise":0.15,"location_history":"[0,1,5,4,0,5,4,2,3]","action_history":"[1,0,0,0,0,0,1,1]","mutagen_history":"[0,1,1,1,1,1,0,0]","location_rts":"[1212,251,406,330,347,400,366,281]","trial_type":"fractal-mutation","trial_index":70,"time_elapsed":5251088,"internal_node_id":"0.0-5.0-16.0"},{"group":"hexagon_tri","fractal_assignment":["../images/blu_wht.png","../images/pnk_blu.png","../images/org_blu.png","../images/ylw_slt.png","../images/cyn_red.png","../images/gry_blk.png"],"mutagen_generator_assignment":[1,0],"goal":1,"start":3,"action_noise":0.15,"location_history":"[3,2,1]","action_history":"[0,0]","mutagen_history":"[1,1]","location_rts":"[3679,1091]","trial_type":"fractal-mutation","trial_index":71,"time_elapsed":5261404,"internal_node_id":"0.0-5.0-17.0"},{"group":"hexagon_tri","fractal_assignment":["../images/blu_wht.png","../images/pnk_blu.png","../images/org_blu.png","../images/ylw_slt.png","../images/cyn_red.png","../images/gry_blk.png"],"mutagen_generator_assignment":[1,0],"goal":5,"start":1,"action_noise":0.15,"location_history":"[1,3,2,1,5]","action_history":"[0,0,0,1]","mutagen_history":"[1,1,1,0]","location_rts":"[1280,508,415,438]","trial_type":"fractal-mutation","trial_index":72,"time_elapsed":5271633,"internal_node_id":"0.0-5.0-18.0"},{"group":"hexagon_tri","fractal_assignment":["../images/blu_wht.png","../images/pnk_blu.png","../images/org_blu.png","../images/ylw_slt.png","../images/cyn_red.png","../images/gry_blk.png"],"mutagen_generator_assignment":[1,0],"goal":2,"start":5,"action_noise":0.15,"location_history":"[5,4,2]","action_history":"[0,1]","mutagen_history":"[1,0]","location_rts":"[646,788]","trial_type":"fractal-mutation","trial_index":73,"time_elapsed":5278613,"internal_node_id":"0.0-5.0-19.0"},{"group":"hexagon_tri","fractal_assignment":["../images/blu_wht.png","../images/pnk_blu.png","../images/org_blu.png","../images/ylw_slt.png","../images/cyn_red.png","../images/gry_blk.png"],"mutagen_generator_assignment":[1,0],"goal":4,"start":2,"action_noise":0.15,"location_history":"[2,3,2,1,3,4]","action_history":"[0,0,0,0,0]","mutagen_history":"[1,1,1,1,1]","location_rts":"[517,375,410,344,306]","trial_type":"fractal-mutation","trial_index":74,"time_elapsed":5289180,"internal_node_id":"0.0-5.0-20.0"},{"group":"hexagon_tri","fractal_assignment":["../images/blu_wht.png","../images/pnk_blu.png","../images/org_blu.png","../images/ylw_slt.png","../images/cyn_red.png","../images/gry_blk.png"],"mutagen_generator_assignment":[1,0],"goal":1,"start":4,"action_noise":0.15,"location_history":"[4,0,1]","action_history":"[1,1]","mutagen_history":"[0,0]","location_rts":"[262,307]","trial_type":"fractal-mutation","trial_index":75,"time_elapsed":5295297,"internal_node_id":"0.0-5.0-21.0"},{"group":"hexagon_tri","fractal_assignment":["../images/blu_wht.png","../images/pnk_blu.png","../images/org_blu.png","../images/ylw_slt.png","../images/cyn_red.png","../images/gry_blk.png"],"mutagen_generator_assignment":[1,0],"goal":3,"start":1,"action_noise":0.15,"location_history":"[1,3]","action_history":"[0]","mutagen_history":"[1]","location_rts":"[334]","trial_type":"fractal-mutation","trial_index":76,"time_elapsed":5300157,"internal_node_id":"0.0-5.0-22.0"},{"group":"hexagon_tri","fractal_assignment":["../images/blu_wht.png","../images/pnk_blu.png","../images/org_blu.png","../images/ylw_slt.png","../images/cyn_red.png","../images/gry_blk.png"],"mutagen_generator_assignment":[1,0],"goal":2,"start":3,"action_noise":0.15,"location_history":"[3,2]","action_history":"[0]","mutagen_history":"[1]","location_rts":"[358]","trial_type":"fractal-mutation","trial_index":77,"time_elapsed":5305040,"internal_node_id":"0.0-5.0-23.0"},{"group":"hexagon_tri","fractal_assignment":["../images/blu_wht.png","../images/pnk_blu.png","../images/org_blu.png","../images/ylw_slt.png","../images/cyn_red.png","../images/gry_blk.png"],"mutagen_generator_assignment":[1,0],"goal":0,"start":2,"action_noise":0.15,"location_history":"[2,1,5,0]","action_history":"[0,1,1]","mutagen_history":"[1,0,0]","location_rts":"[426,203,406]","trial_type":"fractal-mutation","trial_index":78,"time_elapsed":5312647,"internal_node_id":"0.0-5.0-24.0"},{"group":"hexagon_tri","fractal_assignment":["../images/blu_wht.png","../images/pnk_blu.png","../images/org_blu.png","../images/ylw_slt.png","../images/cyn_red.png","../images/gry_blk.png"],"mutagen_generator_assignment":[1,0],"goal":5,"start":0,"action_noise":0.15,"location_history":"[0,5]","action_history":"[0]","mutagen_history":"[1]","location_rts":"[304]","trial_type":"fractal-mutation","trial_index":79,"time_elapsed":5317477,"internal_node_id":"0.0-5.0-25.0"},{"group":"hexagon_tri","fractal_assignment":["../images/blu_wht.png","../images/pnk_blu.png","../images/org_blu.png","../images/ylw_slt.png","../images/cyn_red.png","../images/gry_blk.png"],"mutagen_generator_assignment":[1,0],"goal":2,"start":5,"action_noise":0.15,"location_history":"[5,4,0,5,4,0,1,5,0,1,3,4,2]","action_history":"[0,0,1,0,0,0,1,1,1,1,1,1]","mutagen_history":"[1,1,0,1,1,1,0,0,0,0,0,0]","location_rts":"[992,131,400,4391,1870,978,381,627,898,1169,500,1920]","trial_type":"fractal-mutation","trial_index":80,"time_elapsed":5347488,"internal_node_id":"0.0-5.0-26.0"},{"group":"hexagon_tri","fractal_assignment":["../images/blu_wht.png","../images/pnk_blu.png","../images/org_blu.png","../images/ylw_slt.png","../images/cyn_red.png","../images/gry_blk.png"],"mutagen_generator_assignment":[1,0],"goal":3,"start":2,"action_noise":0.15,"location_history":"[2,1,3]","action_history":"[1,0]","mutagen_history":"[0,1]","location_rts":"[746,971]","trial_type":"fractal-mutation","trial_index":81,"time_elapsed":5354752,"internal_node_id":"0.0-5.0-27.0"},{"group":"hexagon_tri","fractal_assignment":["../images/blu_wht.png","../images/pnk_blu.png","../images/org_blu.png","../images/ylw_slt.png","../images/cyn_red.png","../images/gry_blk.png"],"mutagen_generator_assignment":[1,0],"goal":0,"start":3,"action_noise":0.15,"location_history":"[3,2,1,5,4,0]","action_history":"[0,1,1,0,0]","mutagen_history":"[1,0,0,1,1]","location_rts":"[790,512,4728,327,76]","trial_type":"fractal-mutation","trial_index":82,"time_elapsed":5369799,"internal_node_id":"0.0-5.0-28.0"},{"group":"hexagon_tri","fractal_assignment":["../images/blu_wht.png","../images/pnk_blu.png","../images/org_blu.png","../images/ylw_slt.png","../images/cyn_red.png","../images/gry_blk.png"],"mutagen_generator_assignment":[1,0],"goal":1,"start":0,"action_noise":0.15,"location_history":"[0,1]","action_history":"[0]","mutagen_history":"[1]","location_rts":"[3227]","trial_type":"fractal-mutation","trial_index":83,"time_elapsed":5377551,"internal_node_id":"0.0-5.0-29.0"},{"group":"hexagon_tri","fractal_assignment":["../images/blu_wht.png","../images/pnk_blu.png","../images/org_blu.png","../images/ylw_slt.png","../images/cyn_red.png","../images/gry_blk.png"],"mutagen_generator_assignment":[1,0],"goal":4,"start":1,"action_noise":0.15,"location_history":"[1,3,2,1,5,0,5,0,5,4]","action_history":"[0,1,0,0,1,1,1,0,0]","mutagen_history":"[1,0,1,1,0,0,0,1,1]","location_rts":"[591,134,1414,366,16,137,234,295,373]","trial_type":"fractal-mutation","trial_index":84,"time_elapsed":5393807,"internal_node_id":"0.0-5.0-30.0"},{"group":"hexagon_tri","fractal_assignment":["../images/blu_wht.png","../images/pnk_blu.png","../images/org_blu.png","../images/ylw_slt.png","../images/cyn_red.png","../images/gry_blk.png"],"mutagen_generator_assignment":[1,0],"goal":5,"start":4,"action_noise":0.15,"location_history":"[4,2,1,5]","action_history":"[0,0,0]","mutagen_history":"[1,1,1]","location_rts":"[12137,2648,307]","trial_type":"fractal-mutation","trial_index":85,"time_elapsed":5415469,"internal_node_id":"0.0-5.0-31.0"},{"group":"hexagon_tri","fractal_assignment":["../images/blu_wht.png","../images/pnk_blu.png","../images/org_blu.png","../images/ylw_slt.png","../images/cyn_red.png","../images/gry_blk.png"],"mutagen_generator_assignment":[1,0],"goal":0,"start":5,"action_noise":0.15,"location_history":"[5,4,2,3,4,2,3,4,0]","action_history":"[0,1,1,0,1,1,1,1]","mutagen_history":"[1,0,0,1,0,0,0,0]","location_rts":"[3017,373,3048,3893,159,249,1668,1406]","trial_type":"fractal-mutation","trial_index":86,"time_elapsed":5440956,"internal_node_id":"0.0-5.0-32.0"},{"group":"hexagon_tri","fractal_assignment":["../images/blu_wht.png","../images/pnk_blu.png","../images/org_blu.png","../images/ylw_slt.png","../images/cyn_red.png","../images/gry_blk.png"],"mutagen_generator_assignment":[1,0],"goal":3,"start":0,"action_noise":0.15,"location_history":"[0,5,4,2,1,3]","action_history":"[0,0,1,1,1]","mutagen_history":"[1,1,0,0,0]","location_rts":"[707,2,373,1263,911]","trial_type":"fractal-mutation","trial_index":87,"time_elapsed":5452822,"internal_node_id":"0.0-5.0-33.0"},{"group":"hexagon_tri","fractal_assignment":["../images/blu_wht.png","../images/pnk_blu.png","../images/org_blu.png","../images/ylw_slt.png","../images/cyn_red.png","../images/gry_blk.png"],"mutagen_generator_assignment":[1,0],"goal":1,"start":3,"action_noise":0.15,"location_history":"[3,2,1]","action_history":"[0,0]","mutagen_history":"[1,1]","location_rts":"[670,2018]","trial_type":"fractal-mutation","trial_index":88,"time_elapsed":5461056,"internal_node_id":"0.0-5.0-34.0"},{"group":"hexagon_tri","fractal_assignment":["../images/blu_wht.png","../images/pnk_blu.png","../images/org_blu.png","../images/ylw_slt.png","../images/cyn_red.png","../images/gry_blk.png"],"mutagen_generator_assignment":[1,0],"goal":2,"start":1,"action_noise":0.15,"location_history":"[1,3,4,2]","action_history":"[0,0,1]","mutagen_history":"[1,1,0]","location_rts":"[417,469,381]","trial_type":"fractal-mutation","trial_index":89,"time_elapsed":5468888,"internal_node_id":"0.0-5.0-35.0"},{"group":"hexagon_tri","fractal_assignment":["../images/blu_wht.png","../images/pnk_blu.png","../images/org_blu.png","../images/ylw_slt.png","../images/cyn_red.png","../images/gry_blk.png"],"mutagen_generator_assignment":[1,0],"goal":4,"start":2,"action_noise":0.15,"location_history":"[2,1,5,0,1,5,0,5,4]","action_history":"[0,1,1,1,1,1,0,0]","mutagen_history":"[1,0,0,0,0,0,1,1]","location_rts":"[218,655,587,474,30,276,351,433]","trial_type":"fractal-mutation","trial_index":90,"time_elapsed":5483586,"internal_node_id":"0.0-5.0-36.0"},{"group":"hexagon_tri","fractal_assignment":["../images/blu_wht.png","../images/pnk_blu.png","../images/org_blu.png","../images/ylw_slt.png","../images/cyn_red.png","../images/gry_blk.png"],"mutagen_generator_assignment":[1,0],"goal":5,"start":4,"action_noise":0.15,"location_history":"[4,0,1,5]","action_history":"[0,1,1]","mutagen_history":"[1,0,0]","location_rts":"[391,259,344]","trial_type":"fractal-mutation","trial_index":91,"time_elapsed":5491149,"internal_node_id":"0.0-5.0-37.0"},{"group":"hexagon_tri","fractal_assignment":["../images/blu_wht.png","../images/pnk_blu.png","../images/org_blu.png","../images/ylw_slt.png","../images/cyn_red.png","../images/gry_blk.png"],"mutagen_generator_assignment":[1,0],"goal":1,"start":5,"action_noise":0.15,"location_history":"[5,0,1]","action_history":"[1,1]","mutagen_history":"[0,0]","location_rts":"[825,487]","trial_type":"fractal-mutation","trial_index":92,"time_elapsed":5498008,"internal_node_id":"0.0-5.0-38.0"},{"group":"hexagon_tri","fractal_assignment":["../images/blu_wht.png","../images/pnk_blu.png","../images/org_blu.png","../images/ylw_slt.png","../images/cyn_red.png","../images/gry_blk.png"],"mutagen_generator_assignment":[1,0],"goal":4,"start":1,"action_noise":0.15,"location_history":"[1,3,4]","action_history":"[0,1]","mutagen_history":"[1,0]","location_rts":"[61,399]","trial_type":"fractal-mutation","trial_index":93,"time_elapsed":5504013,"internal_node_id":"0.0-5.0-39.0"},{"group":"hexagon_tri","fractal_assignment":["../images/blu_wht.png","../images/pnk_blu.png","../images/org_blu.png","../images/ylw_slt.png","../images/cyn_red.png","../images/gry_blk.png"],"mutagen_generator_assignment":[1,0],"goal":3,"start":4,"action_noise":0.15,"location_history":"[4,2,3]","action_history":"[1,1]","mutagen_history":"[0,0]","location_rts":"[452,5449]","trial_type":"fractal-mutation","trial_index":94,"time_elapsed":5515462,"internal_node_id":"0.0-5.0-40.0"},{"group":"hexagon_tri","fractal_assignment":["../images/blu_wht.png","../images/pnk_blu.png","../images/org_blu.png","../images/ylw_slt.png","../images/cyn_red.png","../images/gry_blk.png"],"mutagen_generator_assignment":[1,0],"goal":2,"start":3,"action_noise":0.15,"location_history":"[3,2]","action_history":"[1]","mutagen_history":"[0]","location_rts":"[3233]","trial_type":"fractal-mutation","trial_index":95,"time_elapsed":5523219,"internal_node_id":"0.0-5.0-41.0"},{"group":"hexagon_tri","fractal_assignment":["../images/blu_wht.png","../images/pnk_blu.png","../images/org_blu.png","../images/ylw_slt.png","../images/cyn_red.png","../images/gry_blk.png"],"mutagen_generator_assignment":[1,0],"goal":0,"start":2,"action_noise":0.15,"location_history":"[2,1,3,4,2,1,3,4,2,1,5,0]","action_history":"[0,0,1,1,0,0,1,1,0,1,1]","mutagen_history":"[1,1,0,0,1,1,0,0,1,0,0]","location_rts":"[638,80,2709,977,957,1168,472,1626,1019,225,312]","trial_type":"fractal-mutation","trial_index":96,"time_elapsed":5548138,"internal_node_id":"0.0-5.0-42.0"},{"group":"hexagon_tri","fractal_assignment":["../images/blu_wht.png","../images/pnk_blu.png","../images/org_blu.png","../images/ylw_slt.png","../images/cyn_red.png","../images/gry_blk.png"],"mutagen_generator_assignment":[1,0],"goal":5,"start":0,"action_noise":0.15,"location_history":"[0,5]","action_history":"[0]","mutagen_history":"[1]","location_rts":"[272]","trial_type":"fractal-mutation","trial_index":97,"time_elapsed":5552936,"internal_node_id":"0.0-5.0-43.0"},{"group":"hexagon_tri","fractal_assignment":["../images/blu_wht.png","../images/pnk_blu.png","../images/org_blu.png","../images/ylw_slt.png","../images/cyn_red.png","../images/gry_blk.png"],"mutagen_generator_assignment":[1,0],"goal":0,"start":5,"action_noise":0.15,"location_history":"[5,4,2,1,5,4,0]","action_history":"[0,1,1,1,0,0]","mutagen_history":"[1,0,0,0,1,1]","location_rts":"[495,433,1571,402,307,215]","trial_type":"fractal-mutation","trial_index":98,"time_elapsed":5565993,"internal_node_id":"0.0-5.0-44.0"},{"group":"hexagon_tri","fractal_assignment":["../images/blu_wht.png","../images/pnk_blu.png","../images/org_blu.png","../images/ylw_slt.png","../images/cyn_red.png","../images/gry_blk.png"],"mutagen_generator_assignment":[1,0],"goal":2,"start":0,"action_noise":0.15,"location_history":"[0,5,4,2]","action_history":"[0,0,1]","mutagen_history":"[1,1,0]","location_rts":"[4327,517,441]","trial_type":"fractal-mutation","trial_index":99,"time_elapsed":5577845,"internal_node_id":"0.0-5.0-45.0"},{"group":"hexagon_tri","fractal_assignment":["../images/blu_wht.png","../images/pnk_blu.png","../images/org_blu.png","../images/ylw_slt.png","../images/cyn_red.png","../images/gry_blk.png"],"mutagen_generator_assignment":[1,0],"goal":4,"start":2,"action_noise":0.15,"location_history":"[2,1,5,0,1,5,4]","action_history":"[0,1,1,1,1,1]","mutagen_history":"[1,0,0,0,0,0]","location_rts":"[2236,681,1097,340,313,460]","trial_type":"fractal-mutation","trial_index":100,"time_elapsed":5592603,"internal_node_id":"0.0-5.0-46.0"},{"group":"hexagon_tri","fractal_assignment":["../images/blu_wht.png","../images/pnk_blu.png","../images/org_blu.png","../images/ylw_slt.png","../images/cyn_red.png","../images/gry_blk.png"],"mutagen_generator_assignment":[1,0],"goal":1,"start":4,"action_noise":0.15,"location_history":"[4,0,1]","action_history":"[1,1]","mutagen_history":"[0,0]","location_rts":"[681,1215]","trial_type":"fractal-mutation","trial_index":101,"time_elapsed":5600044,"internal_node_id":"0.0-5.0-47.0"},{"group":"hexagon_tri","fractal_assignment":["../images/blu_wht.png","../images/pnk_blu.png","../images/org_blu.png","../images/ylw_slt.png","../images/cyn_red.png","../images/gry_blk.png"],"mutagen_generator_assignment":[1,0],"goal":5,"start":1,"action_noise":0.15,"location_history":"[1,5]","action_history":"[1]","mutagen_history":"[0]","location_rts":"[18412]","trial_type":"fractal-mutation","trial_index":102,"time_elapsed":5622982,"internal_node_id":"0.0-5.0-48.0"},{"group":"hexagon_tri","fractal_assignment":["../images/blu_wht.png","../images/pnk_blu.png","../images/org_blu.png","../images/ylw_slt.png","../images/cyn_red.png","../images/gry_blk.png"],"mutagen_generator_assignment":[1,0],"goal":3,"start":5,"action_noise":0.15,"location_history":"[5,0,1,3]","action_history":"[0,0,1]","mutagen_history":"[1,1,0]","location_rts":"[1247,520,1891]","trial_type":"fractal-mutation","trial_index":103,"time_elapsed":5633207,"internal_node_id":"0.0-5.0-49.0"},{"view_history":"[{\"page_index\":0,\"viewing_time\":10413}]","rt":10413,"trial_type":"instructions","trial_index":104,"time_elapsed":5644620,"internal_node_id":"0.0-6.0"},{"rt":6781,"responses":"{\"Q0\":\"Nice study!\"}","trial_type":"survey-text","trial_index":105,"time_elapsed":5652405,"internal_node_id":"0.0-7.0"}]