[{"view_history":"[{\"page_index\":0,\"viewing_time\":14513},{\"page_index\":1,\"viewing_time\":16409}]","rt":30923,"trial_type":"instructions","trial_index":0,"time_elapsed":30924,"internal_node_id":"0.0-0.0"},{"view_history":"[{\"page_index\":0,\"viewing_time\":3202},{\"page_index\":1,\"viewing_time\":207033}]","rt":210235,"trial_type":"instructions","trial_index":1,"time_elapsed":242160,"internal_node_id":"0.0-1.0"},{"group":"hexagon_tri","room_assignment":["blue","purple","green","yellow","red","grey"],"door_color_assignment":["black","white"],"door_generator_assignment":[0,1],"goal":3,"start":5,"action_noise":0.15,"location_history":"[5,0,1,5,4,2,3]","action_history":"[1,1,1,0,1,1]","door_history":"[1,1,1,0,1,1]","location_rts":"[1874,287,332,385,591,257]","trial_type":"two-door-navigation","trial_index":2,"time_elapsed":255529,"internal_node_id":"0.0-2.0-0.0"},{"group":"hexagon_tri","room_assignment":["blue","purple","green","yellow","red","grey"],"door_color_assignment":["black","white"],"door_generator_assignment":[0,1],"goal":1,"start":3,"action_noise":0.15,"location_history":"[3,2,3,4,0,1]","action_history":"[0,1,0,0,1]","door_history":"[0,1,0,0,1]","location_rts":"[2282,272,340,702,613]","trial_type":"two-door-navigation","trial_index":3,"time_elapsed":268340,"internal_node_id":"0.0-2.0-1.0"},{"group":"hexagon_tri","room_assignment":["blue","purple","green","yellow","red","grey"],"door_color_assignment":["black","white"],"door_generator_assignment":[0,1],"goal":0,"start":1,"action_noise":0.15,"location_history":"[1,5,0]","action_history":"[1,1]","door_history":"[1,1]","location_rts":"[1651,387]","trial_type":"two-door-navigation","trial_index":4,"time_elapsed":275928,"internal_node_id":"0.0-2.0-2.0"},{"group":"hexagon_tri","room_assignment":["blue","purple","green","yellow","red","grey"],"door_color_assignment":["black","white"],"door_generator_assignment":[0,1],"goal":3,"start":0,"action_noise":0.15,"location_history":"[0,1,5,0,5,4,2,3]","action_history":"[1,1,1,1,0,1,1]","door_history":"[1,1,1,1,0,1,1]","location_rts":"[1373,339,293,323,344,31,228]","trial_type":"two-door-navigation","trial_index":5,"time_elapsed":289508,"internal_node_id":"0.0-2.0-3.0"},{"group":"hexagon_tri","room_assignment":["blue","purple","green","yellow","red","grey"],"door_color_assignment":["black","white"],"door_generator_assignment":[0,1],"goal":4,"start":3,"action_noise":0.15,"location_history":"[3,2,3,4]","action_history":"[0,1,1]","door_history":"[0,1,1]","location_rts":"[1895,318,117]","trial_type":"two-door-navigation","trial_index":6,"time_elapsed":298399,"internal_node_id":"0.0-2.0-4.0"},{"group":"hexagon_tri","room_assignment":["blue","purple","green","yellow","red","grey"],"door_color_assignment":["black","white"],"door_generator_assignment":[0,1],"goal":2,"start":4,"action_noise":0.15,"location_history":"[4,0,5,0,5,0,5,0,5,4,0,5,0,5,4,2]","action_history":"[0,1,1,0,1,0,0,0,0,0,0,0,0,0,1]","door_history":"[0,1,1,0,1,0,0,0,0,0,0,0,0,0,1]","location_rts":"[1877,493,584,415,123,101,549,350,573,309,622,749,1155,535,645]","trial_type":"two-door-navigation","trial_index":7,"time_elapsed":326292,"internal_node_id":"0.0-2.0-5.0"},{"group":"hexagon_tri","room_assignment":["blue","purple","green","yellow","red","grey"],"door_color_assignment":["black","white"],"door_generator_assignment":[0,1],"goal":1,"start":2,"action_noise":0.15,"location_history":"[2,3,2,3,2,1]","action_history":"[1,0,1,0,0]","door_history":"[1,0,1,0,0]","location_rts":"[2945,534,338,111,504]","trial_type":"two-door-navigation","trial_index":8,"time_elapsed":339321,"internal_node_id":"0.0-2.0-6.0"},{"group":"hexagon_tri","room_assignment":["blue","purple","green","yellow","red","grey"],"door_color_assignment":["black","white"],"door_generator_assignment":[0,1],"goal":5,"start":1,"action_noise":0.15,"location_history":"[1,5]","action_history":"[1]","door_history":"[1]","location_rts":"[1704]","trial_type":"two-door-navigation","trial_index":9,"time_elapsed":345547,"internal_node_id":"0.0-2.0-7.0"},{"group":"hexagon_tri","room_assignment":["blue","purple","green","yellow","red","grey"],"door_color_assignment":["black","white"],"door_generator_assignment":[0,1],"goal":4,"start":5,"action_noise":0.15,"location_history":"[5,4]","action_history":"[0]","door_history":"[0]","location_rts":"[3469]","trial_type":"two-door-navigation","trial_index":10,"time_elapsed":353543,"internal_node_id":"0.0-2.0-8.0"},{"group":"hexagon_tri","room_assignment":["blue","purple","green","yellow","red","grey"],"door_color_assignment":["black","white"],"door_generator_assignment":[0,1],"goal":2,"start":4,"action_noise":0.15,"location_history":"[4,2]","action_history":"[1]","door_history":"[1]","location_rts":"[3379]","trial_type":"two-door-navigation","trial_index":11,"time_elapsed":361439,"internal_node_id":"0.0-2.0-9.0"},{"group":"hexagon_tri","room_assignment":["blue","purple","green","yellow","red","grey"],"door_color_assignment":["black","white"],"door_generator_assignment":[0,1],"goal":0,"start":2,"action_noise":0.15,"location_history":"[2,1,3,2,1,5,0]","action_history":"[0,1,0,0,1,1]","door_history":"[0,1,0,0,1,1]","location_rts":"[4176,692,766,1655,725,181]","trial_type":"two-door-navigation","trial_index":12,"time_elapsed":379242,"internal_node_id":"0.0-2.0-10.0"},{"group":"hexagon_tri","room_assignment":["blue","purple","green","yellow","red","grey"],"door_color_assignment":["black","white"],"door_generator_assignment":[0,1],"goal":1,"start":0,"action_noise":0.15,"location_history":"[0,1]","action_history":"[1]","door_history":"[1]","location_rts":"[2337]","trial_type":"two-door-navigation","trial_index":13,"time_elapsed":386102,"internal_node_id":"0.0-2.0-11.0"},{"group":"hexagon_tri","room_assignment":["blue","purple","green","yellow","red","grey"],"door_color_assignment":["black","white"],"door_generator_assignment":[0,1],"goal":3,"start":1,"action_noise":0.15,"location_history":"[1,5,4,0,1,3]","action_history":"[1,0,1,1,0]","door_history":"[1,0,1,1,0]","location_rts":"[3075,345,379,298,111]","trial_type":"two-door-navigation","trial_index":14,"time_elapsed":398899,"internal_node_id":"0.0-2.0-12.0"},{"group":"hexagon_tri","room_assignment":["blue","purple","green","yellow","red","grey"],"door_color_assignment":["black","white"],"door_generator_assignment":[0,1],"goal":5,"start":3,"action_noise":0.15,"location_history":"[3,2,3,2,1,3,2,1,5]","action_history":"[0,0,0,0,0,0,0,1]","door_history":"[0,0,0,0,0,0,0,1]","location_rts":"[3162,608,326,313,342,509,1040,394]","trial_type":"two-door-navigation","trial_index":15,"time_elapsed":417244,"internal_node_id":"0.0-2.0-13.0"},{"group":"hexagon_tri","room_assignment":["blue","purple","green","yellow","red","grey"],"door_color_assignment":["black","white"],"door_generator_assignment":[0,1],"goal":4,"start":5,"action_noise":0.15,"location_history":"[5,0,1,3,4]","action_history":"[0,1,0,1]","door_history":"[0,1,0,1]","location_rts":"[3808,381,9,547]","trial_type":"two-door-navigation","trial_index":16,"time_elapsed":429562,"internal_node_id":"0.0-2.0-14.0"},{"group":"hexagon_tri","room_assignment":["blue","purple","green","yellow","red","grey"],"door_color_assignment":["black","white"],"door_generator_assignment":[0,1],"goal":0,"start":4,"action_noise":0.15,"location_history":"[4,0]","action_history":"[0]","door_history":"[0]","location_rts":"[2166]","trial_type":"two-door-navigation","trial_index":17,"time_elapsed":436248,"internal_node_id":"0.0-2.0-15.0"},{"group":"hexagon_tri","room_assignment":["blue","purple","green","yellow","red","grey"],"door_color_assignment":["black","white"],"door_generator_assignment":[0,1],"goal":3,"start":0,"action_noise":0.15,"location_history":"[0,5,4,0,5,4,0,5,4,2,3]","action_history":"[0,0,0,0,0,0,0,0,1,1]","door_history":"[0,0,0,0,0,0,0,0,1,1]","location_rts":"[2103,625,456,461,581,367,421,1233,749,330]","trial_type":"two-door-navigation","trial_index":18,"time_elapsed":457260,"internal_node_id":"0.0-2.0-16.0"},{"group":"hexagon_tri","room_assignment":["blue","purple","green","yellow","red","grey"],"door_color_assignment":["black","white"],"door_generator_assignment":[0,1],"goal":1,"start":3,"action_noise":0.15,"location_history":"[3,2,3,2,1]","action_history":"[0,1,0,0]","door_history":"[0,1,0,0]","location_rts":"[832,378,62,588]","trial_type":"two-door-navigation","trial_index":19,"time_elapsed":466702,"internal_node_id":"0.0-2.0-17.0"},{"group":"hexagon_tri","room_assignment":["blue","purple","green","yellow","red","grey"],"door_color_assignment":["black","white"],"door_generator_assignment":[0,1],"goal":5,"start":1,"action_noise":0.15,"location_history":"[1,5]","action_history":"[1]","door_history":"[1]","location_rts":"[1320]","trial_type":"two-door-navigation","trial_index":20,"time_elapsed":472542,"internal_node_id":"0.0-2.0-18.0"},{"group":"hexagon_tri","room_assignment":["blue","purple","green","yellow","red","grey"],"door_color_assignment":["black","white"],"door_generator_assignment":[0,1],"goal":2,"start":5,"action_noise":0.15,"location_history":"[5,4,2]","action_history":"[0,1]","door_history":"[0,1]","location_rts":"[1247,1722]","trial_type":"two-door-navigation","trial_index":21,"time_elapsed":481049,"internal_node_id":"0.0-2.0-19.0"},{"group":"hexagon_tri","room_assignment":["blue","purple","green","yellow","red","grey"],"door_color_assignment":["black","white"],"door_generator_assignment":[0,1],"goal":4,"start":2,"action_noise":0.15,"location_history":"[2,3,2,3,4]","action_history":"[1,0,1,1]","door_history":"[1,0,1,1]","location_rts":"[13008,998,619,326]","trial_type":"two-door-navigation","trial_index":22,"time_elapsed":503575,"internal_node_id":"0.0-2.0-20.0"},{"group":"hexagon_tri","room_assignment":["blue","purple","green","yellow","red","grey"],"door_color_assignment":["black","white"],"door_generator_assignment":[0,1],"goal":1,"start":4,"action_noise":0.15,"location_history":"[4,2,1]","action_history":"[1,1]","door_history":"[1,1]","location_rts":"[87563,453]","trial_type":"two-door-navigation","trial_index":23,"time_elapsed":597132,"internal_node_id":"0.0-2.0-21.0"},{"group":"hexagon_tri","room_assignment":["blue","purple","green","yellow","red","grey"],"door_color_assignment":["black","white"],"door_generator_assignment":[0,1],"goal":3,"start":1,"action_noise":0.15,"location_history":"[1,5,0,1,3]","action_history":"[1,0,1,0]","door_history":"[1,0,1,0]","location_rts":"[33,474,348,427]","trial_type":"two-door-navigation","trial_index":24,"time_elapsed":605991,"internal_node_id":"0.0-2.0-22.0"},{"group":"hexagon_tri","room_assignment":["blue","purple","green","yellow","red","grey"],"door_color_assignment":["black","white"],"door_generator_assignment":[0,1],"goal":2,"start":3,"action_noise":0.15,"location_history":"[3,2]","action_history":"[0]","door_history":"[0]","location_rts":"[1255]","trial_type":"two-door-navigation","trial_index":25,"time_elapsed":611768,"internal_node_id":"0.0-2.0-23.0"},{"group":"hexagon_tri","room_assignment":["blue","purple","green","yellow","red","grey"],"door_color_assignment":["black","white"],"door_generator_assignment":[0,1],"goal":0,"start":2,"action_noise":0.15,"location_history":"[2,3,4,0]","action_history":"[1,1,0]","door_history":"[1,1,0]","location_rts":"[887,369,442]","trial_type":"two-door-navigation","trial_index":26,"time_elapsed":620014,"internal_node_id":"0.0-2.0-24.0"},{"group":"hexagon_tri","room_assignment":["blue","purple","green","yellow","red","grey"],"door_color_assignment":["black","white"],"door_generator_assignment":[0,1],"goal":5,"start":0,"action_noise":0.15,"location_history":"[0,1,5]","action_history":"[1,1]","door_history":"[1,1]","location_rts":"[1431,452]","trial_type":"two-door-navigation","trial_index":27,"time_elapsed":627439,"internal_node_id":"0.0-2.0-25.0"},{"group":"hexagon_tri","room_assignment":["blue","purple","green","yellow","red","grey"],"door_color_assignment":["black","white"],"door_generator_assignment":[0,1],"goal":2,"start":5,"action_noise":0.15,"location_history":"[5,0,5,4,0,1,5,4,2]","action_history":"[0,0,0,1,1,1,0,1]","door_history":"[0,0,0,1,1,1,0,1]","location_rts":"[1951,717,859,454,645,450,8,402]","trial_type":"two-door-navigation","trial_index":28,"time_elapsed":644568,"internal_node_id":"0.0-2.0-26.0"},{"group":"hexagon_tri","room_assignment":["blue","purple","green","yellow","red","grey"],"door_color_assignment":["black","white"],"door_generator_assignment":[0,1],"goal":3,"start":2,"action_noise":0.15,"location_history":"[2,3]","action_history":"[0]","door_history":"[0]","location_rts":"[6762]","trial_type":"two-door-navigation","trial_index":29,"time_elapsed":655848,"internal_node_id":"0.0-2.0-27.0"},{"group":"hexagon_tri","room_assignment":["blue","purple","green","yellow","red","grey"],"door_color_assignment":["black","white"],"door_generator_assignment":[0,1],"goal":0,"start":3,"action_noise":0.15,"location_history":"[3,4,2,1,5,4,0]","action_history":"[0,1,1,1,0,0]","door_history":"[0,1,1,1,0,0]","location_rts":"[2848,753,317,393,363,594]","trial_type":"two-door-navigation","trial_index":30,"time_elapsed":670723,"internal_node_id":"0.0-2.0-28.0"},{"group":"hexagon_tri","room_assignment":["blue","purple","green","yellow","red","grey"],"door_color_assignment":["black","white"],"door_generator_assignment":[0,1],"goal":1,"start":0,"action_noise":0.15,"location_history":"[0,1]","action_history":"[1]","door_history":"[1]","location_rts":"[10345]","trial_type":"two-door-navigation","trial_index":31,"time_elapsed":685590,"internal_node_id":"0.0-2.0-29.0"},{"group":"hexagon_tri","room_assignment":["blue","purple","green","yellow","red","grey"],"door_color_assignment":["black","white"],"door_generator_assignment":[0,1],"goal":4,"start":1,"action_noise":0.15,"location_history":"[1,3,4]","action_history":"[0,1]","door_history":"[0,1]","location_rts":"[4333,770]","trial_type":"two-door-navigation","trial_index":32,"time_elapsed":696233,"internal_node_id":"0.0-2.0-30.0"},{"group":"hexagon_tri","room_assignment":["blue","purple","green","yellow","red","grey"],"door_color_assignment":["black","white"],"door_generator_assignment":[0,1],"goal":5,"start":4,"action_noise":0.15,"location_history":"[4,0,1,5]","action_history":"[1,1,1]","door_history":"[1,1,1]","location_rts":"[1308,757,477]","trial_type":"two-door-navigation","trial_index":33,"time_elapsed":705330,"internal_node_id":"0.0-2.0-31.0"},{"group":"hexagon_tri","room_assignment":["blue","purple","green","yellow","red","grey"],"door_color_assignment":["black","white"],"door_generator_assignment":[0,1],"goal":0,"start":5,"action_noise":0.15,"location_history":"[5,0]","action_history":"[1]","door_history":"[1]","location_rts":"[1823]","trial_type":"two-door-navigation","trial_index":34,"time_elapsed":711675,"internal_node_id":"0.0-2.0-32.0"},{"group":"hexagon_tri","room_assignment":["blue","purple","green","yellow","red","grey"],"door_color_assignment":["black","white"],"door_generator_assignment":[0,1],"goal":3,"start":0,"action_noise":0.15,"location_history":"[0,1,3]","action_history":"[1,1]","door_history":"[1,1]","location_rts":"[1216,347]","trial_type":"two-door-navigation","trial_index":35,"time_elapsed":718778,"internal_node_id":"0.0-2.0-33.0"},{"group":"hexagon_tri","room_assignment":["blue","purple","green","yellow","red","grey"],"door_color_assignment":["black","white"],"door_generator_assignment":[0,1],"goal":1,"start":3,"action_noise":0.15,"location_history":"[3,4,0,5,0,1]","action_history":"[1,1,0,1,1]","door_history":"[1,1,0,1,1]","location_rts":"[1318,472,807,572,332]","trial_type":"two-door-navigation","trial_index":36,"time_elapsed":730878,"internal_node_id":"0.0-2.0-34.0"},{"group":"hexagon_tri","room_assignment":["blue","purple","green","yellow","red","grey"],"door_color_assignment":["black","white"],"door_generator_assignment":[0,1],"goal":2,"start":1,"action_noise":0.15,"location_history":"[1,5,0,5,4,0,5,4,0,5,4,2]","action_history":"[0,1,0,0,0,0,0,0,0,0,1]","door_history":"[0,1,0,0,0,0,0,0,0,0,1]","location_rts":"[2617,345,484,570,419,442,377,524,559,414,378]","trial_type":"two-door-navigation","trial_index":37,"time_elapsed":752702,"internal_node_id":"0.0-2.0-35.0"},{"group":"hexagon_tri","room_assignment":["blue","purple","green","yellow","red","grey"],"door_color_assignment":["black","white"],"door_generator_assignment":[0,1],"goal":4,"start":2,"action_noise":0.15,"location_history":"[2,3,4]","action_history":"[1,1]","door_history":"[1,1]","location_rts":"[2133,484]","trial_type":"two-door-navigation","trial_index":38,"time_elapsed":760857,"internal_node_id":"0.0-2.0-36.0"},{"group":"hexagon_tri","room_assignment":["blue","purple","green","yellow","red","grey"],"door_color_assignment":["black","white"],"door_generator_assignment":[0,1],"goal":5,"start":4,"action_noise":0.15,"location_history":"[4,2,1,5]","action_history":"[1,1,1]","door_history":"[1,1,1]","location_rts":"[1799,110,638]","trial_type":"two-door-navigation","trial_index":39,"time_elapsed":769963,"internal_node_id":"0.0-2.0-37.0"},{"group":"hexagon_tri","room_assignment":["blue","purple","green","yellow","red","grey"],"door_color_assignment":["black","white"],"door_generator_assignment":[0,1],"goal":1,"start":5,"action_noise":0.15,"location_history":"[5,4,0,1]","action_history":"[1,1,1]","door_history":"[1,1,1]","location_rts":"[1236,320,397]","trial_type":"two-door-navigation","trial_index":40,"time_elapsed":778474,"internal_node_id":"0.0-2.0-38.0"},{"group":"hexagon_tri","room_assignment":["blue","purple","green","yellow","red","grey"],"door_color_assignment":["black","white"],"door_generator_assignment":[0,1],"goal":4,"start":1,"action_noise":0.15,"location_history":"[1,3,4]","action_history":"[0,0]","door_history":"[0,0]","location_rts":"[2005,916]","trial_type":"two-door-navigation","trial_index":41,"time_elapsed":786929,"internal_node_id":"0.0-2.0-39.0"},{"group":"hexagon_tri","room_assignment":["blue","purple","green","yellow","red","grey"],"door_color_assignment":["black","white"],"door_generator_assignment":[0,1],"goal":3,"start":4,"action_noise":0.15,"location_history":"[4,2,3]","action_history":"[1,1]","door_history":"[1,1]","location_rts":"[2769,400]","trial_type":"two-door-navigation","trial_index":42,"time_elapsed":795640,"internal_node_id":"0.0-2.0-40.0"},{"group":"hexagon_tri","room_assignment":["blue","purple","green","yellow","red","grey"],"door_color_assignment":["black","white"],"door_generator_assignment":[0,1],"goal":2,"start":3,"action_noise":0.15,"location_history":"[3,2]","action_history":"[1]","door_history":"[1]","location_rts":"[12070]","trial_type":"two-door-navigation","trial_index":43,"time_elapsed":812234,"internal_node_id":"0.0-2.0-41.0"},{"group":"hexagon_tri","room_assignment":["blue","purple","green","yellow","red","grey"],"door_color_assignment":["black","white"],"door_generator_assignment":[0,1],"goal":0,"start":2,"action_noise":0.15,"location_history":"[2,3,4,2,3,2,1,5,0]","action_history":"[1,1,1,1,1,0,1,1]","door_history":"[1,1,1,1,1,0,1,1]","location_rts":"[2818,326,296,319,307,320,74,388]","trial_type":"two-door-navigation","trial_index":44,"time_elapsed":828733,"internal_node_id":"0.0-2.0-42.0"},{"group":"hexagon_tri","room_assignment":["blue","purple","green","yellow","red","grey"],"door_color_assignment":["black","white"],"door_generator_assignment":[0,1],"goal":5,"start":0,"action_noise":0.15,"location_history":"[0,1,5]","action_history":"[1,1]","door_history":"[1,1]","location_rts":"[4888,191]","trial_type":"two-door-navigation","trial_index":45,"time_elapsed":839349,"internal_node_id":"0.0-2.0-43.0"},{"group":"hexagon_tri","room_assignment":["blue","purple","green","yellow","red","grey"],"door_color_assignment":["black","white"],"door_generator_assignment":[0,1],"goal":0,"start":5,"action_noise":0.15,"location_history":"[5,0]","action_history":"[1]","door_history":"[1]","location_rts":"[8081]","trial_type":"two-door-navigation","trial_index":46,"time_elapsed":851949,"internal_node_id":"0.0-2.0-44.0"},{"group":"hexagon_tri","room_assignment":["blue","purple","green","yellow","red","grey"],"door_color_assignment":["black","white"],"door_generator_assignment":[0,1],"goal":2,"start":0,"action_noise":0.15,"location_history":"[0,1,3,4,2]","action_history":"[1,0,1,1]","door_history":"[1,0,1,1]","location_rts":"[9258,6,545,376]","trial_type":"two-door-navigation","trial_index":47,"time_elapsed":869714,"internal_node_id":"0.0-2.0-45.0"},{"group":"hexagon_tri","room_assignment":["blue","purple","green","yellow","red","grey"],"door_color_assignment":["black","white"],"door_generator_assignment":[0,1],"goal":4,"start":2,"action_noise":0.15,"location_history":"[2,3,4]","action_history":"[1,1]","door_history":"[1,1]","location_rts":"[2012,321]","trial_type":"two-door-navigation","trial_index":48,"time_elapsed":877583,"internal_node_id":"0.0-2.0-46.0"},{"group":"hexagon_tri","room_assignment":["blue","purple","green","yellow","red","grey"],"door_color_assignment":["black","white"],"door_generator_assignment":[0,1],"goal":1,"start":4,"action_noise":0.15,"location_history":"[4,2,3,4,2,1]","action_history":"[1,1,1,1,0]","door_history":"[1,1,1,1,0]","location_rts":"[950,295,298,395,431]","trial_type":"two-door-navigation","trial_index":49,"time_elapsed":888544,"internal_node_id":"0.0-2.0-47.0"},{"group":"hexagon_tri","room_assignment":["blue","purple","green","yellow","red","grey"],"door_color_assignment":["black","white"],"door_generator_assignment":[0,1],"goal":5,"start":1,"action_noise":0.15,"location_history":"[1,5]","action_history":"[1]","door_history":"[1]","location_rts":"[4636]","trial_type":"two-door-navigation","trial_index":50,"time_elapsed":897704,"internal_node_id":"0.0-2.0-48.0"},{"group":"hexagon_tri","room_assignment":["blue","purple","green","yellow","red","grey"],"door_color_assignment":["black","white"],"door_generator_assignment":[0,1],"goal":3,"start":5,"action_noise":0.15,"location_history":"[5,0,1,5,4,0,5,4,2,1,5,0,5,0,1,5,4,2,3]","action_history":"[1,1,1,1,0,0,0,1,1,1,1,1,1,1,0,0,1,1]","door_history":"[1,1,1,1,0,0,0,1,1,1,1,1,1,1,0,0,1,1]","location_rts":"[2079,399,350,455,559,645,868,487,766,474,420,346,405,362,680,698,627,578]","trial_type":"two-door-navigation","trial_index":51,"time_elapsed":930734,"internal_node_id":"0.0-2.0-49.0"},{"view_history":"[{\"page_index\":0,\"viewing_time\":20022}]","rt":20022,"trial_type":"instructions","trial_index":52,"time_elapsed":951757,"internal_node_id":"0.0-3.0"},{"view_history":"[{\"page_index\":0,\"viewing_time\":1069},{\"page_index\":1,\"viewing_time\":31530}]","rt":32599,"trial_type":"instructions","trial_index":53,"time_elapsed":985356,"internal_node_id":"0.0-4.0"},{"group":"hexagon_tri","fractal_assignment":["../images/ylw_slt.png","../images/cyn_red.png","../images/pnk_blu.png","../images/gry_blk.png","../images/org_blu.png","../images/blu_wht.png"],"mutagen_generator_assignment":[0,1],"goal":3,"start":5,"action_noise":0.15,"location_history":"[5,4,2,1,5,0,1,3]","action_history":"[0,1,1,1,0,1,0]","mutagen_history":"[0,1,1,1,0,1,0]","location_rts":"[1171,633,498,336,557,114,762]","trial_type":"fractal-mutation","trial_index":54,"time_elapsed":1000116,"internal_node_id":"0.0-5.0-0.0"},{"group":"hexagon_tri","fractal_assignment":["../images/ylw_slt.png","../images/cyn_red.png","../images/pnk_blu.png","../images/gry_blk.png","../images/org_blu.png","../images/blu_wht.png"],"mutagen_generator_assignment":[0,1],"goal":1,"start":3,"action_noise":0.15,"location_history":"[3,2,3,2,3,4,2,3,4,2,1]","action_history":"[0,1,0,1,1,1,1,1,1,0]","mutagen_history":"[0,1,0,1,1,1,1,1,1,0]","location_rts":"[1223,144,1154,301,233,492,479,388,707,431]","trial_type":"fractal-mutation","trial_index":55,"time_elapsed":1019411,"internal_node_id":"0.0-5.0-1.0"},{"group":"hexagon_tri","fractal_assignment":["../images/ylw_slt.png","../images/cyn_red.png","../images/pnk_blu.png","../images/gry_blk.png","../images/org_blu.png","../images/blu_wht.png"],"mutagen_generator_assignment":[0,1],"goal":0,"start":1,"action_noise":0.15,"location_history":"[1,3,2,3,4,2,1,3,2,3,4,0]","action_history":"[0,0,1,1,0,1,0,0,1,1,0]","mutagen_history":"[0,0,1,1,0,1,0,0,1,1,0]","location_rts":"[24860,1363,238,109,23,59,491,361,373,430,507]","trial_type":"fractal-mutation","trial_index":56,"time_elapsed":1062958,"internal_node_id":"0.0-5.0-2.0"},{"group":"hexagon_tri","fractal_assignment":["../images/ylw_slt.png","../images/cyn_red.png","../images/pnk_blu.png","../images/gry_blk.png","../images/org_blu.png","../images/blu_wht.png"],"mutagen_generator_assignment":[0,1],"goal":3,"start":0,"action_noise":0.15,"location_history":"[0,5,0,5,0,1,3]","action_history":"[0,1,0,1,1,0]","mutagen_history":"[0,1,0,1,1,0]","location_rts":"[889,61,216,33,411,566]","trial_type":"fractal-mutation","trial_index":57,"time_elapsed":1074777,"internal_node_id":"0.0-5.0-3.0"},{"group":"hexagon_tri","fractal_assignment":["../images/ylw_slt.png","../images/cyn_red.png","../images/pnk_blu.png","../images/gry_blk.png","../images/org_blu.png","../images/blu_wht.png"],"mutagen_generator_assignment":[0,1],"goal":4,"start":3,"action_noise":0.15,"location_history":"[3,2,3,2,1,5,4]","action_history":"[0,0,0,0,0,0]","mutagen_history":"[0,0,0,0,0,0]","location_rts":"[544,147,74,81,498,292]","trial_type":"fractal-mutation","trial_index":58,"time_elapsed":1086035,"internal_node_id":"0.0-5.0-4.0"},{"group":"hexagon_tri","fractal_assignment":["../images/ylw_slt.png","../images/cyn_red.png","../images/pnk_blu.png","../images/gry_blk.png","../images/org_blu.png","../images/blu_wht.png"],"mutagen_generator_assignment":[0,1],"goal":2,"start":4,"action_noise":0.15,"location_history":"[4,0,5,0,5,4,0,1,3,4,2]","action_history":"[0,0,1,1,0,0,0,1,1,1]","mutagen_history":"[0,0,1,1,0,0,0,1,1,1]","location_rts":"[322,453,708,173,316,975,61,370,435,538]","trial_type":"fractal-mutation","trial_index":59,"time_elapsed":1104096,"internal_node_id":"0.0-5.0-5.0"},{"group":"hexagon_tri","fractal_assignment":["../images/ylw_slt.png","../images/cyn_red.png","../images/pnk_blu.png","../images/gry_blk.png","../images/org_blu.png","../images/blu_wht.png"],"mutagen_generator_assignment":[0,1],"goal":1,"start":2,"action_noise":0.15,"location_history":"[2,1]","action_history":"[0]","mutagen_history":"[0]","location_rts":"[3615]","trial_type":"fractal-mutation","trial_index":60,"time_elapsed":1112233,"internal_node_id":"0.0-5.0-6.0"},{"group":"hexagon_tri","fractal_assignment":["../images/ylw_slt.png","../images/cyn_red.png","../images/pnk_blu.png","../images/gry_blk.png","../images/org_blu.png","../images/blu_wht.png"],"mutagen_generator_assignment":[0,1],"goal":5,"start":1,"action_noise":0.15,"location_history":"[1,3,2,1,3,4,2,1,3,4,0,1,5]","action_history":"[0,0,0,0,1,1,1,1,1,0,1,1]","mutagen_history":"[0,0,0,0,1,1,1,1,1,0,1,1]","location_rts":"[1244,815,738,556,1483,402,556,1502,801,1334,498,654]","trial_type":"fractal-mutation","trial_index":61,"time_elapsed":1138606,"internal_node_id":"0.0-5.0-7.0"},{"group":"hexagon_tri","fractal_assignment":["../images/ylw_slt.png","../images/cyn_red.png","../images/pnk_blu.png","../images/gry_blk.png","../images/org_blu.png","../images/blu_wht.png"],"mutagen_generator_assignment":[0,1],"goal":4,"start":5,"action_noise":0.15,"location_history":"[5,4]","action_history":"[0]","mutagen_history":"[0]","location_rts":"[2121]","trial_type":"fractal-mutation","trial_index":62,"time_elapsed":1145258,"internal_node_id":"0.0-5.0-8.0"},{"group":"hexagon_tri","fractal_assignment":["../images/ylw_slt.png","../images/cyn_red.png","../images/pnk_blu.png","../images/gry_blk.png","../images/org_blu.png","../images/blu_wht.png"],"mutagen_generator_assignment":[0,1],"goal":2,"start":4,"action_noise":0.15,"location_history":"[4,0,1,5,0,5,4,0,1,3,2]","action_history":"[0,1,1,1,1,0,0,1,0,1]","mutagen_history":"[0,1,1,1,1,0,0,1,0,1]","location_rts":"[1017,270,196,724,627,589,712,464,809,347]","trial_type":"fractal-mutation","trial_index":63,"time_elapsed":1164733,"internal_node_id":"0.0-5.0-9.0"},{"group":"hexagon_tri","fractal_assignment":["../images/ylw_slt.png","../images/cyn_red.png","../images/pnk_blu.png","../images/gry_blk.png","../images/org_blu.png","../images/blu_wht.png"],"mutagen_generator_assignment":[0,1],"goal":0,"start":2,"action_noise":0.15,"location_history":"[2,1,3,2,3,2,1,3,4,0]","action_history":"[0,0,0,1,0,0,0,1,0]","mutagen_history":"[0,0,0,1,0,0,0,1,0]","location_rts":"[389,693,489,499,769,552,429,417,539]","trial_type":"fractal-mutation","trial_index":64,"time_elapsed":1182186,"internal_node_id":"0.0-5.0-10.0"},{"group":"hexagon_tri","fractal_assignment":["../images/ylw_slt.png","../images/cyn_red.png","../images/pnk_blu.png","../images/gry_blk.png","../images/org_blu.png","../images/blu_wht.png"],"mutagen_generator_assignment":[0,1],"goal":1,"start":0,"action_noise":0.15,"location_history":"[0,5,4,0,5,0,1]","action_history":"[0,0,0,0,0,1]","mutagen_history":"[0,0,0,0,0,1]","location_rts":"[103,1132,2558,3391,1131,336]","trial_type":"fractal-mutation","trial_index":65,"time_elapsed":1200469,"internal_node_id":"0.0-5.0-11.0"},{"group":"hexagon_tri","fractal_assignment":["../images/ylw_slt.png","../images/cyn_red.png","../images/pnk_blu.png","../images/gry_blk.png","../images/org_blu.png","../images/blu_wht.png"],"mutagen_generator_assignment":[0,1],"goal":3,"start":1,"action_noise":0.15,"location_history":"[1,5,0,5,4,2,3]","action_history":"[1,0,0,0,1,1]","mutagen_history":"[1,0,0,0,1,1]","location_rts":"[1379,948,426,627,277,596]","trial_type":"fractal-mutation","trial_index":66,"time_elapsed":1214349,"internal_node_id":"0.0-5.0-12.0"},{"group":"hexagon_tri","fractal_assignment":["../images/ylw_slt.png","../images/cyn_red.png","../images/pnk_blu.png","../images/gry_blk.png","../images/org_blu.png","../images/blu_wht.png"],"mutagen_generator_assignment":[0,1],"goal":5,"start":3,"action_noise":0.15,"location_history":"[3,4,2,3,4,0,5]","action_history":"[1,1,1,1,0,0]","mutagen_history":"[1,1,1,1,0,0]","location_rts":"[1365,281,328,400,371,932]","trial_type":"fractal-mutation","trial_index":67,"time_elapsed":1227668,"internal_node_id":"0.0-5.0-13.0"},{"group":"hexagon_tri","fractal_assignment":["../images/ylw_slt.png","../images/cyn_red.png","../images/pnk_blu.png","../images/gry_blk.png","../images/org_blu.png","../images/blu_wht.png"],"mutagen_generator_assignment":[0,1],"goal":4,"start":5,"action_noise":0.15,"location_history":"[5,4]","action_history":"[0]","mutagen_history":"[0]","location_rts":"[416]","trial_type":"fractal-mutation","trial_index":68,"time_elapsed":1232601,"internal_node_id":"0.0-5.0-14.0"},{"group":"hexagon_tri","fractal_assignment":["../images/ylw_slt.png","../images/cyn_red.png","../images/pnk_blu.png","../images/gry_blk.png","../images/org_blu.png","../images/blu_wht.png"],"mutagen_generator_assignment":[0,1],"goal":0,"start":4,"action_noise":0.15,"location_history":"[4,2,3,4,2,3,2,3,4,0]","action_history":"[0,1,1,1,1,0,1,1,0]","mutagen_history":"[0,1,1,1,1,0,1,1,0]","location_rts":"[496,86,176,513,622,11,37,375,364]","trial_type":"fractal-mutation","trial_index":69,"time_elapsed":1247986,"internal_node_id":"0.0-5.0-15.0"},{"group":"hexagon_tri","fractal_assignment":["../images/ylw_slt.png","../images/cyn_red.png","../images/pnk_blu.png","../images/gry_blk.png","../images/org_blu.png","../images/blu_wht.png"],"mutagen_generator_assignment":[0,1],"goal":3,"start":0,"action_noise":0.15,"location_history":"[0,5,0,1,5,0,5,0,5,4,2,3]","action_history":"[0,1,1,1,1,0,1,0,0,1,1]","mutagen_history":"[0,1,1,1,1,0,1,0,0,1,1]","location_rts":"[46,284,271,395,750,708,421,337,366,381,436]","trial_type":"fractal-mutation","trial_index":70,"time_elapsed":1267123,"internal_node_id":"0.0-5.0-16.0"},{"group":"hexagon_tri","fractal_assignment":["../images/ylw_slt.png","../images/cyn_red.png","../images/pnk_blu.png","../images/gry_blk.png","../images/org_blu.png","../images/blu_wht.png"],"mutagen_generator_assignment":[0,1],"goal":1,"start":3,"action_noise":0.15,"location_history":"[3,4,2,1]","action_history":"[1,1,0]","mutagen_history":"[1,1,0]","location_rts":"[679,661,451]","trial_type":"fractal-mutation","trial_index":71,"time_elapsed":1275481,"internal_node_id":"0.0-5.0-17.0"},{"group":"hexagon_tri","fractal_assignment":["../images/ylw_slt.png","../images/cyn_red.png","../images/pnk_blu.png","../images/gry_blk.png","../images/org_blu.png","../images/blu_wht.png"],"mutagen_generator_assignment":[0,1],"goal":5,"start":1,"action_noise":0.15,"location_history":"[1,5]","action_history":"[1]","mutagen_history":"[1]","location_rts":"[1020]","trial_type":"fractal-mutation","trial_index":72,"time_elapsed":1281040,"internal_node_id":"0.0-5.0-18.0"},{"group":"hexagon_tri","fractal_assignment":["../images/ylw_slt.png","../images/cyn_red.png","../images/pnk_blu.png","../images/gry_blk.png","../images/org_blu.png","../images/blu_wht.png"],"mutagen_generator_assignment":[0,1],"goal":2,"start":5,"action_noise":0.15,"location_history":"[5,0,1,5,4,2]","action_history":"[1,0,1,1,1]","mutagen_history":"[1,0,1,1,1]","location_rts":"[614,581,109,475,358]","trial_type":"fractal-mutation","trial_index":73,"time_elapsed":1291797,"internal_node_id":"0.0-5.0-19.0"},{"group":"hexagon_tri","fractal_assignment":["../images/ylw_slt.png","../images/cyn_red.png","../images/pnk_blu.png","../images/gry_blk.png","../images/org_blu.png","../images/blu_wht.png"],"mutagen_generator_assignment":[0,1],"goal":4,"start":2,"action_noise":0.15,"location_history":"[2,1,5,0,5,4]","action_history":"[0,0,1,0,0]","mutagen_history":"[0,0,1,0,0]","location_rts":"[604,689,1695,955,492]","trial_type":"fractal-mutation","trial_index":74,"time_elapsed":1304840,"internal_node_id":"0.0-5.0-20.0"},{"group":"hexagon_tri","fractal_assignment":["../images/ylw_slt.png","../images/cyn_red.png","../images/pnk_blu.png","../images/gry_blk.png","../images/org_blu.png","../images/blu_wht.png"],"mutagen_generator_assignment":[0,1],"goal":1,"start":4,"action_noise":0.15,"location_history":"[4,0,5,4,2,3,4,0,5,0,1]","action_history":"[1,1,0,0,1,1,0,1,1,1]","mutagen_history":"[1,1,0,0,1,1,0,1,1,1]","location_rts":"[1386,471,364,569,495,1039,869,454,470,659]","trial_type":"fractal-mutation","trial_index":75,"time_elapsed":1325352,"internal_node_id":"0.0-5.0-21.0"},{"group":"hexagon_tri","fractal_assignment":["../images/ylw_slt.png","../images/cyn_red.png","../images/pnk_blu.png","../images/gry_blk.png","../images/org_blu.png","../images/blu_wht.png"],"mutagen_generator_assignment":[0,1],"goal":3,"start":1,"action_noise":0.15,"location_history":"[1,5,4,2,3]","action_history":"[1,0,1,1]","mutagen_history":"[1,0,1,1]","location_rts":"[839,593,394,525]","trial_type":"fractal-mutation","trial_index":76,"time_elapsed":1335303,"internal_node_id":"0.0-5.0-22.0"},{"group":"hexagon_tri","fractal_assignment":["../images/ylw_slt.png","../images/cyn_red.png","../images/pnk_blu.png","../images/gry_blk.png","../images/org_blu.png","../images/blu_wht.png"],"mutagen_generator_assignment":[0,1],"goal":2,"start":3,"action_noise":0.15,"location_history":"[3,4,2]","action_history":"[1,1]","mutagen_history":"[1,1]","location_rts":"[867,1963]","trial_type":"fractal-mutation","trial_index":77,"time_elapsed":1343689,"internal_node_id":"0.0-5.0-23.0"},{"group":"hexagon_tri","fractal_assignment":["../images/ylw_slt.png","../images/cyn_red.png","../images/pnk_blu.png","../images/gry_blk.png","../images/org_blu.png","../images/blu_wht.png"],"mutagen_generator_assignment":[0,1],"goal":0,"start":2,"action_noise":0.15,"location_history":"[2,3,2,3,4,0]","action_history":"[1,1,1,1,0]","mutagen_history":"[1,1,1,1,0]","location_rts":"[871,1167,1965,1334,276]","trial_type":"fractal-mutation","trial_index":78,"time_elapsed":1357922,"internal_node_id":"0.0-5.0-24.0"},{"group":"hexagon_tri","fractal_assignment":["../images/ylw_slt.png","../images/cyn_red.png","../images/pnk_blu.png","../images/gry_blk.png","../images/org_blu.png","../images/blu_wht.png"],"mutagen_generator_assignment":[0,1],"goal":5,"start":0,"action_noise":0.15,"location_history":"[0,1,5]","action_history":"[1,1]","mutagen_history":"[1,1]","location_rts":"[856,1689]","trial_type":"fractal-mutation","trial_index":79,"time_elapsed":1366017,"internal_node_id":"0.0-5.0-25.0"},{"group":"hexagon_tri","fractal_assignment":["../images/ylw_slt.png","../images/cyn_red.png","../images/pnk_blu.png","../images/gry_blk.png","../images/org_blu.png","../images/blu_wht.png"],"mutagen_generator_assignment":[0,1],"goal":2,"start":5,"action_noise":0.15,"location_history":"[5,0,5,4,2]","action_history":"[1,1,1,1]","mutagen_history":"[1,1,1,1]","location_rts":"[300,2454,1455,1562]","trial_type":"fractal-mutation","trial_index":80,"time_elapsed":1379386,"internal_node_id":"0.0-5.0-26.0"},{"group":"hexagon_tri","fractal_assignment":["../images/ylw_slt.png","../images/cyn_red.png","../images/pnk_blu.png","../images/gry_blk.png","../images/org_blu.png","../images/blu_wht.png"],"mutagen_generator_assignment":[0,1],"goal":3,"start":2,"action_noise":0.15,"location_history":"[2,3]","action_history":"[1]","mutagen_history":"[1]","location_rts":"[2767]","trial_type":"fractal-mutation","trial_index":81,"time_elapsed":1386680,"internal_node_id":"0.0-5.0-27.0"},{"group":"hexagon_tri","fractal_assignment":["../images/ylw_slt.png","../images/cyn_red.png","../images/pnk_blu.png","../images/gry_blk.png","../images/org_blu.png","../images/blu_wht.png"],"mutagen_generator_assignment":[0,1],"goal":0,"start":3,"action_noise":0.15,"location_history":"[3,4,2,3,4,2,1,5,0]","action_history":"[1,1,0,1,1,0,1,1]","mutagen_history":"[1,1,0,1,1,0,1,1]","location_rts":"[582,857,659,6379,413,307,400,112]","trial_type":"fractal-mutation","trial_index":82,"time_elapsed":1408078,"internal_node_id":"0.0-5.0-28.0"},{"group":"hexagon_tri","fractal_assignment":["../images/ylw_slt.png","../images/cyn_red.png","../images/pnk_blu.png","../images/gry_blk.png","../images/org_blu.png","../images/blu_wht.png"],"mutagen_generator_assignment":[0,1],"goal":1,"start":0,"action_noise":0.15,"location_history":"[0,1]","action_history":"[0]","mutagen_history":"[0]","location_rts":"[1006]","trial_type":"fractal-mutation","trial_index":83,"time_elapsed":1413609,"internal_node_id":"0.0-5.0-29.0"},{"group":"hexagon_tri","fractal_assignment":["../images/ylw_slt.png","../images/cyn_red.png","../images/pnk_blu.png","../images/gry_blk.png","../images/org_blu.png","../images/blu_wht.png"],"mutagen_generator_assignment":[0,1],"goal":4,"start":1,"action_noise":0.15,"location_history":"[1,3,4]","action_history":"[0,1]","mutagen_history":"[0,1]","location_rts":"[826,609]","trial_type":"fractal-mutation","trial_index":84,"time_elapsed":1420588,"internal_node_id":"0.0-5.0-30.0"},{"group":"hexagon_tri","fractal_assignment":["../images/ylw_slt.png","../images/cyn_red.png","../images/pnk_blu.png","../images/gry_blk.png","../images/org_blu.png","../images/blu_wht.png"],"mutagen_generator_assignment":[0,1],"goal":5,"start":4,"action_noise":0.15,"location_history":"[4,0,1,3,2,3,2,3,4,0,5]","action_history":"[0,1,1,0,1,1,1,1,0,1]","mutagen_history":"[0,1,1,0,1,1,1,1,0,1]","location_rts":"[3284,628,396,396,265,343,333,440,716,292]","trial_type":"fractal-mutation","trial_index":85,"time_elapsed":1441397,"internal_node_id":"0.0-5.0-31.0"},{"group":"hexagon_tri","fractal_assignment":["../images/ylw_slt.png","../images/cyn_red.png","../images/pnk_blu.png","../images/gry_blk.png","../images/org_blu.png","../images/blu_wht.png"],"mutagen_generator_assignment":[0,1],"goal":0,"start":5,"action_noise":0.15,"location_history":"[5,4,2,1,5,0]","action_history":"[0,1,1,1,1]","mutagen_history":"[0,1,1,1,1]","location_rts":"[486,452,185,259,71]","trial_type":"fractal-mutation","trial_index":86,"time_elapsed":1451466,"internal_node_id":"0.0-5.0-32.0"},{"group":"hexagon_tri","fractal_assignment":["../images/ylw_slt.png","../images/cyn_red.png","../images/pnk_blu.png","../images/gry_blk.png","../images/org_blu.png","../images/blu_wht.png"],"mutagen_generator_assignment":[0,1],"goal":3,"start":0,"action_noise":0.15,"location_history":"[0,5,0,5,0,1,3]","action_history":"[0,1,0,1,1,0]","mutagen_history":"[0,1,0,1,1,0]","location_rts":"[665,89,751,405,424,624]","trial_type":"fractal-mutation","trial_index":87,"time_elapsed":1464073,"internal_node_id":"0.0-5.0-33.0"},{"group":"hexagon_tri","fractal_assignment":["../images/ylw_slt.png","../images/cyn_red.png","../images/pnk_blu.png","../images/gry_blk.png","../images/org_blu.png","../images/blu_wht.png"],"mutagen_generator_assignment":[0,1],"goal":1,"start":3,"action_noise":0.15,"location_history":"[3,2,3,4,2,1]","action_history":"[0,1,1,1,0]","mutagen_history":"[0,1,1,1,0]","location_rts":"[985,175,239,403,318]","trial_type":"fractal-mutation","trial_index":88,"time_elapsed":1474800,"internal_node_id":"0.0-5.0-34.0"},{"group":"hexagon_tri","fractal_assignment":["../images/ylw_slt.png","../images/cyn_red.png","../images/pnk_blu.png","../images/gry_blk.png","../images/org_blu.png","../images/blu_wht.png"],"mutagen_generator_assignment":[0,1],"goal":2,"start":1,"action_noise":0.15,"location_history":"[1,5,4,2]","action_history":"[1,0,0]","mutagen_history":"[1,0,0]","location_rts":"[317,201,381]","trial_type":"fractal-mutation","trial_index":89,"time_elapsed":1482275,"internal_node_id":"0.0-5.0-35.0"},{"group":"hexagon_tri","fractal_assignment":["../images/ylw_slt.png","../images/cyn_red.png","../images/pnk_blu.png","../images/gry_blk.png","../images/org_blu.png","../images/blu_wht.png"],"mutagen_generator_assignment":[0,1],"goal":4,"start":2,"action_noise":0.15,"location_history":"[2,3,2,1,5,4]","action_history":"[1,0,1,1,0]","mutagen_history":"[1,0,1,1,0]","location_rts":"[291,158,17,30,41]","trial_type":"fractal-mutation","trial_index":90,"time_elapsed":1491434,"internal_node_id":"0.0-5.0-36.0"},{"group":"hexagon_tri","fractal_assignment":["../images/ylw_slt.png","../images/cyn_red.png","../images/pnk_blu.png","../images/gry_blk.png","../images/org_blu.png","../images/blu_wht.png"],"mutagen_generator_assignment":[0,1],"goal":5,"start":4,"action_noise":0.15,"location_history":"[4,0,5]","action_history":"[1,1]","mutagen_history":"[1,1]","location_rts":"[53,272]","trial_type":"fractal-mutation","trial_index":91,"time_elapsed":1497315,"internal_node_id":"0.0-5.0-37.0"},{"group":"hexagon_tri","fractal_assignment":["../images/ylw_slt.png","../images/cyn_red.png","../images/pnk_blu.png","../images/gry_blk.png","../images/org_blu.png","../images/blu_wht.png"],"mutagen_generator_assignment":[0,1],"goal":1,"start":5,"action_noise":0.15,"location_history":"[5,0,1]","action_history":"[1,1]","mutagen_history":"[1,1]","location_rts":"[629,4920]","trial_type":"fractal-mutation","trial_index":92,"time_elapsed":1508420,"internal_node_id":"0.0-5.0-38.0"},{"group":"hexagon_tri","fractal_assignment":["../images/ylw_slt.png","../images/cyn_red.png","../images/pnk_blu.png","../images/gry_blk.png","../images/org_blu.png","../images/blu_wht.png"],"mutagen_generator_assignment":[0,1],"goal":4,"start":1,"action_noise":0.15,"location_history":"[1,3,2,3,4]","action_history":"[1,0,1,1]","mutagen_history":"[1,0,1,1]","location_rts":"[433,380,373,395]","trial_type":"fractal-mutation","trial_index":93,"time_elapsed":1517616,"internal_node_id":"0.0-5.0-39.0"},{"group":"hexagon_tri","fractal_assignment":["../images/ylw_slt.png","../images/cyn_red.png","../images/pnk_blu.png","../images/gry_blk.png","../images/org_blu.png","../images/blu_wht.png"],"mutagen_generator_assignment":[0,1],"goal":3,"start":4,"action_noise":0.15,"location_history":"[4,2,1,5,4,2,1,5,0,1,3]","action_history":"[1,0,1,0,1,0,1,1,1,0]","mutagen_history":"[1,0,1,0,1,0,1,1,1,0]","location_rts":"[439,195,26,809,41,596,457,196,174,214]","trial_type":"fractal-mutation","trial_index":94,"time_elapsed":1534483,"internal_node_id":"0.0-5.0-40.0"},{"group":"hexagon_tri","fractal_assignment":["../images/ylw_slt.png","../images/cyn_red.png","../images/pnk_blu.png","../images/gry_blk.png","../images/org_blu.png","../images/blu_wht.png"],"mutagen_generator_assignment":[0,1],"goal":2,"start":3,"action_noise":0.15,"location_history":"[3,2]","action_history":"[0]","mutagen_history":"[0]","location_rts":"[1159]","trial_type":"fractal-mutation","trial_index":95,"time_elapsed":1540165,"internal_node_id":"0.0-5.0-41.0"},{"group":"hexagon_tri","fractal_assignment":["../images/ylw_slt.png","../images/cyn_red.png","../images/pnk_blu.png","../images/gry_blk.png","../images/org_blu.png","../images/blu_wht.png"],"mutagen_generator_assignment":[0,1],"goal":0,"start":2,"action_noise":0.15,"location_history":"[2,1,5,0]","action_history":"[0,1,1]","mutagen_history":"[0,1,1]","location_rts":"[539,119,570]","trial_type":"fractal-mutation","trial_index":96,"time_elapsed":1547963,"internal_node_id":"0.0-5.0-42.0"},{"group":"hexagon_tri","fractal_assignment":["../images/ylw_slt.png","../images/cyn_red.png","../images/pnk_blu.png","../images/gry_blk.png","../images/org_blu.png","../images/blu_wht.png"],"mutagen_generator_assignment":[0,1],"goal":5,"start":0,"action_noise":0.15,"location_history":"[0,1,5]","action_history":"[1,1]","mutagen_history":"[1,1]","location_rts":"[21339,131]","trial_type":"fractal-mutation","trial_index":97,"time_elapsed":1574977,"internal_node_id":"0.0-5.0-43.0"},{"group":"hexagon_tri","fractal_assignment":["../images/ylw_slt.png","../images/cyn_red.png","../images/pnk_blu.png","../images/gry_blk.png","../images/org_blu.png","../images/blu_wht.png"],"mutagen_generator_assignment":[0,1],"goal":0,"start":5,"action_noise":0.15,"location_history":"[5,4,2,3,4,2,3,4,0]","action_history":"[0,1,1,1,1,0,1,1]","mutagen_history":"[0,1,1,1,1,0,1,1]","location_rts":"[2493,23,183,17,474,220,40,250]","trial_type":"fractal-mutation","trial_index":98,"time_elapsed":1590368,"internal_node_id":"0.0-5.0-44.0"},{"group":"hexagon_tri","fractal_assignment":["../images/ylw_slt.png","../images/cyn_red.png","../images/pnk_blu.png","../images/gry_blk.png","../images/org_blu.png","../images/blu_wht.png"],"mutagen_generator_assignment":[0,1],"goal":2,"start":0,"action_noise":0.15,"location_history":"[0,1,5,0,5,0,1,3,2]","action_history":"[1,1,1,0,1,1,1,1]","mutagen_history":"[1,1,1,0,1,1,1,1]","location_rts":"[587,53,344,239,4,17,52,51]","trial_type":"fractal-mutation","trial_index":99,"time_elapsed":1603396,"internal_node_id":"0.0-5.0-45.0"},{"group":"hexagon_tri","fractal_assignment":["../images/ylw_slt.png","../images/cyn_red.png","../images/pnk_blu.png","../images/gry_blk.png","../images/org_blu.png","../images/blu_wht.png"],"mutagen_generator_assignment":[0,1],"goal":4,"start":2,"action_noise":0.15,"location_history":"[2,1,3,4]","action_history":"[1,0,1]","mutagen_history":"[1,0,1]","location_rts":"[535,379,326]","trial_type":"fractal-mutation","trial_index":100,"time_elapsed":1611220,"internal_node_id":"0.0-5.0-46.0"},{"group":"hexagon_tri","fractal_assignment":["../images/ylw_slt.png","../images/cyn_red.png","../images/pnk_blu.png","../images/gry_blk.png","../images/org_blu.png","../images/blu_wht.png"],"mutagen_generator_assignment":[0,1],"goal":1,"start":4,"action_noise":0.15,"location_history":"[4,2,3,4,2,3,4,2,1]","action_history":"[1,0,1,1,1,1,1,0]","mutagen_history":"[1,0,1,1,1,1,1,0]","location_rts":"[6070,571,688,375,296,303,378,278]","trial_type":"fractal-mutation","trial_index":101,"time_elapsed":1631906,"internal_node_id":"0.0-5.0-47.0"},{"group":"hexagon_tri","fractal_assignment":["../images/ylw_slt.png","../images/cyn_red.png","../images/pnk_blu.png","../images/gry_blk.png","../images/org_blu.png","../images/blu_wht.png"],"mutagen_generator_assignment":[0,1],"goal":5,"start":1,"action_noise":0.15,"location_history":"[1,3,4,0,1,5]","action_history":"[1,1,0,1,1]","mutagen_history":"[1,1,0,1,1]","location_rts":"[3084,51,546,418,140]","trial_type":"fractal-mutation","trial_index":102,"time_elapsed":1644756,"internal_node_id":"0.0-5.0-48.0"},{"group":"hexagon_tri","fractal_assignment":["../images/ylw_slt.png","../images/cyn_red.png","../images/pnk_blu.png","../images/gry_blk.png","../images/org_blu.png","../images/blu_wht.png"],"mutagen_generator_assignment":[0,1],"goal":3,"start":5,"action_noise":0.15,"location_history":"[5,0,5,4,2,3]","action_history":"[1,1,1,0,1]","mutagen_history":"[1,1,1,0,1]","location_rts":"[6152,884,400,271,170]","trial_type":"fractal-mutation","trial_index":103,"time_elapsed":1661260,"internal_node_id":"0.0-5.0-49.0"},{"view_history":"[{\"page_index\":0,\"viewing_time\":21332}]","rt":21332,"trial_type":"instructions","trial_index":104,"time_elapsed":1683593,"internal_node_id":"0.0-6.0"},{"rt":2829,"responses":"{\"Q0\":\"\"}","trial_type":"survey-text","trial_index":105,"time_elapsed":1687426,"internal_node_id":"0.0-7.0"}]