[{"view_history":"[{\"page_index\":0,\"viewing_time\":49930},{\"page_index\":1,\"viewing_time\":16478},{\"page_index\":0,\"viewing_time\":1712},{\"page_index\":1,\"viewing_time\":19807}]","rt":87927,"trial_type":"instructions","trial_index":0,"time_elapsed":87927,"internal_node_id":"0.0-0.0"},{"view_history":"[{\"page_index\":0,\"viewing_time\":1487},{\"page_index\":1,\"viewing_time\":10496}]","rt":11984,"trial_type":"instructions","trial_index":1,"time_elapsed":100912,"internal_node_id":"0.0-1.0"},{"group":"hexagon_tri","room_assignment":["purple","green","yellow","red","grey","blue"],"door_color_assignment":["black","white"],"door_generator_assignment":[1,0],"goal":3,"start":5,"action_noise":0.15,"location_history":"[5,0,1,3]","action_history":"[1,1,0]","door_history":"[0,0,1]","location_rts":"[1466,586,705]","trial_type":"two-door-navigation","trial_index":2,"time_elapsed":110201,"internal_node_id":"0.0-2.0-0.0"},{"group":"hexagon_tri","room_assignment":["purple","green","yellow","red","grey","blue"],"door_color_assignment":["black","white"],"door_generator_assignment":[1,0],"goal":1,"start":3,"action_noise":0.15,"location_history":"[3,4,2,1]","action_history":"[1,1,0]","door_history":"[0,0,1]","location_rts":"[1090,399,834]","trial_type":"two-door-navigation","trial_index":3,"time_elapsed":119052,"internal_node_id":"0.0-2.0-1.0"},{"group":"hexagon_tri","room_assignment":["purple","green","yellow","red","grey","blue"],"door_color_assignment":["black","white"],"door_generator_assignment":[1,0],"goal":0,"start":1,"action_noise":0.15,"location_history":"[1,5,0]","action_history":"[1,1]","door_history":"[0,0]","location_rts":"[518,486]","trial_type":"two-door-navigation","trial_index":4,"time_elapsed":125568,"internal_node_id":"0.0-2.0-2.0"},{"group":"hexagon_tri","room_assignment":["purple","green","yellow","red","grey","blue"],"door_color_assignment":["black","white"],"door_generator_assignment":[1,0],"goal":3,"start":0,"action_noise":0.15,"location_history":"[0,1,5,4,2,3]","action_history":"[1,1,0,0,1]","door_history":"[0,0,1,1,0]","location_rts":"[431,650,768,523,984]","trial_type":"two-door-navigation","trial_index":5,"time_elapsed":137464,"internal_node_id":"0.0-2.0-3.0"},{"group":"hexagon_tri","room_assignment":["purple","green","yellow","red","grey","blue"],"door_color_assignment":["black","white"],"door_generator_assignment":[1,0],"goal":4,"start":3,"action_noise":0.15,"location_history":"[3,4]","action_history":"[1]","door_history":"[0]","location_rts":"[899]","trial_type":"two-door-navigation","trial_index":6,"time_elapsed":142883,"internal_node_id":"0.0-2.0-4.0"},{"group":"hexagon_tri","room_assignment":["purple","green","yellow","red","grey","blue"],"door_color_assignment":["black","white"],"door_generator_assignment":[1,0],"goal":2,"start":4,"action_noise":0.15,"location_history":"[4,2]","action_history":"[1]","door_history":"[0]","location_rts":"[330]","trial_type":"two-door-navigation","trial_index":7,"time_elapsed":147713,"internal_node_id":"0.0-2.0-5.0"},{"group":"hexagon_tri","room_assignment":["purple","green","yellow","red","grey","blue"],"door_color_assignment":["black","white"],"door_generator_assignment":[1,0],"goal":1,"start":2,"action_noise":0.15,"location_history":"[2,3,4,0,5,0,5,0,5,0,5,0,1]","action_history":"[1,1,1,0,0,1,1,0,0,1,1,1]","door_history":"[0,0,0,1,1,0,0,1,1,0,0,0]","location_rts":"[459,601,1066,1008,735,725,679,875,847,688,593,982]","trial_type":"two-door-navigation","trial_index":8,"time_elapsed":172559,"internal_node_id":"0.0-2.0-6.0"},{"group":"hexagon_tri","room_assignment":["purple","green","yellow","red","grey","blue"],"door_color_assignment":["black","white"],"door_generator_assignment":[1,0],"goal":5,"start":1,"action_noise":0.15,"location_history":"[1,5]","action_history":"[1]","door_history":"[0]","location_rts":"[21829]","trial_type":"two-door-navigation","trial_index":9,"time_elapsed":199976,"internal_node_id":"0.0-2.0-7.0"},{"group":"hexagon_tri","room_assignment":["purple","green","yellow","red","grey","blue"],"door_color_assignment":["black","white"],"door_generator_assignment":[1,0],"goal":4,"start":5,"action_noise":0.15,"location_history":"[5,0,1,5,4]","action_history":"[1,1,1,0]","door_history":"[0,0,0,1]","location_rts":"[2475,385,423,664]","trial_type":"two-door-navigation","trial_index":10,"time_elapsed":211987,"internal_node_id":"0.0-2.0-8.0"},{"group":"hexagon_tri","room_assignment":["purple","green","yellow","red","grey","blue"],"door_color_assignment":["black","white"],"door_generator_assignment":[1,0],"goal":2,"start":4,"action_noise":0.15,"location_history":"[4,2]","action_history":"[1]","door_history":"[0]","location_rts":"[2786]","trial_type":"two-door-navigation","trial_index":11,"time_elapsed":220269,"internal_node_id":"0.0-2.0-9.0"},{"group":"hexagon_tri","room_assignment":["purple","green","yellow","red","grey","blue"],"door_color_assignment":["black","white"],"door_generator_assignment":[1,0],"goal":0,"start":2,"action_noise":0.15,"location_history":"[2,3,2,1,3,4,2,1,5,0]","action_history":"[1,0,0,0,1,1,0,1,1]","door_history":"[0,1,1,1,0,0,1,0,0]","location_rts":"[400,1000,663,1232,1048,3237,1727,1519,729]","trial_type":"two-door-navigation","trial_index":12,"time_elapsed":244354,"internal_node_id":"0.0-2.0-10.0"},{"group":"hexagon_tri","room_assignment":["purple","green","yellow","red","grey","blue"],"door_color_assignment":["black","white"],"door_generator_assignment":[1,0],"goal":1,"start":0,"action_noise":0.15,"location_history":"[0,1]","action_history":"[1]","door_history":"[0]","location_rts":"[1339]","trial_type":"two-door-navigation","trial_index":13,"time_elapsed":250214,"internal_node_id":"0.0-2.0-11.0"},{"group":"hexagon_tri","room_assignment":["purple","green","yellow","red","grey","blue"],"door_color_assignment":["black","white"],"door_generator_assignment":[1,0],"goal":3,"start":1,"action_noise":0.15,"location_history":"[1,5,4,2,1,3]","action_history":"[1,0,1,0,1]","door_history":"[0,1,0,1,0]","location_rts":"[1189,1447,992,718,835]","trial_type":"two-door-navigation","trial_index":14,"time_elapsed":263904,"internal_node_id":"0.0-2.0-12.0"},{"group":"hexagon_tri","room_assignment":["purple","green","yellow","red","grey","blue"],"door_color_assignment":["black","white"],"door_generator_assignment":[1,0],"goal":5,"start":3,"action_noise":0.15,"location_history":"[3,4,0,5]","action_history":"[1,1,1]","door_history":"[0,0,0]","location_rts":"[1031,428,454]","trial_type":"two-door-navigation","trial_index":15,"time_elapsed":272322,"internal_node_id":"0.0-2.0-13.0"},{"group":"hexagon_tri","room_assignment":["purple","green","yellow","red","grey","blue"],"door_color_assignment":["black","white"],"door_generator_assignment":[1,0],"goal":4,"start":5,"action_noise":0.15,"location_history":"[5,0,5,0,5,4]","action_history":"[1,1,1,0,0]","door_history":"[0,0,0,1,1]","location_rts":"[1149,361,658,818,503]","trial_type":"two-door-navigation","trial_index":16,"time_elapsed":284976,"internal_node_id":"0.0-2.0-14.0"},{"group":"hexagon_tri","room_assignment":["purple","green","yellow","red","grey","blue"],"door_color_assignment":["black","white"],"door_generator_assignment":[1,0],"goal":0,"start":4,"action_noise":0.15,"location_history":"[4,2,1,3,4,2,3,2,1,3,2,1,5,0]","action_history":"[1,0,0,1,1,1,0,0,0,0,0,1,1]","door_history":"[0,1,1,0,0,0,1,1,1,1,1,0,0]","location_rts":"[10315,2248,727,1214,869,1256,1152,456,553,480,744,930,933]","trial_type":"two-door-navigation","trial_index":17,"time_elapsed":323417,"internal_node_id":"0.0-2.0-15.0"},{"group":"hexagon_tri","room_assignment":["purple","green","yellow","red","grey","blue"],"door_color_assignment":["black","white"],"door_generator_assignment":[1,0],"goal":3,"start":0,"action_noise":0.15,"location_history":"[0,1,3]","action_history":"[1,1]","door_history":"[0,0]","location_rts":"[1294,323]","trial_type":"two-door-navigation","trial_index":18,"time_elapsed":330976,"internal_node_id":"0.0-2.0-16.0"},{"group":"hexagon_tri","room_assignment":["purple","green","yellow","red","grey","blue"],"door_color_assignment":["black","white"],"door_generator_assignment":[1,0],"goal":1,"start":3,"action_noise":0.15,"location_history":"[3,4,2,3,4,0,1]","action_history":"[1,1,1,1,1,1]","door_history":"[0,0,0,0,0,0]","location_rts":"[2715,324,350,354,424,623]","trial_type":"two-door-navigation","trial_index":19,"time_elapsed":345328,"internal_node_id":"0.0-2.0-17.0"},{"group":"hexagon_tri","room_assignment":["purple","green","yellow","red","grey","blue"],"door_color_assignment":["black","white"],"door_generator_assignment":[1,0],"goal":5,"start":1,"action_noise":0.15,"location_history":"[1,3,4,0,5]","action_history":"[1,1,1,1]","door_history":"[0,0,0,0]","location_rts":"[860,352,324,302]","trial_type":"two-door-navigation","trial_index":20,"time_elapsed":354671,"internal_node_id":"0.0-2.0-18.0"},{"group":"hexagon_tri","room_assignment":["purple","green","yellow","red","grey","blue"],"door_color_assignment":["black","white"],"door_generator_assignment":[1,0],"goal":2,"start":5,"action_noise":0.15,"location_history":"[5,0,5,4,0,5,0,1,3,2]","action_history":"[1,0,0,0,0,1,1,0,0]","door_history":"[0,1,1,1,1,0,0,1,1]","location_rts":"[768,960,610,481,1922,820,1192,824,611]","trial_type":"two-door-navigation","trial_index":21,"time_elapsed":375975,"internal_node_id":"0.0-2.0-19.0"},{"group":"hexagon_tri","room_assignment":["purple","green","yellow","red","grey","blue"],"door_color_assignment":["black","white"],"door_generator_assignment":[1,0],"goal":4,"start":2,"action_noise":0.15,"location_history":"[2,1,5,0,1,3,4]","action_history":"[1,1,1,1,1,1]","door_history":"[0,0,0,0,0,0]","location_rts":"[8742,900,416,302,383,391]","trial_type":"two-door-navigation","trial_index":22,"time_elapsed":396624,"internal_node_id":"0.0-2.0-20.0"},{"group":"hexagon_tri","room_assignment":["purple","green","yellow","red","grey","blue"],"door_color_assignment":["black","white"],"door_generator_assignment":[1,0],"goal":1,"start":4,"action_noise":0.15,"location_history":"[4,2,3,4,0,1]","action_history":"[1,1,1,1,1]","door_history":"[0,0,0,0,0]","location_rts":"[1004,384,303,328,363]","trial_type":"two-door-navigation","trial_index":23,"time_elapsed":407530,"internal_node_id":"0.0-2.0-21.0"},{"group":"hexagon_tri","room_assignment":["purple","green","yellow","red","grey","blue"],"door_color_assignment":["black","white"],"door_generator_assignment":[1,0],"goal":3,"start":1,"action_noise":0.15,"location_history":"[1,3]","action_history":"[1]","door_history":"[0]","location_rts":"[778]","trial_type":"two-door-navigation","trial_index":24,"time_elapsed":412820,"internal_node_id":"0.0-2.0-22.0"},{"group":"hexagon_tri","room_assignment":["purple","green","yellow","red","grey","blue"],"door_color_assignment":["black","white"],"door_generator_assignment":[1,0],"goal":2,"start":3,"action_noise":0.15,"location_history":"[3,4,2]","action_history":"[1,1]","door_history":"[0,0]","location_rts":"[297,342]","trial_type":"two-door-navigation","trial_index":25,"time_elapsed":418979,"internal_node_id":"0.0-2.0-23.0"},{"group":"hexagon_tri","room_assignment":["purple","green","yellow","red","grey","blue"],"door_color_assignment":["black","white"],"door_generator_assignment":[1,0],"goal":0,"start":2,"action_noise":0.15,"location_history":"[2,3,2,1,3,4,2,3,4,2,1,3,2,3,4,0]","action_history":"[1,0,0,1,1,1,1,0,0,0,0,0,1,1,1]","door_history":"[0,1,1,0,0,0,0,1,1,1,1,1,0,0,0]","location_rts":"[272,869,903,923,569,946,438,512,575,849,598,456,729,428,460]","trial_type":"two-door-navigation","trial_index":26,"time_elapsed":447977,"internal_node_id":"0.0-2.0-24.0"},{"group":"hexagon_tri","room_assignment":["purple","green","yellow","red","grey","blue"],"door_color_assignment":["black","white"],"door_generator_assignment":[1,0],"goal":5,"start":0,"action_noise":0.15,"location_history":"[0,1,5]","action_history":"[1,1]","door_history":"[0,0]","location_rts":"[15371,376]","trial_type":"two-door-navigation","trial_index":27,"time_elapsed":470228,"internal_node_id":"0.0-2.0-25.0"},{"group":"hexagon_tri","room_assignment":["purple","green","yellow","red","grey","blue"],"door_color_assignment":["black","white"],"door_generator_assignment":[1,0],"goal":2,"start":5,"action_noise":0.15,"location_history":"[5,0,1,5,0,1,5,4,0,1,3,2]","action_history":"[1,1,1,1,1,1,0,0,1,0,0]","door_history":"[0,0,0,0,0,0,1,1,0,1,1]","location_rts":"[1194,331,294,634,384,425,736,459,739,1280,637]","trial_type":"two-door-navigation","trial_index":28,"time_elapsed":491895,"internal_node_id":"0.0-2.0-26.0"},{"group":"hexagon_tri","room_assignment":["purple","green","yellow","red","grey","blue"],"door_color_assignment":["black","white"],"door_generator_assignment":[1,0],"goal":3,"start":2,"action_noise":0.15,"location_history":"[2,3]","action_history":"[1]","door_history":"[0]","location_rts":"[734]","trial_type":"two-door-navigation","trial_index":29,"time_elapsed":497132,"internal_node_id":"0.0-2.0-27.0"},{"group":"hexagon_tri","room_assignment":["purple","green","yellow","red","grey","blue"],"door_color_assignment":["black","white"],"door_generator_assignment":[1,0],"goal":0,"start":3,"action_noise":0.15,"location_history":"[3,4,2,3,4,2,3,2,1,3,4,0]","action_history":"[1,1,1,1,1,1,0,0,0,1,0]","door_history":"[0,0,0,0,0,0,1,1,1,0,1]","location_rts":"[760,325,296,376,417,381,1127,578,593,1023,817]","trial_type":"two-door-navigation","trial_index":30,"time_elapsed":518345,"internal_node_id":"0.0-2.0-28.0"},{"group":"hexagon_tri","room_assignment":["purple","green","yellow","red","grey","blue"],"door_color_assignment":["black","white"],"door_generator_assignment":[1,0],"goal":1,"start":0,"action_noise":0.15,"location_history":"[0,1]","action_history":"[1]","door_history":"[0]","location_rts":"[403]","trial_type":"two-door-navigation","trial_index":31,"time_elapsed":523975,"internal_node_id":"0.0-2.0-29.0"},{"group":"hexagon_tri","room_assignment":["purple","green","yellow","red","grey","blue"],"door_color_assignment":["black","white"],"door_generator_assignment":[1,0],"goal":4,"start":1,"action_noise":0.15,"location_history":"[1,5,0,1,5,0,1,5,0,1,3,2,1,5,4]","action_history":"[1,1,1,1,1,1,1,1,1,0,0,0,1,0]","door_history":"[0,0,0,0,0,0,0,0,0,1,1,1,0,1]","location_rts":"[7300,242,249,344,368,376,416,437,412,984,511,829,847,830]","trial_type":"two-door-navigation","trial_index":32,"time_elapsed":555682,"internal_node_id":"0.0-2.0-30.0"},{"group":"hexagon_tri","room_assignment":["purple","green","yellow","red","grey","blue"],"door_color_assignment":["black","white"],"door_generator_assignment":[1,0],"goal":5,"start":4,"action_noise":0.15,"location_history":"[4,0,1,5]","action_history":"[1,1,1]","door_history":"[0,0,0]","location_rts":"[362,296,319]","trial_type":"two-door-navigation","trial_index":33,"time_elapsed":563164,"internal_node_id":"0.0-2.0-31.0"},{"group":"hexagon_tri","room_assignment":["purple","green","yellow","red","grey","blue"],"door_color_assignment":["black","white"],"door_generator_assignment":[1,0],"goal":0,"start":5,"action_noise":0.15,"location_history":"[5,0]","action_history":"[1]","door_history":"[0]","location_rts":"[343]","trial_type":"two-door-navigation","trial_index":34,"time_elapsed":568026,"internal_node_id":"0.0-2.0-32.0"},{"group":"hexagon_tri","room_assignment":["purple","green","yellow","red","grey","blue"],"door_color_assignment":["black","white"],"door_generator_assignment":[1,0],"goal":3,"start":0,"action_noise":0.15,"location_history":"[0,5,0,1,5,0,1,5,4,0,1,3]","action_history":"[1,1,1,1,1,1,1,0,0,0,0]","door_history":"[0,0,0,0,0,0,0,1,1,1,1]","location_rts":"[314,272,415,319,346,454,447,1195,436,504,547]","trial_type":"two-door-navigation","trial_index":35,"time_elapsed":587793,"internal_node_id":"0.0-2.0-33.0"},{"group":"hexagon_tri","room_assignment":["purple","green","yellow","red","grey","blue"],"door_color_assignment":["black","white"],"door_generator_assignment":[1,0],"goal":1,"start":3,"action_noise":0.15,"location_history":"[3,4,2,3,2,3,4,2,3,2,1]","action_history":"[1,1,1,1,1,1,1,1,1,0]","door_history":"[0,0,0,0,0,0,0,0,0,1]","location_rts":"[398,373,298,381,388,527,888,457,378,967]","trial_type":"two-door-navigation","trial_index":36,"time_elapsed":606410,"internal_node_id":"0.0-2.0-34.0"},{"group":"hexagon_tri","room_assignment":["purple","green","yellow","red","grey","blue"],"door_color_assignment":["black","white"],"door_generator_assignment":[1,0],"goal":2,"start":1,"action_noise":0.15,"location_history":"[1,5,0,1,3,4,2]","action_history":"[1,1,1,1,1,1]","door_history":"[0,0,0,0,0,0]","location_rts":"[930,335,288,399,387,379]","trial_type":"two-door-navigation","trial_index":37,"time_elapsed":618633,"internal_node_id":"0.0-2.0-35.0"},{"group":"hexagon_tri","room_assignment":["purple","green","yellow","red","grey","blue"],"door_color_assignment":["black","white"],"door_generator_assignment":[1,0],"goal":4,"start":2,"action_noise":0.15,"location_history":"[2,1,5,0,1,5,0,1,3,2,3,2,1,3,2,1,3,2,1,5,0,1,5,0,5,4]","action_history":"[1,1,1,1,1,1,1,0,0,1,0,0,0,0,0,0,0,1,1,1,1,1,0,0,0]","door_history":"[0,0,0,0,0,0,0,1,1,0,1,1,1,1,1,1,1,0,0,0,0,0,1,1,1]","location_rts":"[483,264,304,279,310,558,536,1095,521,865,663,469,449,320,447,447,1697,879,1323,906,491,608,979,489,406]","trial_type":"two-door-navigation","trial_index":38,"time_elapsed":663975,"internal_node_id":"0.0-2.0-36.0"},{"group":"hexagon_tri","room_assignment":["purple","green","yellow","red","grey","blue"],"door_color_assignment":["black","white"],"door_generator_assignment":[1,0],"goal":5,"start":4,"action_noise":0.15,"location_history":"[4,2,3,4,2,3,2,3,4,0,5]","action_history":"[1,1,1,1,1,0,1,0,0,0]","door_history":"[0,0,0,0,0,1,0,1,1,1]","location_rts":"[11868,295,328,364,309,682,1328,833,342,498]","trial_type":"two-door-navigation","trial_index":39,"time_elapsed":694370,"internal_node_id":"0.0-2.0-37.0"},{"group":"hexagon_tri","room_assignment":["purple","green","yellow","red","grey","blue"],"door_color_assignment":["black","white"],"door_generator_assignment":[1,0],"goal":1,"start":5,"action_noise":0.15,"location_history":"[5,0,1]","action_history":"[1,1]","door_history":"[0,0]","location_rts":"[298,254]","trial_type":"two-door-navigation","trial_index":40,"time_elapsed":700447,"internal_node_id":"0.0-2.0-38.0"},{"group":"hexagon_tri","room_assignment":["purple","green","yellow","red","grey","blue"],"door_color_assignment":["black","white"],"door_generator_assignment":[1,0],"goal":4,"start":1,"action_noise":0.15,"location_history":"[1,5,0,1,5,4]","action_history":"[1,1,1,1,1]","door_history":"[0,0,0,0,0]","location_rts":"[270,380,955,728,703]","trial_type":"two-door-navigation","trial_index":41,"time_elapsed":712009,"internal_node_id":"0.0-2.0-39.0"},{"group":"hexagon_tri","room_assignment":["purple","green","yellow","red","grey","blue"],"door_color_assignment":["black","white"],"door_generator_assignment":[1,0],"goal":3,"start":4,"action_noise":0.15,"location_history":"[4,2,3]","action_history":"[1,1]","door_history":"[0,0]","location_rts":"[325,256]","trial_type":"two-door-navigation","trial_index":42,"time_elapsed":718101,"internal_node_id":"0.0-2.0-40.0"},{"group":"hexagon_tri","room_assignment":["purple","green","yellow","red","grey","blue"],"door_color_assignment":["black","white"],"door_generator_assignment":[1,0],"goal":2,"start":3,"action_noise":0.15,"location_history":"[3,4,2]","action_history":"[1,1]","door_history":"[0,0]","location_rts":"[350,344]","trial_type":"two-door-navigation","trial_index":43,"time_elapsed":724329,"internal_node_id":"0.0-2.0-41.0"},{"group":"hexagon_tri","room_assignment":["purple","green","yellow","red","grey","blue"],"door_color_assignment":["black","white"],"door_generator_assignment":[1,0],"goal":0,"start":2,"action_noise":0.15,"location_history":"[2,1,5,0]","action_history":"[1,1,1]","door_history":"[0,0,0]","location_rts":"[285,663,505]","trial_type":"two-door-navigation","trial_index":44,"time_elapsed":732288,"internal_node_id":"0.0-2.0-42.0"},{"group":"hexagon_tri","room_assignment":["purple","green","yellow","red","grey","blue"],"door_color_assignment":["black","white"],"door_generator_assignment":[1,0],"goal":5,"start":0,"action_noise":0.15,"location_history":"[0,1,5]","action_history":"[1,1]","door_history":"[0,0]","location_rts":"[636,319]","trial_type":"two-door-navigation","trial_index":45,"time_elapsed":738745,"internal_node_id":"0.0-2.0-43.0"},{"group":"hexagon_tri","room_assignment":["purple","green","yellow","red","grey","blue"],"door_color_assignment":["black","white"],"door_generator_assignment":[1,0],"goal":0,"start":5,"action_noise":0.15,"location_history":"[5,0]","action_history":"[1]","door_history":"[0]","location_rts":"[341]","trial_type":"two-door-navigation","trial_index":46,"time_elapsed":743586,"internal_node_id":"0.0-2.0-44.0"},{"group":"hexagon_tri","room_assignment":["purple","green","yellow","red","grey","blue"],"door_color_assignment":["black","white"],"door_generator_assignment":[1,0],"goal":2,"start":0,"action_noise":0.15,"location_history":"[0,1,5,0,1,5,4,0,5,4,2]","action_history":"[1,1,1,1,1,1,0,0,0,1]","door_history":"[0,0,0,0,0,0,1,1,1,0]","location_rts":"[293,537,343,384,458,898,1407,1040,555,1336]","trial_type":"two-door-navigation","trial_index":47,"time_elapsed":764975,"internal_node_id":"0.0-2.0-45.0"},{"group":"hexagon_tri","room_assignment":["purple","green","yellow","red","grey","blue"],"door_color_assignment":["black","white"],"door_generator_assignment":[1,0],"goal":4,"start":2,"action_noise":0.15,"location_history":"[2,1,5,0,1,5,0,1,5,0,5,0,5,4]","action_history":"[1,1,1,1,1,1,1,1,1,1,1,0,0]","door_history":"[0,0,0,0,0,0,0,0,0,0,0,1,1]","location_rts":"[11042,707,805,332,344,400,365,377,526,423,310,1073,589]","trial_type":"two-door-navigation","trial_index":48,"time_elapsed":798807,"internal_node_id":"0.0-2.0-46.0"},{"group":"hexagon_tri","room_assignment":["purple","green","yellow","red","grey","blue"],"door_color_assignment":["black","white"],"door_generator_assignment":[1,0],"goal":1,"start":4,"action_noise":0.15,"location_history":"[4,0,1]","action_history":"[1,1]","door_history":"[0,0]","location_rts":"[365,271]","trial_type":"two-door-navigation","trial_index":49,"time_elapsed":804949,"internal_node_id":"0.0-2.0-47.0"},{"group":"hexagon_tri","room_assignment":["purple","green","yellow","red","grey","blue"],"door_color_assignment":["black","white"],"door_generator_assignment":[1,0],"goal":5,"start":1,"action_noise":0.15,"location_history":"[1,5]","action_history":"[1]","door_history":"[0]","location_rts":"[286]","trial_type":"two-door-navigation","trial_index":50,"time_elapsed":809739,"internal_node_id":"0.0-2.0-48.0"},{"group":"hexagon_tri","room_assignment":["purple","green","yellow","red","grey","blue"],"door_color_assignment":["black","white"],"door_generator_assignment":[1,0],"goal":3,"start":5,"action_noise":0.15,"location_history":"[5,4,2,3]","action_history":"[1,1,1]","door_history":"[0,0,0]","location_rts":"[327,317,247]","trial_type":"two-door-navigation","trial_index":51,"time_elapsed":817187,"internal_node_id":"0.0-2.0-49.0"},{"view_history":"[{\"page_index\":0,\"viewing_time\":1861}]","rt":1861,"trial_type":"instructions","trial_index":52,"time_elapsed":820049,"internal_node_id":"0.0-3.0"},{"view_history":"[{\"page_index\":0,\"viewing_time\":50647},{\"page_index\":1,\"viewing_time\":2975}]","rt":53622,"trial_type":"instructions","trial_index":53,"time_elapsed":875599,"internal_node_id":"0.0-4.0"},{"group":"hexagon_tri","fractal_assignment":["../images/pnk_blu.png","../images/org_blu.png","../images/ylw_slt.png","../images/gry_blk.png","../images/cyn_red.png","../images/blu_wht.png"],"mutagen_generator_assignment":[0,1],"goal":3,"start":5,"action_noise":0.15,"location_history":"[5,4,2,3]","action_history":"[0,1,1]","mutagen_history":"[0,1,1]","location_rts":"[5381,671,1519]","trial_type":"fractal-mutation","trial_index":54,"time_elapsed":889743,"internal_node_id":"0.0-5.0-0.0"},{"group":"hexagon_tri","fractal_assignment":["../images/pnk_blu.png","../images/org_blu.png","../images/ylw_slt.png","../images/gry_blk.png","../images/cyn_red.png","../images/blu_wht.png"],"mutagen_generator_assignment":[0,1],"goal":1,"start":3,"action_noise":0.15,"location_history":"[3,2,1]","action_history":"[0,0]","mutagen_history":"[0,0]","location_rts":"[1981,658]","trial_type":"fractal-mutation","trial_index":55,"time_elapsed":897931,"internal_node_id":"0.0-5.0-1.0"},{"group":"hexagon_tri","fractal_assignment":["../images/pnk_blu.png","../images/org_blu.png","../images/ylw_slt.png","../images/gry_blk.png","../images/cyn_red.png","../images/blu_wht.png"],"mutagen_generator_assignment":[0,1],"goal":0,"start":1,"action_noise":0.15,"location_history":"[1,3,4,2,3,4,0]","action_history":"[0,1,1,1,1,0]","mutagen_history":"[0,1,1,1,1,0]","location_rts":"[1486,902,614,560,1166,599]","trial_type":"fractal-mutation","trial_index":56,"time_elapsed":912860,"internal_node_id":"0.0-5.0-2.0"},{"group":"hexagon_tri","fractal_assignment":["../images/pnk_blu.png","../images/org_blu.png","../images/ylw_slt.png","../images/gry_blk.png","../images/cyn_red.png","../images/blu_wht.png"],"mutagen_generator_assignment":[0,1],"goal":3,"start":0,"action_noise":0.15,"location_history":"[0,5,0,5,4,0,1,5,0,5,4,0,1,5,4,2,1,3]","action_history":"[0,1,0,0,1,1,1,1,0,0,0,1,1,1,1,0,0]","mutagen_history":"[0,1,0,0,1,1,1,1,0,0,0,1,1,1,1,0,0]","location_rts":"[1734,1566,615,462,1124,612,770,480,540,359,316,501,523,436,1928,439,1568]","trial_type":"fractal-mutation","trial_index":57,"time_elapsed":947611,"internal_node_id":"0.0-5.0-3.0"},{"group":"hexagon_tri","fractal_assignment":["../images/pnk_blu.png","../images/org_blu.png","../images/ylw_slt.png","../images/gry_blk.png","../images/cyn_red.png","../images/blu_wht.png"],"mutagen_generator_assignment":[0,1],"goal":4,"start":3,"action_noise":0.15,"location_history":"[3,2,3,2,1,3,2,1,3,4]","action_history":"[0,1,0,1,1,1,0,0,0]","mutagen_history":"[0,1,0,1,1,1,0,0,0]","location_rts":"[1883,646,984,527,347,380,669,372,405]","trial_type":"fractal-mutation","trial_index":58,"time_elapsed":966467,"internal_node_id":"0.0-5.0-4.0"},{"group":"hexagon_tri","fractal_assignment":["../images/pnk_blu.png","../images/org_blu.png","../images/ylw_slt.png","../images/gry_blk.png","../images/cyn_red.png","../images/blu_wht.png"],"mutagen_generator_assignment":[0,1],"goal":2,"start":4,"action_noise":0.15,"location_history":"[4,0,5,4,2]","action_history":"[0,0,0,1]","mutagen_history":"[0,0,0,1]","location_rts":"[1688,2546,1396,1370]","trial_type":"fractal-mutation","trial_index":59,"time_elapsed":981014,"internal_node_id":"0.0-5.0-5.0"},{"group":"hexagon_tri","fractal_assignment":["../images/pnk_blu.png","../images/org_blu.png","../images/ylw_slt.png","../images/gry_blk.png","../images/cyn_red.png","../images/blu_wht.png"],"mutagen_generator_assignment":[0,1],"goal":1,"start":2,"action_noise":0.15,"location_history":"[2,1]","action_history":"[0]","mutagen_history":"[0]","location_rts":"[1335]","trial_type":"fractal-mutation","trial_index":60,"time_elapsed":986852,"internal_node_id":"0.0-5.0-6.0"},{"group":"hexagon_tri","fractal_assignment":["../images/pnk_blu.png","../images/org_blu.png","../images/ylw_slt.png","../images/gry_blk.png","../images/cyn_red.png","../images/blu_wht.png"],"mutagen_generator_assignment":[0,1],"goal":5,"start":1,"action_noise":0.15,"location_history":"[1,5]","action_history":"[1]","mutagen_history":"[1]","location_rts":"[3354]","trial_type":"fractal-mutation","trial_index":61,"time_elapsed":994718,"internal_node_id":"0.0-5.0-7.0"},{"group":"hexagon_tri","fractal_assignment":["../images/pnk_blu.png","../images/org_blu.png","../images/ylw_slt.png","../images/gry_blk.png","../images/cyn_red.png","../images/blu_wht.png"],"mutagen_generator_assignment":[0,1],"goal":4,"start":5,"action_noise":0.15,"location_history":"[5,4]","action_history":"[0]","mutagen_history":"[0]","location_rts":"[1584]","trial_type":"fractal-mutation","trial_index":62,"time_elapsed":1000811,"internal_node_id":"0.0-5.0-8.0"},{"group":"hexagon_tri","fractal_assignment":["../images/pnk_blu.png","../images/org_blu.png","../images/ylw_slt.png","../images/gry_blk.png","../images/cyn_red.png","../images/blu_wht.png"],"mutagen_generator_assignment":[0,1],"goal":2,"start":4,"action_noise":0.15,"location_history":"[4,2]","action_history":"[0]","mutagen_history":"[0]","location_rts":"[1514]","trial_type":"fractal-mutation","trial_index":63,"time_elapsed":1006828,"internal_node_id":"0.0-5.0-9.0"},{"group":"hexagon_tri","fractal_assignment":["../images/pnk_blu.png","../images/org_blu.png","../images/ylw_slt.png","../images/gry_blk.png","../images/cyn_red.png","../images/blu_wht.png"],"mutagen_generator_assignment":[0,1],"goal":0,"start":2,"action_noise":0.15,"location_history":"[2,3,4,2,3,2,1,5,4,2,1,5,4,0]","action_history":"[1,1,1,1,0,0,1,0,1,0,1,0,1]","mutagen_history":"[1,1,1,1,0,0,1,0,1,0,1,0,1]","location_rts":"[2236,1310,638,547,728,533,585,864,1045,567,653,1230,744]","trial_type":"fractal-mutation","trial_index":64,"time_elapsed":1035436,"internal_node_id":"0.0-5.0-10.0"},{"group":"hexagon_tri","fractal_assignment":["../images/pnk_blu.png","../images/org_blu.png","../images/ylw_slt.png","../images/gry_blk.png","../images/cyn_red.png","../images/blu_wht.png"],"mutagen_generator_assignment":[0,1],"goal":1,"start":0,"action_noise":0.15,"location_history":"[0,5,4,0,1]","action_history":"[0,0,0,1]","mutagen_history":"[0,0,0,1]","location_rts":"[2218,557,446,614]","trial_type":"fractal-mutation","trial_index":65,"time_elapsed":1046885,"internal_node_id":"0.0-5.0-11.0"},{"group":"hexagon_tri","fractal_assignment":["../images/pnk_blu.png","../images/org_blu.png","../images/ylw_slt.png","../images/gry_blk.png","../images/cyn_red.png","../images/blu_wht.png"],"mutagen_generator_assignment":[0,1],"goal":3,"start":1,"action_noise":0.15,"location_history":"[1,5,0,1,5,4,2,3]","action_history":"[1,1,1,1,0,1,1]","mutagen_history":"[1,1,1,1,0,1,1]","location_rts":"[2495,404,397,761,488,449,537]","trial_type":"fractal-mutation","trial_index":66,"time_elapsed":1063206,"internal_node_id":"0.0-5.0-12.0"},{"group":"hexagon_tri","fractal_assignment":["../images/pnk_blu.png","../images/org_blu.png","../images/ylw_slt.png","../images/gry_blk.png","../images/cyn_red.png","../images/blu_wht.png"],"mutagen_generator_assignment":[0,1],"goal":5,"start":3,"action_noise":0.15,"location_history":"[3,4,2,1,5]","action_history":"[1,1,0,1]","mutagen_history":"[1,1,0,1]","location_rts":"[2317,481,878,389]","trial_type":"fractal-mutation","trial_index":67,"time_elapsed":1074902,"internal_node_id":"0.0-5.0-13.0"},{"group":"hexagon_tri","fractal_assignment":["../images/pnk_blu.png","../images/org_blu.png","../images/ylw_slt.png","../images/gry_blk.png","../images/cyn_red.png","../images/blu_wht.png"],"mutagen_generator_assignment":[0,1],"goal":4,"start":5,"action_noise":0.15,"location_history":"[5,4]","action_history":"[0]","mutagen_history":"[0]","location_rts":"[1507]","trial_type":"fractal-mutation","trial_index":68,"time_elapsed":1080920,"internal_node_id":"0.0-5.0-14.0"},{"group":"hexagon_tri","fractal_assignment":["../images/pnk_blu.png","../images/org_blu.png","../images/ylw_slt.png","../images/gry_blk.png","../images/cyn_red.png","../images/blu_wht.png"],"mutagen_generator_assignment":[0,1],"goal":0,"start":4,"action_noise":0.15,"location_history":"[4,2,1,5,4,0]","action_history":"[1,0,1,1,1]","mutagen_history":"[1,0,1,1,1]","location_rts":"[1591,1461,783,445,314]","trial_type":"fractal-mutation","trial_index":69,"time_elapsed":1094151,"internal_node_id":"0.0-5.0-15.0"},{"group":"hexagon_tri","fractal_assignment":["../images/pnk_blu.png","../images/org_blu.png","../images/ylw_slt.png","../images/gry_blk.png","../images/cyn_red.png","../images/blu_wht.png"],"mutagen_generator_assignment":[0,1],"goal":3,"start":0,"action_noise":0.15,"location_history":"[0,1,3]","action_history":"[1,0]","mutagen_history":"[1,0]","location_rts":"[1655,354]","trial_type":"fractal-mutation","trial_index":70,"time_elapsed":1101723,"internal_node_id":"0.0-5.0-16.0"},{"group":"hexagon_tri","fractal_assignment":["../images/pnk_blu.png","../images/org_blu.png","../images/ylw_slt.png","../images/gry_blk.png","../images/cyn_red.png","../images/blu_wht.png"],"mutagen_generator_assignment":[0,1],"goal":1,"start":3,"action_noise":0.15,"location_history":"[3,4,0,5,4,0,5,0,5,4,0,1]","action_history":"[0,1,0,0,0,0,1,0,1,0,1]","mutagen_history":"[0,1,0,0,0,0,1,0,1,0,1]","location_rts":"[1613,793,387,514,394,464,375,349,474,488,1860]","trial_type":"fractal-mutation","trial_index":71,"time_elapsed":1124300,"internal_node_id":"0.0-5.0-17.0"},{"group":"hexagon_tri","fractal_assignment":["../images/pnk_blu.png","../images/org_blu.png","../images/ylw_slt.png","../images/gry_blk.png","../images/cyn_red.png","../images/blu_wht.png"],"mutagen_generator_assignment":[0,1],"goal":5,"start":1,"action_noise":0.15,"location_history":"[1,5]","action_history":"[1]","mutagen_history":"[1]","location_rts":"[10470]","trial_type":"fractal-mutation","trial_index":72,"time_elapsed":1139954,"internal_node_id":"0.0-5.0-18.0"},{"group":"hexagon_tri","fractal_assignment":["../images/pnk_blu.png","../images/org_blu.png","../images/ylw_slt.png","../images/gry_blk.png","../images/cyn_red.png","../images/blu_wht.png"],"mutagen_generator_assignment":[0,1],"goal":2,"start":5,"action_noise":0.15,"location_history":"[5,4,2]","action_history":"[0,1]","mutagen_history":"[0,1]","location_rts":"[1660,944]","trial_type":"fractal-mutation","trial_index":73,"time_elapsed":1148084,"internal_node_id":"0.0-5.0-19.0"},{"group":"hexagon_tri","fractal_assignment":["../images/pnk_blu.png","../images/org_blu.png","../images/ylw_slt.png","../images/gry_blk.png","../images/cyn_red.png","../images/blu_wht.png"],"mutagen_generator_assignment":[0,1],"goal":4,"start":2,"action_noise":0.15,"location_history":"[2,3,4]","action_history":"[1,1]","mutagen_history":"[1,1]","location_rts":"[1264,357]","trial_type":"fractal-mutation","trial_index":74,"time_elapsed":1155248,"internal_node_id":"0.0-5.0-20.0"},{"group":"hexagon_tri","fractal_assignment":["../images/pnk_blu.png","../images/org_blu.png","../images/ylw_slt.png","../images/gry_blk.png","../images/cyn_red.png","../images/blu_wht.png"],"mutagen_generator_assignment":[0,1],"goal":1,"start":4,"action_noise":0.15,"location_history":"[4,2,1]","action_history":"[1,0]","mutagen_history":"[1,0]","location_rts":"[1383,485]","trial_type":"fractal-mutation","trial_index":75,"time_elapsed":1162630,"internal_node_id":"0.0-5.0-21.0"},{"group":"hexagon_tri","fractal_assignment":["../images/pnk_blu.png","../images/org_blu.png","../images/ylw_slt.png","../images/gry_blk.png","../images/cyn_red.png","../images/blu_wht.png"],"mutagen_generator_assignment":[0,1],"goal":3,"start":1,"action_noise":0.15,"location_history":"[1,3]","action_history":"[0]","mutagen_history":"[0]","location_rts":"[2931]","trial_type":"fractal-mutation","trial_index":76,"time_elapsed":1170063,"internal_node_id":"0.0-5.0-22.0"},{"group":"hexagon_tri","fractal_assignment":["../images/pnk_blu.png","../images/org_blu.png","../images/ylw_slt.png","../images/gry_blk.png","../images/cyn_red.png","../images/blu_wht.png"],"mutagen_generator_assignment":[0,1],"goal":2,"start":3,"action_noise":0.15,"location_history":"[3,4,0,1,3,2]","action_history":"[1,0,1,0,0]","mutagen_history":"[1,0,1,0,0]","location_rts":"[1869,1061,2809,664,429]","trial_type":"fractal-mutation","trial_index":77,"time_elapsed":1185518,"internal_node_id":"0.0-5.0-23.0"},{"group":"hexagon_tri","fractal_assignment":["../images/pnk_blu.png","../images/org_blu.png","../images/ylw_slt.png","../images/gry_blk.png","../images/cyn_red.png","../images/blu_wht.png"],"mutagen_generator_assignment":[0,1],"goal":0,"start":2,"action_noise":0.15,"location_history":"[2,3,4,0]","action_history":"[1,1,1]","mutagen_history":"[1,1,1]","location_rts":"[2932,378,480]","trial_type":"fractal-mutation","trial_index":78,"time_elapsed":1195857,"internal_node_id":"0.0-5.0-24.0"},{"group":"hexagon_tri","fractal_assignment":["../images/pnk_blu.png","../images/org_blu.png","../images/ylw_slt.png","../images/gry_blk.png","../images/cyn_red.png","../images/blu_wht.png"],"mutagen_generator_assignment":[0,1],"goal":5,"start":0,"action_noise":0.15,"location_history":"[0,1,5]","action_history":"[1,1]","mutagen_history":"[1,1]","location_rts":"[1131,1362]","trial_type":"fractal-mutation","trial_index":79,"time_elapsed":1203867,"internal_node_id":"0.0-5.0-25.0"},{"group":"hexagon_tri","fractal_assignment":["../images/pnk_blu.png","../images/org_blu.png","../images/ylw_slt.png","../images/gry_blk.png","../images/cyn_red.png","../images/blu_wht.png"],"mutagen_generator_assignment":[0,1],"goal":2,"start":5,"action_noise":0.15,"location_history":"[5,4,0,5,4,0,1,3,2]","action_history":"[0,1,0,0,0,1,0,0]","mutagen_history":"[0,1,0,0,0,1,0,0]","location_rts":"[1658,572,530,428,593,614,873,1103]","trial_type":"fractal-mutation","trial_index":80,"time_elapsed":1221944,"internal_node_id":"0.0-5.0-26.0"},{"group":"hexagon_tri","fractal_assignment":["../images/pnk_blu.png","../images/org_blu.png","../images/ylw_slt.png","../images/gry_blk.png","../images/cyn_red.png","../images/blu_wht.png"],"mutagen_generator_assignment":[0,1],"goal":3,"start":2,"action_noise":0.15,"location_history":"[2,1,5,4,0,1,5,4,0,1,3]","action_history":"[0,1,0,0,1,1,0,0,0,0]","mutagen_history":"[0,1,0,0,1,1,0,0,0,0]","location_rts":"[1205,700,735,1075,553,2377,1171,308,337,1159]","trial_type":"fractal-mutation","trial_index":81,"time_elapsed":1245223,"internal_node_id":"0.0-5.0-27.0"},{"group":"hexagon_tri","fractal_assignment":["../images/pnk_blu.png","../images/org_blu.png","../images/ylw_slt.png","../images/gry_blk.png","../images/cyn_red.png","../images/blu_wht.png"],"mutagen_generator_assignment":[0,1],"goal":0,"start":3,"action_noise":0.15,"location_history":"[3,4,2,3,4,2,3,4,2,3,4,0]","action_history":"[1,1,1,1,1,1,0,1,1,0,0]","mutagen_history":"[1,1,1,1,1,1,0,1,1,0,0]","location_rts":"[1131,1573,352,350,712,641,1317,554,607,375,580]","trial_type":"fractal-mutation","trial_index":82,"time_elapsed":1268122,"internal_node_id":"0.0-5.0-28.0"},{"group":"hexagon_tri","fractal_assignment":["../images/pnk_blu.png","../images/org_blu.png","../images/ylw_slt.png","../images/gry_blk.png","../images/cyn_red.png","../images/blu_wht.png"],"mutagen_generator_assignment":[0,1],"goal":1,"start":0,"action_noise":0.15,"location_history":"[0,5,0,5,4,2,1]","action_history":"[0,1,0,0,1,0]","mutagen_history":"[0,1,0,0,1,0]","location_rts":"[3237,1301,2421,363,564,814]","trial_type":"fractal-mutation","trial_index":83,"time_elapsed":1286389,"internal_node_id":"0.0-5.0-29.0"},{"group":"hexagon_tri","fractal_assignment":["../images/pnk_blu.png","../images/org_blu.png","../images/ylw_slt.png","../images/gry_blk.png","../images/cyn_red.png","../images/blu_wht.png"],"mutagen_generator_assignment":[0,1],"goal":4,"start":1,"action_noise":0.15,"location_history":"[1,3,2,1,5,0,1,5,4]","action_history":"[1,0,1,1,1,1,1,0]","mutagen_history":"[1,0,1,1,1,1,1,0]","location_rts":"[1359,491,1029,530,402,311,412,607]","trial_type":"fractal-mutation","trial_index":84,"time_elapsed":1303268,"internal_node_id":"0.0-5.0-30.0"},{"group":"hexagon_tri","fractal_assignment":["../images/pnk_blu.png","../images/org_blu.png","../images/ylw_slt.png","../images/gry_blk.png","../images/cyn_red.png","../images/blu_wht.png"],"mutagen_generator_assignment":[0,1],"goal":5,"start":4,"action_noise":0.15,"location_history":"[4,2,3,4,2,3,4,2,3,2,1,5]","action_history":"[1,1,1,1,1,1,1,1,1,0,1]","mutagen_history":"[1,1,1,1,1,1,1,1,1,0,1]","location_rts":"[1524,437,325,396,448,393,376,331,355,443,625]","trial_type":"fractal-mutation","trial_index":85,"time_elapsed":1323664,"internal_node_id":"0.0-5.0-31.0"},{"group":"hexagon_tri","fractal_assignment":["../images/pnk_blu.png","../images/org_blu.png","../images/ylw_slt.png","../images/gry_blk.png","../images/cyn_red.png","../images/blu_wht.png"],"mutagen_generator_assignment":[0,1],"goal":0,"start":5,"action_noise":0.15,"location_history":"[5,4,0]","action_history":"[0,1]","mutagen_history":"[0,1]","location_rts":"[3249,1326]","trial_type":"fractal-mutation","trial_index":86,"time_elapsed":1333796,"internal_node_id":"0.0-5.0-32.0"},{"group":"hexagon_tri","fractal_assignment":["../images/pnk_blu.png","../images/org_blu.png","../images/ylw_slt.png","../images/gry_blk.png","../images/cyn_red.png","../images/blu_wht.png"],"mutagen_generator_assignment":[0,1],"goal":3,"start":0,"action_noise":0.15,"location_history":"[0,1,3]","action_history":"[1,0]","mutagen_history":"[1,0]","location_rts":"[3559,462]","trial_type":"fractal-mutation","trial_index":87,"time_elapsed":1343384,"internal_node_id":"0.0-5.0-33.0"},{"group":"hexagon_tri","fractal_assignment":["../images/pnk_blu.png","../images/org_blu.png","../images/ylw_slt.png","../images/gry_blk.png","../images/cyn_red.png","../images/blu_wht.png"],"mutagen_generator_assignment":[0,1],"goal":1,"start":3,"action_noise":0.15,"location_history":"[3,4,0,1]","action_history":"[1,0,1]","mutagen_history":"[1,0,1]","location_rts":"[2576,922,1133]","trial_type":"fractal-mutation","trial_index":88,"time_elapsed":1354588,"internal_node_id":"0.0-5.0-34.0"},{"group":"hexagon_tri","fractal_assignment":["../images/pnk_blu.png","../images/org_blu.png","../images/ylw_slt.png","../images/gry_blk.png","../images/cyn_red.png","../images/blu_wht.png"],"mutagen_generator_assignment":[0,1],"goal":2,"start":1,"action_noise":0.15,"location_history":"[1,3,2]","action_history":"[0,1]","mutagen_history":"[0,1]","location_rts":"[1743,570]","trial_type":"fractal-mutation","trial_index":89,"time_elapsed":1362417,"internal_node_id":"0.0-5.0-35.0"},{"group":"hexagon_tri","fractal_assignment":["../images/pnk_blu.png","../images/org_blu.png","../images/ylw_slt.png","../images/gry_blk.png","../images/cyn_red.png","../images/blu_wht.png"],"mutagen_generator_assignment":[0,1],"goal":4,"start":2,"action_noise":0.15,"location_history":"[2,3,4]","action_history":"[1,1]","mutagen_history":"[1,1]","location_rts":"[1860,1020]","trial_type":"fractal-mutation","trial_index":90,"time_elapsed":1370835,"internal_node_id":"0.0-5.0-36.0"},{"group":"hexagon_tri","fractal_assignment":["../images/pnk_blu.png","../images/org_blu.png","../images/ylw_slt.png","../images/gry_blk.png","../images/cyn_red.png","../images/blu_wht.png"],"mutagen_generator_assignment":[0,1],"goal":5,"start":4,"action_noise":0.15,"location_history":"[4,2,3,2,1,5]","action_history":"[0,1,1,0,1]","mutagen_history":"[0,1,1,0,1]","location_rts":"[1343,481,485,829,525]","trial_type":"fractal-mutation","trial_index":91,"time_elapsed":1383121,"internal_node_id":"0.0-5.0-37.0"},{"group":"hexagon_tri","fractal_assignment":["../images/pnk_blu.png","../images/org_blu.png","../images/ylw_slt.png","../images/gry_blk.png","../images/cyn_red.png","../images/blu_wht.png"],"mutagen_generator_assignment":[0,1],"goal":1,"start":5,"action_noise":0.15,"location_history":"[5,0,5,4,2,3,2,1]","action_history":"[1,0,0,1,0,0,1]","mutagen_history":"[1,0,0,1,0,0,1]","location_rts":"[4076,700,432,588,765,955,917]","trial_type":"fractal-mutation","trial_index":92,"time_elapsed":1402206,"internal_node_id":"0.0-5.0-38.0"},{"group":"hexagon_tri","fractal_assignment":["../images/pnk_blu.png","../images/org_blu.png","../images/ylw_slt.png","../images/gry_blk.png","../images/cyn_red.png","../images/blu_wht.png"],"mutagen_generator_assignment":[0,1],"goal":4,"start":1,"action_noise":0.15,"location_history":"[1,5,4]","action_history":"[1,1]","mutagen_history":"[1,1]","location_rts":"[30678,676]","trial_type":"fractal-mutation","trial_index":93,"time_elapsed":1439922,"internal_node_id":"0.0-5.0-39.0"},{"group":"hexagon_tri","fractal_assignment":["../images/pnk_blu.png","../images/org_blu.png","../images/ylw_slt.png","../images/gry_blk.png","../images/cyn_red.png","../images/blu_wht.png"],"mutagen_generator_assignment":[0,1],"goal":3,"start":4,"action_noise":0.15,"location_history":"[4,2,1,3]","action_history":"[1,0,0]","mutagen_history":"[1,0,0]","location_rts":"[2616,285,576]","trial_type":"fractal-mutation","trial_index":94,"time_elapsed":1449911,"internal_node_id":"0.0-5.0-40.0"},{"group":"hexagon_tri","fractal_assignment":["../images/pnk_blu.png","../images/org_blu.png","../images/ylw_slt.png","../images/gry_blk.png","../images/cyn_red.png","../images/blu_wht.png"],"mutagen_generator_assignment":[0,1],"goal":2,"start":3,"action_noise":0.15,"location_history":"[3,4,2]","action_history":"[1,1]","mutagen_history":"[1,1]","location_rts":"[1377,1548]","trial_type":"fractal-mutation","trial_index":95,"time_elapsed":1458372,"internal_node_id":"0.0-5.0-41.0"},{"group":"hexagon_tri","fractal_assignment":["../images/pnk_blu.png","../images/org_blu.png","../images/ylw_slt.png","../images/gry_blk.png","../images/cyn_red.png","../images/blu_wht.png"],"mutagen_generator_assignment":[0,1],"goal":0,"start":2,"action_noise":0.15,"location_history":"[2,1,5,0]","action_history":"[1,1,1]","mutagen_history":"[1,1,1]","location_rts":"[1335,408,600]","trial_type":"fractal-mutation","trial_index":96,"time_elapsed":1467291,"internal_node_id":"0.0-5.0-42.0"},{"group":"hexagon_tri","fractal_assignment":["../images/pnk_blu.png","../images/org_blu.png","../images/ylw_slt.png","../images/gry_blk.png","../images/cyn_red.png","../images/blu_wht.png"],"mutagen_generator_assignment":[0,1],"goal":5,"start":0,"action_noise":0.15,"location_history":"[0,1,3,2,3,4,0,5]","action_history":"[1,0,0,1,1,1,0]","mutagen_history":"[1,0,0,1,1,1,0]","location_rts":"[2271,667,674,588,831,414,694]","trial_type":"fractal-mutation","trial_index":97,"time_elapsed":1484067,"internal_node_id":"0.0-5.0-43.0"},{"group":"hexagon_tri","fractal_assignment":["../images/pnk_blu.png","../images/org_blu.png","../images/ylw_slt.png","../images/gry_blk.png","../images/cyn_red.png","../images/blu_wht.png"],"mutagen_generator_assignment":[0,1],"goal":0,"start":5,"action_noise":0.15,"location_history":"[5,0]","action_history":"[1]","mutagen_history":"[1]","location_rts":"[3736]","trial_type":"fractal-mutation","trial_index":98,"time_elapsed":1492340,"internal_node_id":"0.0-5.0-44.0"},{"group":"hexagon_tri","fractal_assignment":["../images/pnk_blu.png","../images/org_blu.png","../images/ylw_slt.png","../images/gry_blk.png","../images/cyn_red.png","../images/blu_wht.png"],"mutagen_generator_assignment":[0,1],"goal":2,"start":0,"action_noise":0.15,"location_history":"[0,5,0,5,0,1,3,4,0,5,0,5,0,5,0,1,5,4,0,1,5,0,5,4,0,5,4,0,1,3,4,2]","action_history":"[1,1,0,1,0,1,1,0,0,0,0,1,0,1,0,1,0,0,1,1,1,0,0,0,1,1,0,1,0,0,1]","mutagen_history":"[1,1,0,1,0,1,1,0,0,0,0,1,0,1,0,1,0,0,1,1,1,0,0,0,1,1,0,1,0,0,1]","location_rts":"[2481,995,1633,656,619,1090,681,595,572,569,786,499,1271,481,418,871,649,723,2316,933,449,517,1282,582,1097,408,426,913,724,629,1093]","trial_type":"fractal-mutation","trial_index":99,"time_elapsed":1554548,"internal_node_id":"0.0-5.0-45.0"},{"group":"hexagon_tri","fractal_assignment":["../images/pnk_blu.png","../images/org_blu.png","../images/ylw_slt.png","../images/gry_blk.png","../images/cyn_red.png","../images/blu_wht.png"],"mutagen_generator_assignment":[0,1],"goal":4,"start":2,"action_noise":0.15,"location_history":"[2,3,4]","action_history":"[1,1]","mutagen_history":"[1,1]","location_rts":"[1746,406]","trial_type":"fractal-mutation","trial_index":100,"time_elapsed":1562227,"internal_node_id":"0.0-5.0-46.0"},{"group":"hexagon_tri","fractal_assignment":["../images/pnk_blu.png","../images/org_blu.png","../images/ylw_slt.png","../images/gry_blk.png","../images/cyn_red.png","../images/blu_wht.png"],"mutagen_generator_assignment":[0,1],"goal":1,"start":4,"action_noise":0.15,"location_history":"[4,0,1]","action_history":"[0,1]","mutagen_history":"[0,1]","location_rts":"[2416,584]","trial_type":"fractal-mutation","trial_index":101,"time_elapsed":1570769,"internal_node_id":"0.0-5.0-47.0"},{"group":"hexagon_tri","fractal_assignment":["../images/pnk_blu.png","../images/org_blu.png","../images/ylw_slt.png","../images/gry_blk.png","../images/cyn_red.png","../images/blu_wht.png"],"mutagen_generator_assignment":[0,1],"goal":5,"start":1,"action_noise":0.15,"location_history":"[1,5]","action_history":"[1]","mutagen_history":"[1]","location_rts":"[1235]","trial_type":"fractal-mutation","trial_index":102,"time_elapsed":1576531,"internal_node_id":"0.0-5.0-48.0"},{"group":"hexagon_tri","fractal_assignment":["../images/pnk_blu.png","../images/org_blu.png","../images/ylw_slt.png","../images/gry_blk.png","../images/cyn_red.png","../images/blu_wht.png"],"mutagen_generator_assignment":[0,1],"goal":3,"start":5,"action_noise":0.15,"location_history":"[5,0,5,4,0,5,0,1,3]","action_history":"[1,0,0,0,0,1,1,0]","mutagen_history":"[1,0,0,0,0,1,1,0]","location_rts":"[2167,434,836,656,474,429,759,723]","trial_type":"fractal-mutation","trial_index":103,"time_elapsed":1594679,"internal_node_id":"0.0-5.0-49.0"},{"view_history":"[{\"page_index\":0,\"viewing_time\":6713}]","rt":6713,"trial_type":"instructions","trial_index":104,"time_elapsed":1602392,"internal_node_id":"0.0-6.0"},{"rt":8038,"responses":"{\"Q0\":\"none fun survey\"}","trial_type":"survey-text","trial_index":105,"time_elapsed":1611435,"internal_node_id":"0.0-7.0"}]