[{"view_history":"[{\"page_index\":0,\"viewing_time\":6215},{\"page_index\":1,\"viewing_time\":722996}]","rt":729211,"trial_type":"instructions","trial_index":0,"time_elapsed":729212,"internal_node_id":"0.0-0.0"},{"view_history":"[{\"page_index\":0,\"viewing_time\":3164},{\"page_index\":1,\"viewing_time\":18168}]","rt":21334,"trial_type":"instructions","trial_index":1,"time_elapsed":751548,"internal_node_id":"0.0-1.0"},{"group":"hexagon_bi","room_assignment":["purple","blue","green","red","grey","yellow"],"door_color_assignment":["white","black"],"door_generator_assignment":[1,0],"goal":3,"start":5,"action_noise":0.15,"location_history":"[5,0,5,0,1,0,1,2,1,0,5,4,3]","action_history":"[0,0,0,1,1,1,0,1,1,0,1,0]","door_history":"[1,1,1,0,0,0,1,0,0,1,0,1]","location_rts":"[2091,921,1530,406,1137,1110,401,1109,2293,699,1020,1350]","trial_type":"two-door-navigation","trial_index":2,"time_elapsed":781407,"internal_node_id":"0.0-2.0-0.0"},{"group":"hexagon_bi","room_assignment":["purple","blue","green","red","grey","yellow"],"door_color_assignment":["white","black"],"door_generator_assignment":[1,0],"goal":1,"start":3,"action_noise":0.15,"location_history":"[3,4,5,0,1]","action_history":"[1,1,0,1]","door_history":"[0,0,1,0]","location_rts":"[3472,857,1066,626]","trial_type":"two-door-navigation","trial_index":3,"time_elapsed":795022,"internal_node_id":"0.0-2.0-1.0"},{"group":"hexagon_bi","room_assignment":["purple","blue","green","red","grey","yellow"],"door_color_assignment":["white","black"],"door_generator_assignment":[1,0],"goal":0,"start":1,"action_noise":0.15,"location_history":"[1,0]","action_history":"[1]","door_history":"[0]","location_rts":"[3870]","trial_type":"two-door-navigation","trial_index":4,"time_elapsed":803427,"internal_node_id":"0.0-2.0-2.0"},{"group":"hexagon_bi","room_assignment":["purple","blue","green","red","grey","yellow"],"door_color_assignment":["white","black"],"door_generator_assignment":[1,0],"goal":3,"start":0,"action_noise":0.15,"location_history":"[0,1,0,1,2,1,2,3]","action_history":"[1,1,1,0,0,0,1]","door_history":"[0,0,0,1,1,1,0]","location_rts":"[2775,857,835,291,1721,831,324]","trial_type":"two-door-navigation","trial_index":5,"time_elapsed":821748,"internal_node_id":"0.0-2.0-3.0"},{"group":"hexagon_bi","room_assignment":["purple","blue","green","red","grey","yellow"],"door_color_assignment":["white","black"],"door_generator_assignment":[1,0],"goal":4,"start":3,"action_noise":0.15,"location_history":"[3,4]","action_history":"[1]","door_history":"[0]","location_rts":"[2096]","trial_type":"two-door-navigation","trial_index":6,"time_elapsed":828378,"internal_node_id":"0.0-2.0-4.0"},{"group":"hexagon_bi","room_assignment":["purple","blue","green","red","grey","yellow"],"door_color_assignment":["white","black"],"door_generator_assignment":[1,0],"goal":2,"start":4,"action_noise":0.15,"location_history":"[4,3,2]","action_history":"[0,1]","door_history":"[1,0]","location_rts":"[3575,2720]","trial_type":"two-door-navigation","trial_index":7,"time_elapsed":840233,"internal_node_id":"0.0-2.0-5.0"},{"group":"hexagon_bi","room_assignment":["purple","blue","green","red","grey","yellow"],"door_color_assignment":["white","black"],"door_generator_assignment":[1,0],"goal":1,"start":2,"action_noise":0.15,"location_history":"[2,1]","action_history":"[1]","door_history":"[0]","location_rts":"[2284]","trial_type":"two-door-navigation","trial_index":8,"time_elapsed":847049,"internal_node_id":"0.0-2.0-6.0"},{"group":"hexagon_bi","room_assignment":["purple","blue","green","red","grey","yellow"],"door_color_assignment":["white","black"],"door_generator_assignment":[1,0],"goal":5,"start":1,"action_noise":0.15,"location_history":"[1,0,1,0,1,2,3,2,1,2,1,0,1,0,1,2,3,2,1,2,3,4,5]","action_history":"[1,1,0,1,0,1,1,0,1,0,0,1,1,1,0,1,0,0,0,1,1,1]","door_history":"[0,0,1,0,1,0,0,1,0,1,1,0,0,0,1,0,1,1,1,0,0,0]","location_rts":"[1990,1399,385,1174,1068,1899,2033,340,1545,1397,1230,459,748,492,1147,933,2407,963,672,771,623,2422]","trial_type":"two-door-navigation","trial_index":9,"time_elapsed":899195,"internal_node_id":"0.0-2.0-7.0"},{"group":"hexagon_bi","room_assignment":["purple","blue","green","red","grey","yellow"],"door_color_assignment":["white","black"],"door_generator_assignment":[1,0],"goal":4,"start":5,"action_noise":0.15,"location_history":"[5,4]","action_history":"[1]","door_history":"[0]","location_rts":"[2767]","trial_type":"two-door-navigation","trial_index":10,"time_elapsed":906492,"internal_node_id":"0.0-2.0-8.0"},{"group":"hexagon_bi","room_assignment":["purple","blue","green","red","grey","yellow"],"door_color_assignment":["white","black"],"door_generator_assignment":[1,0],"goal":2,"start":4,"action_noise":0.15,"location_history":"[4,5,4,5,0,5,4,5,0,1,0,5,0,5,0,1,0,1,2]","action_history":"[0,0,1,1,0,1,1,0,1,0,0,1,1,0,1,1,1,0]","door_history":"[1,1,0,0,1,0,0,1,0,1,1,0,0,1,0,0,0,1]","location_rts":"[2631,1326,784,1196,1905,1457,602,982,1729,1314,1226,677,698,2231,543,917,1032,1335]","trial_type":"two-door-navigation","trial_index":11,"time_elapsed":951025,"internal_node_id":"0.0-2.0-9.0"},{"group":"hexagon_bi","room_assignment":["purple","blue","green","red","grey","yellow"],"door_color_assignment":["white","black"],"door_generator_assignment":[1,0],"goal":0,"start":2,"action_noise":0.15,"location_history":"[2,1,2,1,2,1,0]","action_history":"[0,1,0,0,0,1]","door_history":"[1,0,1,1,1,0]","location_rts":"[3392,1681,1836,332,889,792]","trial_type":"two-door-navigation","trial_index":12,"time_elapsed":969593,"internal_node_id":"0.0-2.0-10.0"},{"group":"hexagon_bi","room_assignment":["purple","blue","green","red","grey","yellow"],"door_color_assignment":["white","black"],"door_generator_assignment":[1,0],"goal":1,"start":0,"action_noise":0.15,"location_history":"[0,1]","action_history":"[1]","door_history":"[0]","location_rts":"[1870]","trial_type":"two-door-navigation","trial_index":13,"time_elapsed":975993,"internal_node_id":"0.0-2.0-11.0"},{"group":"hexagon_bi","room_assignment":["purple","blue","green","red","grey","yellow"],"door_color_assignment":["white","black"],"door_generator_assignment":[1,0],"goal":3,"start":1,"action_noise":0.15,"location_history":"[1,0,5,4,3]","action_history":"[1,0,1,0]","door_history":"[0,1,0,1]","location_rts":"[2192,1123,3543,629]","trial_type":"two-door-navigation","trial_index":14,"time_elapsed":991084,"internal_node_id":"0.0-2.0-12.0"},{"group":"hexagon_bi","room_assignment":["purple","blue","green","red","grey","yellow"],"door_color_assignment":["white","black"],"door_generator_assignment":[1,0],"goal":5,"start":3,"action_noise":0.15,"location_history":"[3,4,5]","action_history":"[0,1]","door_history":"[1,0]","location_rts":"[2703,532]","trial_type":"two-door-navigation","trial_index":15,"time_elapsed":999870,"internal_node_id":"0.0-2.0-13.0"},{"group":"hexagon_bi","room_assignment":["purple","blue","green","red","grey","yellow"],"door_color_assignment":["white","black"],"door_generator_assignment":[1,0],"goal":4,"start":5,"action_noise":0.15,"location_history":"[5,4]","action_history":"[1]","door_history":"[0]","location_rts":"[2226]","trial_type":"two-door-navigation","trial_index":16,"time_elapsed":1006620,"internal_node_id":"0.0-2.0-14.0"},{"group":"hexagon_bi","room_assignment":["purple","blue","green","red","grey","yellow"],"door_color_assignment":["white","black"],"door_generator_assignment":[1,0],"goal":0,"start":4,"action_noise":0.15,"location_history":"[4,5,0]","action_history":"[1,0]","door_history":"[0,1]","location_rts":"[2532,2511]","trial_type":"two-door-navigation","trial_index":17,"time_elapsed":1017223,"internal_node_id":"0.0-2.0-15.0"},{"group":"hexagon_bi","room_assignment":["purple","blue","green","red","grey","yellow"],"door_color_assignment":["white","black"],"door_generator_assignment":[1,0],"goal":3,"start":0,"action_noise":0.15,"location_history":"[0,5,0,5,4,3]","action_history":"[1,1,1,1,0]","door_history":"[0,0,0,0,1]","location_rts":"[2411,819,1179,997,772]","trial_type":"two-door-navigation","trial_index":18,"time_elapsed":1032010,"internal_node_id":"0.0-2.0-16.0"},{"group":"hexagon_bi","room_assignment":["purple","blue","green","red","grey","yellow"],"door_color_assignment":["white","black"],"door_generator_assignment":[1,0],"goal":1,"start":3,"action_noise":0.15,"location_history":"[3,2,1]","action_history":"[1,0]","door_history":"[0,1]","location_rts":"[3660,1576]","trial_type":"two-door-navigation","trial_index":19,"time_elapsed":1042801,"internal_node_id":"0.0-2.0-17.0"},{"group":"hexagon_bi","room_assignment":["purple","blue","green","red","grey","yellow"],"door_color_assignment":["white","black"],"door_generator_assignment":[1,0],"goal":5,"start":1,"action_noise":0.15,"location_history":"[1,2,3,2,3,4,5]","action_history":"[0,1,1,1,0,1]","door_history":"[1,0,0,0,1,0]","location_rts":"[2069,775,1258,1820,625,1576]","trial_type":"two-door-navigation","trial_index":20,"time_elapsed":1060573,"internal_node_id":"0.0-2.0-18.0"},{"group":"hexagon_bi","room_assignment":["purple","blue","green","red","grey","yellow"],"door_color_assignment":["white","black"],"door_generator_assignment":[1,0],"goal":2,"start":5,"action_noise":0.15,"location_history":"[5,0,1,2]","action_history":"[0,1,0]","door_history":"[1,0,1]","location_rts":"[2644,776,1372]","trial_type":"two-door-navigation","trial_index":21,"time_elapsed":1071926,"internal_node_id":"0.0-2.0-19.0"},{"group":"hexagon_bi","room_assignment":["purple","blue","green","red","grey","yellow"],"door_color_assignment":["white","black"],"door_generator_assignment":[1,0],"goal":4,"start":2,"action_noise":0.15,"location_history":"[2,1,0,1,0,5,4]","action_history":"[0,1,1,1,0,1]","door_history":"[1,0,0,0,1,0]","location_rts":"[3296,1001,783,1369,541,1094]","trial_type":"two-door-navigation","trial_index":22,"time_elapsed":1089660,"internal_node_id":"0.0-2.0-20.0"},{"group":"hexagon_bi","room_assignment":["purple","blue","green","red","grey","yellow"],"door_color_assignment":["white","black"],"door_generator_assignment":[1,0],"goal":1,"start":4,"action_noise":0.15,"location_history":"[4,5,4,5,4,3,2,1]","action_history":"[0,0,1,1,0,1,0]","door_history":"[1,1,0,0,1,0,1]","location_rts":"[3803,1608,1003,1283,1639,1717,1260]","trial_type":"two-door-navigation","trial_index":23,"time_elapsed":1112649,"internal_node_id":"0.0-2.0-21.0"},{"group":"hexagon_bi","room_assignment":["purple","blue","green","red","grey","yellow"],"door_color_assignment":["white","black"],"door_generator_assignment":[1,0],"goal":3,"start":1,"action_noise":0.15,"location_history":"[1,2,3]","action_history":"[0,1]","door_history":"[1,0]","location_rts":"[2552,525]","trial_type":"two-door-navigation","trial_index":24,"time_elapsed":1121273,"internal_node_id":"0.0-2.0-22.0"},{"group":"hexagon_bi","room_assignment":["purple","blue","green","red","grey","yellow"],"door_color_assignment":["white","black"],"door_generator_assignment":[1,0],"goal":2,"start":3,"action_noise":0.15,"location_history":"[3,2]","action_history":"[1]","door_history":"[0]","location_rts":"[3323]","trial_type":"two-door-navigation","trial_index":25,"time_elapsed":1129126,"internal_node_id":"0.0-2.0-23.0"},{"group":"hexagon_bi","room_assignment":["purple","blue","green","red","grey","yellow"],"door_color_assignment":["white","black"],"door_generator_assignment":[1,0],"goal":0,"start":2,"action_noise":0.15,"location_history":"[2,1,0]","action_history":"[0,1]","door_history":"[1,0]","location_rts":"[3157,2132]","trial_type":"two-door-navigation","trial_index":26,"time_elapsed":1139967,"internal_node_id":"0.0-2.0-24.0"},{"group":"hexagon_bi","room_assignment":["purple","blue","green","red","grey","yellow"],"door_color_assignment":["white","black"],"door_generator_assignment":[1,0],"goal":5,"start":0,"action_noise":0.15,"location_history":"[0,5]","action_history":"[0]","door_history":"[1]","location_rts":"[2358]","trial_type":"two-door-navigation","trial_index":27,"time_elapsed":1146847,"internal_node_id":"0.0-2.0-25.0"},{"group":"hexagon_bi","room_assignment":["purple","blue","green","red","grey","yellow"],"door_color_assignment":["white","black"],"door_generator_assignment":[1,0],"goal":2,"start":5,"action_noise":0.15,"location_history":"[5,0,1,0,5,4,3,4,3,2]","action_history":"[0,1,0,0,1,0,0,0,1]","door_history":"[1,0,1,1,0,1,1,1,0]","location_rts":"[2078,1422,2555,2168,1267,793,1184,1482,664]","trial_type":"two-door-navigation","trial_index":28,"time_elapsed":1173156,"internal_node_id":"0.0-2.0-26.0"},{"group":"hexagon_bi","room_assignment":["purple","blue","green","red","grey","yellow"],"door_color_assignment":["white","black"],"door_generator_assignment":[1,0],"goal":3,"start":2,"action_noise":0.15,"location_history":"[2,3]","action_history":"[1]","door_history":"[0]","location_rts":"[2135]","trial_type":"two-door-navigation","trial_index":29,"time_elapsed":1179828,"internal_node_id":"0.0-2.0-27.0"},{"group":"hexagon_bi","room_assignment":["purple","blue","green","red","grey","yellow"],"door_color_assignment":["white","black"],"door_generator_assignment":[1,0],"goal":0,"start":3,"action_noise":0.15,"location_history":"[3,4,3,2,1,0]","action_history":"[0,0,1,0,1]","door_history":"[1,1,0,1,0]","location_rts":"[3915,1250,999,1280,2039]","trial_type":"two-door-navigation","trial_index":30,"time_elapsed":1197940,"internal_node_id":"0.0-2.0-28.0"},{"group":"hexagon_bi","room_assignment":["purple","blue","green","red","grey","yellow"],"door_color_assignment":["white","black"],"door_generator_assignment":[1,0],"goal":1,"start":0,"action_noise":0.15,"location_history":"[0,1]","action_history":"[1]","door_history":"[0]","location_rts":"[2329]","trial_type":"two-door-navigation","trial_index":31,"time_elapsed":1204799,"internal_node_id":"0.0-2.0-29.0"},{"group":"hexagon_bi","room_assignment":["purple","blue","green","red","grey","yellow"],"door_color_assignment":["white","black"],"door_generator_assignment":[1,0],"goal":4,"start":1,"action_noise":0.15,"location_history":"[1,0,5,4]","action_history":"[1,0,1]","door_history":"[0,1,0]","location_rts":"[1987,655,1268]","trial_type":"two-door-navigation","trial_index":32,"time_elapsed":1215283,"internal_node_id":"0.0-2.0-30.0"},{"group":"hexagon_bi","room_assignment":["purple","blue","green","red","grey","yellow"],"door_color_assignment":["white","black"],"door_generator_assignment":[1,0],"goal":5,"start":4,"action_noise":0.15,"location_history":"[4,5]","action_history":"[1]","door_history":"[0]","location_rts":"[1796]","trial_type":"two-door-navigation","trial_index":33,"time_elapsed":1221608,"internal_node_id":"0.0-2.0-31.0"},{"group":"hexagon_bi","room_assignment":["purple","blue","green","red","grey","yellow"],"door_color_assignment":["white","black"],"door_generator_assignment":[1,0],"goal":0,"start":5,"action_noise":0.15,"location_history":"[5,4,3,2,1,0]","action_history":"[1,0,1,0,1]","door_history":"[0,1,0,1,0]","location_rts":"[6181,788,1818,1217,650]","trial_type":"two-door-navigation","trial_index":34,"time_elapsed":1240885,"internal_node_id":"0.0-2.0-32.0"},{"group":"hexagon_bi","room_assignment":["purple","blue","green","red","grey","yellow"],"door_color_assignment":["white","black"],"door_generator_assignment":[1,0],"goal":3,"start":0,"action_noise":0.15,"location_history":"[0,1,0,5,0,1,0,1,0,1,2,3]","action_history":"[0,1,0,0,1,0,1,1,1,0,1]","door_history":"[1,0,1,1,0,1,0,0,0,1,0]","location_rts":"[2479,771,904,1476,1446,1855,2049,835,1245,688,1968]","trial_type":"two-door-navigation","trial_index":35,"time_elapsed":1271389,"internal_node_id":"0.0-2.0-33.0"},{"group":"hexagon_bi","room_assignment":["purple","blue","green","red","grey","yellow"],"door_color_assignment":["white","black"],"door_generator_assignment":[1,0],"goal":1,"start":3,"action_noise":0.15,"location_history":"[3,4,3,2,1]","action_history":"[0,0,1,0]","door_history":"[1,1,0,1]","location_rts":"[10265,1210,439,1055]","trial_type":"two-door-navigation","trial_index":36,"time_elapsed":1291951,"internal_node_id":"0.0-2.0-34.0"},{"group":"hexagon_bi","room_assignment":["purple","blue","green","red","grey","yellow"],"door_color_assignment":["white","black"],"door_generator_assignment":[1,0],"goal":2,"start":1,"action_noise":0.15,"location_history":"[1,2]","action_history":"[0]","door_history":"[1]","location_rts":"[7966]","trial_type":"two-door-navigation","trial_index":37,"time_elapsed":1304446,"internal_node_id":"0.0-2.0-35.0"},{"group":"hexagon_bi","room_assignment":["purple","blue","green","red","grey","yellow"],"door_color_assignment":["white","black"],"door_generator_assignment":[1,0],"goal":4,"start":2,"action_noise":0.15,"location_history":"[2,1,2,1,0,5,4]","action_history":"[1,1,0,1,0,1]","door_history":"[0,0,1,0,1,0]","location_rts":"[2701,870,1069,825,1335,849]","trial_type":"two-door-navigation","trial_index":38,"time_elapsed":1321728,"internal_node_id":"0.0-2.0-36.0"},{"group":"hexagon_bi","room_assignment":["purple","blue","green","red","grey","yellow"],"door_color_assignment":["white","black"],"door_generator_assignment":[1,0],"goal":5,"start":4,"action_noise":0.15,"location_history":"[4,5]","action_history":"[1]","door_history":"[0]","location_rts":"[7773]","trial_type":"two-door-navigation","trial_index":39,"time_elapsed":1334028,"internal_node_id":"0.0-2.0-37.0"},{"group":"hexagon_bi","room_assignment":["purple","blue","green","red","grey","yellow"],"door_color_assignment":["white","black"],"door_generator_assignment":[1,0],"goal":1,"start":5,"action_noise":0.15,"location_history":"[5,0,1]","action_history":"[0,1]","door_history":"[1,0]","location_rts":"[2606,770]","trial_type":"two-door-navigation","trial_index":40,"time_elapsed":1342959,"internal_node_id":"0.0-2.0-38.0"},{"group":"hexagon_bi","room_assignment":["purple","blue","green","red","grey","yellow"],"door_color_assignment":["white","black"],"door_generator_assignment":[1,0],"goal":4,"start":1,"action_noise":0.15,"location_history":"[1,0,1,0,5,4]","action_history":"[0,1,0,0,1]","door_history":"[1,0,1,1,0]","location_rts":"[2155,1658,1262,470,564]","trial_type":"two-door-navigation","trial_index":41,"time_elapsed":1357677,"internal_node_id":"0.0-2.0-39.0"},{"group":"hexagon_bi","room_assignment":["purple","blue","green","red","grey","yellow"],"door_color_assignment":["white","black"],"door_generator_assignment":[1,0],"goal":3,"start":4,"action_noise":0.15,"location_history":"[4,3]","action_history":"[0]","door_history":"[1]","location_rts":"[5893]","trial_type":"two-door-navigation","trial_index":42,"time_elapsed":1368095,"internal_node_id":"0.0-2.0-40.0"},{"group":"hexagon_bi","room_assignment":["purple","blue","green","red","grey","yellow"],"door_color_assignment":["white","black"],"door_generator_assignment":[1,0],"goal":2,"start":3,"action_noise":0.15,"location_history":"[3,4,3,4,3,4,3,2]","action_history":"[0,0,1,1,0,0,1]","door_history":"[1,1,0,0,1,1,0]","location_rts":"[1424,582,528,1240,780,983,1007]","trial_type":"two-door-navigation","trial_index":43,"time_elapsed":1385286,"internal_node_id":"0.0-2.0-41.0"},{"group":"hexagon_bi","room_assignment":["purple","blue","green","red","grey","yellow"],"door_color_assignment":["white","black"],"door_generator_assignment":[1,0],"goal":0,"start":2,"action_noise":0.15,"location_history":"[2,1,0]","action_history":"[0,1]","door_history":"[1,0]","location_rts":"[1976,1541]","trial_type":"two-door-navigation","trial_index":44,"time_elapsed":1394365,"internal_node_id":"0.0-2.0-42.0"},{"group":"hexagon_bi","room_assignment":["purple","blue","green","red","grey","yellow"],"door_color_assignment":["white","black"],"door_generator_assignment":[1,0],"goal":5,"start":0,"action_noise":0.15,"location_history":"[0,5]","action_history":"[0]","door_history":"[1]","location_rts":"[2218]","trial_type":"two-door-navigation","trial_index":45,"time_elapsed":1401110,"internal_node_id":"0.0-2.0-43.0"},{"group":"hexagon_bi","room_assignment":["purple","blue","green","red","grey","yellow"],"door_color_assignment":["white","black"],"door_generator_assignment":[1,0],"goal":0,"start":5,"action_noise":0.15,"location_history":"[5,0]","action_history":"[0]","door_history":"[1]","location_rts":"[4215]","trial_type":"two-door-navigation","trial_index":46,"time_elapsed":1409851,"internal_node_id":"0.0-2.0-44.0"},{"group":"hexagon_bi","room_assignment":["purple","blue","green","red","grey","yellow"],"door_color_assignment":["white","black"],"door_generator_assignment":[1,0],"goal":2,"start":0,"action_noise":0.15,"location_history":"[0,1,2]","action_history":"[1,0]","door_history":"[0,1]","location_rts":"[3697,1533]","trial_type":"two-door-navigation","trial_index":47,"time_elapsed":1420621,"internal_node_id":"0.0-2.0-45.0"},{"group":"hexagon_bi","room_assignment":["purple","blue","green","red","grey","yellow"],"door_color_assignment":["white","black"],"door_generator_assignment":[1,0],"goal":4,"start":2,"action_noise":0.15,"location_history":"[2,3,4]","action_history":"[1,0]","door_history":"[0,1]","location_rts":"[2444,2911]","trial_type":"two-door-navigation","trial_index":48,"time_elapsed":1431530,"internal_node_id":"0.0-2.0-46.0"},{"group":"hexagon_bi","room_assignment":["purple","blue","green","red","grey","yellow"],"door_color_assignment":["white","black"],"door_generator_assignment":[1,0],"goal":1,"start":4,"action_noise":0.15,"location_history":"[4,3,4,3,2,1]","action_history":"[0,0,0,1,0]","door_history":"[1,1,1,0,1]","location_rts":"[43714,1464,1496,343,2154]","trial_type":"two-door-navigation","trial_index":49,"time_elapsed":1489320,"internal_node_id":"0.0-2.0-47.0"},{"group":"hexagon_bi","room_assignment":["purple","blue","green","red","grey","yellow"],"door_color_assignment":["white","black"],"door_generator_assignment":[1,0],"goal":5,"start":1,"action_noise":0.15,"location_history":"[1,0,5]","action_history":"[0,0]","door_history":"[1,1]","location_rts":"[2222,1327]","trial_type":"two-door-navigation","trial_index":50,"time_elapsed":1498423,"internal_node_id":"0.0-2.0-48.0"},{"group":"hexagon_bi","room_assignment":["purple","blue","green","red","grey","yellow"],"door_color_assignment":["white","black"],"door_generator_assignment":[1,0],"goal":3,"start":5,"action_noise":0.15,"location_history":"[5,4,3]","action_history":"[1,0]","door_history":"[0,1]","location_rts":"[2475,1243]","trial_type":"two-door-navigation","trial_index":51,"time_elapsed":1507695,"internal_node_id":"0.0-2.0-49.0"},{"view_history":"[{\"page_index\":0,\"viewing_time\":122192}]","rt":122193,"trial_type":"instructions","trial_index":52,"time_elapsed":1630888,"internal_node_id":"0.0-3.0"},{"view_history":"[{\"page_index\":0,\"viewing_time\":3826},{\"page_index\":1,\"viewing_time\":16804}]","rt":20631,"trial_type":"instructions","trial_index":53,"time_elapsed":1652520,"internal_node_id":"0.0-4.0"},{"group":"hexagon_tri","fractal_assignment":["../images/gry_blk.png","../images/blu_wht.png","../images/cyn_red.png","../images/org_blu.png","../images/pnk_blu.png","../images/ylw_slt.png"],"mutagen_generator_assignment":[0,1],"goal":3,"start":5,"action_noise":0.15,"location_history":"[5,4,0,1,5,4,0,1,3]","action_history":"[0,0,1,1,1,0,1,0]","mutagen_history":"[0,0,1,1,1,0,1,0]","location_rts":"[11695,1162,817,767,567,744,963,366]","trial_type":"fractal-mutation","trial_index":54,"time_elapsed":1681526,"internal_node_id":"0.0-5.0-0.0"},{"group":"hexagon_tri","fractal_assignment":["../images/gry_blk.png","../images/blu_wht.png","../images/cyn_red.png","../images/org_blu.png","../images/pnk_blu.png","../images/ylw_slt.png"],"mutagen_generator_assignment":[0,1],"goal":1,"start":3,"action_noise":0.15,"location_history":"[3,2,1]","action_history":"[0,0]","mutagen_history":"[0,0]","location_rts":"[3509,585]","trial_type":"fractal-mutation","trial_index":55,"time_elapsed":1691225,"internal_node_id":"0.0-5.0-1.0"},{"group":"hexagon_tri","fractal_assignment":["../images/gry_blk.png","../images/blu_wht.png","../images/cyn_red.png","../images/org_blu.png","../images/pnk_blu.png","../images/ylw_slt.png"],"mutagen_generator_assignment":[0,1],"goal":0,"start":1,"action_noise":0.15,"location_history":"[1,5,0]","action_history":"[1,1]","mutagen_history":"[1,1]","location_rts":"[2201,750]","trial_type":"fractal-mutation","trial_index":56,"time_elapsed":1699791,"internal_node_id":"0.0-5.0-2.0"},{"group":"hexagon_tri","fractal_assignment":["../images/gry_blk.png","../images/blu_wht.png","../images/cyn_red.png","../images/org_blu.png","../images/pnk_blu.png","../images/ylw_slt.png"],"mutagen_generator_assignment":[0,1],"goal":3,"start":0,"action_noise":0.15,"location_history":"[0,1,3]","action_history":"[1,0]","mutagen_history":"[1,0]","location_rts":"[6019,458]","trial_type":"fractal-mutation","trial_index":57,"time_elapsed":1711875,"internal_node_id":"0.0-5.0-3.0"},{"group":"hexagon_tri","fractal_assignment":["../images/gry_blk.png","../images/blu_wht.png","../images/cyn_red.png","../images/org_blu.png","../images/pnk_blu.png","../images/ylw_slt.png"],"mutagen_generator_assignment":[0,1],"goal":4,"start":3,"action_noise":0.15,"location_history":"[3,2,3,4]","action_history":"[0,1,1]","mutagen_history":"[0,1,1]","location_rts":"[1651,1146,1051]","trial_type":"fractal-mutation","trial_index":58,"time_elapsed":1722405,"internal_node_id":"0.0-5.0-4.0"},{"group":"hexagon_tri","fractal_assignment":["../images/gry_blk.png","../images/blu_wht.png","../images/cyn_red.png","../images/org_blu.png","../images/pnk_blu.png","../images/ylw_slt.png"],"mutagen_generator_assignment":[0,1],"goal":2,"start":4,"action_noise":0.15,"location_history":"[4,2]","action_history":"[1]","mutagen_history":"[1]","location_rts":"[2345]","trial_type":"fractal-mutation","trial_index":59,"time_elapsed":1729306,"internal_node_id":"0.0-5.0-5.0"},{"group":"hexagon_tri","fractal_assignment":["../images/gry_blk.png","../images/blu_wht.png","../images/cyn_red.png","../images/org_blu.png","../images/pnk_blu.png","../images/ylw_slt.png"],"mutagen_generator_assignment":[0,1],"goal":1,"start":2,"action_noise":0.15,"location_history":"[2,1]","action_history":"[1]","mutagen_history":"[1]","location_rts":"[2145]","trial_type":"fractal-mutation","trial_index":60,"time_elapsed":1736011,"internal_node_id":"0.0-5.0-6.0"},{"group":"hexagon_tri","fractal_assignment":["../images/gry_blk.png","../images/blu_wht.png","../images/cyn_red.png","../images/org_blu.png","../images/pnk_blu.png","../images/ylw_slt.png"],"mutagen_generator_assignment":[0,1],"goal":5,"start":1,"action_noise":0.15,"location_history":"[1,3,2,3,4,2,1,5]","action_history":"[0,0,0,1,1,0,1]","mutagen_history":"[0,0,0,1,1,0,1]","location_rts":"[1980,1129,782,599,971,977,1061]","trial_type":"fractal-mutation","trial_index":61,"time_elapsed":1754301,"internal_node_id":"0.0-5.0-7.0"},{"group":"hexagon_tri","fractal_assignment":["../images/gry_blk.png","../images/blu_wht.png","../images/cyn_red.png","../images/org_blu.png","../images/pnk_blu.png","../images/ylw_slt.png"],"mutagen_generator_assignment":[0,1],"goal":4,"start":5,"action_noise":0.15,"location_history":"[5,0,1,3,2,3,2,3,4]","action_history":"[0,1,0,0,1,0,1,1]","mutagen_history":"[0,1,0,0,1,0,1,1]","location_rts":"[3182,1499,853,1135,720,529,683,619]","trial_type":"fractal-mutation","trial_index":62,"time_elapsed":1775403,"internal_node_id":"0.0-5.0-8.0"},{"group":"hexagon_tri","fractal_assignment":["../images/gry_blk.png","../images/blu_wht.png","../images/cyn_red.png","../images/org_blu.png","../images/pnk_blu.png","../images/ylw_slt.png"],"mutagen_generator_assignment":[0,1],"goal":2,"start":4,"action_noise":0.15,"location_history":"[4,2]","action_history":"[1]","mutagen_history":"[1]","location_rts":"[3684]","trial_type":"fractal-mutation","trial_index":63,"time_elapsed":1783643,"internal_node_id":"0.0-5.0-9.0"},{"group":"hexagon_tri","fractal_assignment":["../images/gry_blk.png","../images/blu_wht.png","../images/cyn_red.png","../images/org_blu.png","../images/pnk_blu.png","../images/ylw_slt.png"],"mutagen_generator_assignment":[0,1],"goal":0,"start":2,"action_noise":0.15,"location_history":"[2,3,2,3,4,0]","action_history":"[1,0,1,1,0]","mutagen_history":"[1,0,1,1,0]","location_rts":"[2096,488,628,312,594]","trial_type":"fractal-mutation","trial_index":64,"time_elapsed":1796517,"internal_node_id":"0.0-5.0-10.0"},{"group":"hexagon_tri","fractal_assignment":["../images/gry_blk.png","../images/blu_wht.png","../images/cyn_red.png","../images/org_blu.png","../images/pnk_blu.png","../images/ylw_slt.png"],"mutagen_generator_assignment":[0,1],"goal":1,"start":0,"action_noise":0.15,"location_history":"[0,1]","action_history":"[1]","mutagen_history":"[1]","location_rts":"[2864]","trial_type":"fractal-mutation","trial_index":65,"time_elapsed":1803935,"internal_node_id":"0.0-5.0-11.0"},{"group":"hexagon_tri","fractal_assignment":["../images/gry_blk.png","../images/blu_wht.png","../images/cyn_red.png","../images/org_blu.png","../images/pnk_blu.png","../images/ylw_slt.png"],"mutagen_generator_assignment":[0,1],"goal":3,"start":1,"action_noise":0.15,"location_history":"[1,3]","action_history":"[0]","mutagen_history":"[0]","location_rts":"[2195]","trial_type":"fractal-mutation","trial_index":66,"time_elapsed":1810669,"internal_node_id":"0.0-5.0-12.0"},{"group":"hexagon_tri","fractal_assignment":["../images/gry_blk.png","../images/blu_wht.png","../images/cyn_red.png","../images/org_blu.png","../images/pnk_blu.png","../images/ylw_slt.png"],"mutagen_generator_assignment":[0,1],"goal":5,"start":3,"action_noise":0.15,"location_history":"[3,2,3,4,2,3,2,1,3,2,3,4,2,3,2,3,2,1,3,2,1,5]","action_history":"[0,1,1,1,0,0,0,1,0,1,1,1,1,0,1,0,0,0,0,0,1]","mutagen_history":"[0,1,1,1,0,0,0,1,0,1,1,1,1,0,1,0,0,0,0,0,1]","location_rts":"[5111,1629,1190,843,505,495,593,1338,4640,419,403,878,592,579,689,951,800,2193,839,486,721]","trial_type":"fractal-mutation","trial_index":67,"time_elapsed":1862038,"internal_node_id":"0.0-5.0-13.0"},{"group":"hexagon_tri","fractal_assignment":["../images/gry_blk.png","../images/blu_wht.png","../images/cyn_red.png","../images/org_blu.png","../images/pnk_blu.png","../images/ylw_slt.png"],"mutagen_generator_assignment":[0,1],"goal":4,"start":5,"action_noise":0.15,"location_history":"[5,4]","action_history":"[0]","mutagen_history":"[0]","location_rts":"[2443]","trial_type":"fractal-mutation","trial_index":68,"time_elapsed":1869029,"internal_node_id":"0.0-5.0-14.0"},{"group":"hexagon_tri","fractal_assignment":["../images/gry_blk.png","../images/blu_wht.png","../images/cyn_red.png","../images/org_blu.png","../images/pnk_blu.png","../images/ylw_slt.png"],"mutagen_generator_assignment":[0,1],"goal":0,"start":4,"action_noise":0.15,"location_history":"[4,2,1,5,4,0]","action_history":"[1,0,1,0,0]","mutagen_history":"[1,0,1,0,0]","location_rts":"[1552,460,738,347,736]","trial_type":"fractal-mutation","trial_index":69,"time_elapsed":1881598,"internal_node_id":"0.0-5.0-15.0"},{"group":"hexagon_tri","fractal_assignment":["../images/gry_blk.png","../images/blu_wht.png","../images/cyn_red.png","../images/org_blu.png","../images/pnk_blu.png","../images/ylw_slt.png"],"mutagen_generator_assignment":[0,1],"goal":3,"start":0,"action_noise":0.15,"location_history":"[0,5,0,1,3]","action_history":"[1,1,0,0]","mutagen_history":"[1,1,0,0]","location_rts":"[3825,1065,503,1208]","trial_type":"fractal-mutation","trial_index":70,"time_elapsed":1895885,"internal_node_id":"0.0-5.0-16.0"},{"group":"hexagon_tri","fractal_assignment":["../images/gry_blk.png","../images/blu_wht.png","../images/cyn_red.png","../images/org_blu.png","../images/pnk_blu.png","../images/ylw_slt.png"],"mutagen_generator_assignment":[0,1],"goal":1,"start":3,"action_noise":0.15,"location_history":"[3,2,1]","action_history":"[1,0]","mutagen_history":"[1,0]","location_rts":"[2320,481]","trial_type":"fractal-mutation","trial_index":71,"time_elapsed":1904288,"internal_node_id":"0.0-5.0-17.0"},{"group":"hexagon_tri","fractal_assignment":["../images/gry_blk.png","../images/blu_wht.png","../images/cyn_red.png","../images/org_blu.png","../images/pnk_blu.png","../images/ylw_slt.png"],"mutagen_generator_assignment":[0,1],"goal":5,"start":1,"action_noise":0.15,"location_history":"[1,3,2,1,5]","action_history":"[1,0,0,1]","mutagen_history":"[1,0,0,1]","location_rts":"[2966,1911,875,1643]","trial_type":"fractal-mutation","trial_index":72,"time_elapsed":1919353,"internal_node_id":"0.0-5.0-18.0"},{"group":"hexagon_tri","fractal_assignment":["../images/gry_blk.png","../images/blu_wht.png","../images/cyn_red.png","../images/org_blu.png","../images/pnk_blu.png","../images/ylw_slt.png"],"mutagen_generator_assignment":[0,1],"goal":2,"start":5,"action_noise":0.15,"location_history":"[5,4,0,5,0,5,4,2]","action_history":"[0,0,0,1,1,0,1]","mutagen_history":"[0,0,0,1,1,0,1]","location_rts":"[4101,745,827,614,434,463,1373]","trial_type":"fractal-mutation","trial_index":73,"time_elapsed":1938667,"internal_node_id":"0.0-5.0-19.0"},{"group":"hexagon_tri","fractal_assignment":["../images/gry_blk.png","../images/blu_wht.png","../images/cyn_red.png","../images/org_blu.png","../images/pnk_blu.png","../images/ylw_slt.png"],"mutagen_generator_assignment":[0,1],"goal":4,"start":2,"action_noise":0.15,"location_history":"[2,3,2,3,4]","action_history":"[1,0,1,1]","mutagen_history":"[1,0,1,1]","location_rts":"[16777,1064,702,350]","trial_type":"fractal-mutation","trial_index":74,"time_elapsed":1965279,"internal_node_id":"0.0-5.0-20.0"},{"group":"hexagon_tri","fractal_assignment":["../images/gry_blk.png","../images/blu_wht.png","../images/cyn_red.png","../images/org_blu.png","../images/pnk_blu.png","../images/ylw_slt.png"],"mutagen_generator_assignment":[0,1],"goal":1,"start":4,"action_noise":0.15,"location_history":"[4,0,1]","action_history":"[0,1]","mutagen_history":"[0,1]","location_rts":"[2745,2289]","trial_type":"fractal-mutation","trial_index":75,"time_elapsed":1975933,"internal_node_id":"0.0-5.0-21.0"},{"group":"hexagon_tri","fractal_assignment":["../images/gry_blk.png","../images/blu_wht.png","../images/cyn_red.png","../images/org_blu.png","../images/pnk_blu.png","../images/ylw_slt.png"],"mutagen_generator_assignment":[0,1],"goal":3,"start":1,"action_noise":0.15,"location_history":"[1,3]","action_history":"[0]","mutagen_history":"[0]","location_rts":"[1584]","trial_type":"fractal-mutation","trial_index":76,"time_elapsed":1982063,"internal_node_id":"0.0-5.0-22.0"},{"group":"hexagon_tri","fractal_assignment":["../images/gry_blk.png","../images/blu_wht.png","../images/cyn_red.png","../images/org_blu.png","../images/pnk_blu.png","../images/ylw_slt.png"],"mutagen_generator_assignment":[0,1],"goal":2,"start":3,"action_noise":0.15,"location_history":"[3,2]","action_history":"[1]","mutagen_history":"[1]","location_rts":"[3895]","trial_type":"fractal-mutation","trial_index":77,"time_elapsed":1990524,"internal_node_id":"0.0-5.0-23.0"},{"group":"hexagon_tri","fractal_assignment":["../images/gry_blk.png","../images/blu_wht.png","../images/cyn_red.png","../images/org_blu.png","../images/pnk_blu.png","../images/ylw_slt.png"],"mutagen_generator_assignment":[0,1],"goal":0,"start":2,"action_noise":0.15,"location_history":"[2,3,4,2,3,2,1,3,4,0]","action_history":"[0,1,1,1,0,0,0,1,0]","mutagen_history":"[0,1,1,1,0,0,0,1,0]","location_rts":"[1616,452,655,527,662,455,1171,647,497]","trial_type":"fractal-mutation","trial_index":78,"time_elapsed":2010108,"internal_node_id":"0.0-5.0-24.0"},{"group":"hexagon_tri","fractal_assignment":["../images/gry_blk.png","../images/blu_wht.png","../images/cyn_red.png","../images/org_blu.png","../images/pnk_blu.png","../images/ylw_slt.png"],"mutagen_generator_assignment":[0,1],"goal":5,"start":0,"action_noise":0.15,"location_history":"[0,1,5]","action_history":"[1,1]","mutagen_history":"[1,1]","location_rts":"[8509,485]","trial_type":"fractal-mutation","trial_index":79,"time_elapsed":2024700,"internal_node_id":"0.0-5.0-25.0"},{"group":"hexagon_tri","fractal_assignment":["../images/gry_blk.png","../images/blu_wht.png","../images/cyn_red.png","../images/org_blu.png","../images/pnk_blu.png","../images/ylw_slt.png"],"mutagen_generator_assignment":[0,1],"goal":2,"start":5,"action_noise":0.15,"location_history":"[5,4,2]","action_history":"[0,1]","mutagen_history":"[0,1]","location_rts":"[1718,1127]","trial_type":"fractal-mutation","trial_index":80,"time_elapsed":2033127,"internal_node_id":"0.0-5.0-26.0"},{"group":"hexagon_tri","fractal_assignment":["../images/gry_blk.png","../images/blu_wht.png","../images/cyn_red.png","../images/org_blu.png","../images/pnk_blu.png","../images/ylw_slt.png"],"mutagen_generator_assignment":[0,1],"goal":3,"start":2,"action_noise":0.15,"location_history":"[2,1,5,4,2,3]","action_history":"[0,1,0,0,1]","mutagen_history":"[0,1,0,0,1]","location_rts":"[2062,2432,1669,1326,635]","trial_type":"fractal-mutation","trial_index":81,"time_elapsed":2049977,"internal_node_id":"0.0-5.0-27.0"},{"group":"hexagon_tri","fractal_assignment":["../images/gry_blk.png","../images/blu_wht.png","../images/cyn_red.png","../images/org_blu.png","../images/pnk_blu.png","../images/ylw_slt.png"],"mutagen_generator_assignment":[0,1],"goal":0,"start":3,"action_noise":0.15,"location_history":"[3,2,3,4,0]","action_history":"[0,1,1,0]","mutagen_history":"[0,1,1,0]","location_rts":"[2948,645,451,564]","trial_type":"fractal-mutation","trial_index":82,"time_elapsed":2062264,"internal_node_id":"0.0-5.0-28.0"},{"group":"hexagon_tri","fractal_assignment":["../images/gry_blk.png","../images/blu_wht.png","../images/cyn_red.png","../images/org_blu.png","../images/pnk_blu.png","../images/ylw_slt.png"],"mutagen_generator_assignment":[0,1],"goal":1,"start":0,"action_noise":0.15,"location_history":"[0,1]","action_history":"[1]","mutagen_history":"[1]","location_rts":"[2377]","trial_type":"fractal-mutation","trial_index":83,"time_elapsed":2069188,"internal_node_id":"0.0-5.0-29.0"},{"group":"hexagon_tri","fractal_assignment":["../images/gry_blk.png","../images/blu_wht.png","../images/cyn_red.png","../images/org_blu.png","../images/pnk_blu.png","../images/ylw_slt.png"],"mutagen_generator_assignment":[0,1],"goal":4,"start":1,"action_noise":0.15,"location_history":"[1,3,2,3,4]","action_history":"[0,0,1,0]","mutagen_history":"[0,0,1,0]","location_rts":"[4303,1010,661,641]","trial_type":"fractal-mutation","trial_index":84,"time_elapsed":2083495,"internal_node_id":"0.0-5.0-30.0"},{"group":"hexagon_tri","fractal_assignment":["../images/gry_blk.png","../images/blu_wht.png","../images/cyn_red.png","../images/org_blu.png","../images/pnk_blu.png","../images/ylw_slt.png"],"mutagen_generator_assignment":[0,1],"goal":5,"start":4,"action_noise":0.15,"location_history":"[4,0,5]","action_history":"[0,1]","mutagen_history":"[0,1]","location_rts":"[4722,1229]","trial_type":"fractal-mutation","trial_index":85,"time_elapsed":2095032,"internal_node_id":"0.0-5.0-31.0"},{"group":"hexagon_tri","fractal_assignment":["../images/gry_blk.png","../images/blu_wht.png","../images/cyn_red.png","../images/org_blu.png","../images/pnk_blu.png","../images/ylw_slt.png"],"mutagen_generator_assignment":[0,1],"goal":0,"start":5,"action_noise":0.15,"location_history":"[5,4,2,3,4,2,3,4,0]","action_history":"[0,0,1,0,1,1,1,0]","mutagen_history":"[0,0,1,0,1,1,1,0]","location_rts":"[2192,546,278,594,521,275,1191,503]","trial_type":"fractal-mutation","trial_index":86,"time_elapsed":2113013,"internal_node_id":"0.0-5.0-32.0"},{"group":"hexagon_tri","fractal_assignment":["../images/gry_blk.png","../images/blu_wht.png","../images/cyn_red.png","../images/org_blu.png","../images/pnk_blu.png","../images/ylw_slt.png"],"mutagen_generator_assignment":[0,1],"goal":3,"start":0,"action_noise":0.15,"location_history":"[0,5,4,2,1,5,0,1,5,4,2,1,3]","action_history":"[0,0,1,0,1,1,0,1,0,1,0,0]","mutagen_history":"[0,0,1,0,1,1,0,1,0,1,0,0]","location_rts":"[6167,1139,474,592,1724,266,611,406,439,657,687,517]","trial_type":"fractal-mutation","trial_index":87,"time_elapsed":2142715,"internal_node_id":"0.0-5.0-33.0"},{"group":"hexagon_tri","fractal_assignment":["../images/gry_blk.png","../images/blu_wht.png","../images/cyn_red.png","../images/org_blu.png","../images/pnk_blu.png","../images/ylw_slt.png"],"mutagen_generator_assignment":[0,1],"goal":1,"start":3,"action_noise":0.15,"location_history":"[3,2,1]","action_history":"[0,0]","mutagen_history":"[0,0]","location_rts":"[1970,570]","trial_type":"fractal-mutation","trial_index":88,"time_elapsed":2150830,"internal_node_id":"0.0-5.0-34.0"},{"group":"hexagon_tri","fractal_assignment":["../images/gry_blk.png","../images/blu_wht.png","../images/cyn_red.png","../images/org_blu.png","../images/pnk_blu.png","../images/ylw_slt.png"],"mutagen_generator_assignment":[0,1],"goal":2,"start":1,"action_noise":0.15,"location_history":"[1,5,0,5,4,0,5,4,0,1,5,4,2]","action_history":"[1,1,0,0,0,0,0,1,1,1,0,1]","mutagen_history":"[1,1,0,0,0,0,0,1,1,1,0,1]","location_rts":"[1615,1259,1305,721,770,605,142,219,864,350,1001,886]","trial_type":"fractal-mutation","trial_index":89,"time_elapsed":2176617,"internal_node_id":"0.0-5.0-35.0"},{"group":"hexagon_tri","fractal_assignment":["../images/gry_blk.png","../images/blu_wht.png","../images/cyn_red.png","../images/org_blu.png","../images/pnk_blu.png","../images/ylw_slt.png"],"mutagen_generator_assignment":[0,1],"goal":4,"start":2,"action_noise":0.15,"location_history":"[2,1,5,0,1,5,4]","action_history":"[0,1,1,0,0,0]","mutagen_history":"[0,1,1,0,0,0]","location_rts":"[2096,623,511,578,274,411]","trial_type":"fractal-mutation","trial_index":90,"time_elapsed":2190862,"internal_node_id":"0.0-5.0-36.0"},{"group":"hexagon_tri","fractal_assignment":["../images/gry_blk.png","../images/blu_wht.png","../images/cyn_red.png","../images/org_blu.png","../images/pnk_blu.png","../images/ylw_slt.png"],"mutagen_generator_assignment":[0,1],"goal":5,"start":4,"action_noise":0.15,"location_history":"[4,0,1,5]","action_history":"[0,1,1]","mutagen_history":"[0,1,1]","location_rts":"[6306,1162,464]","trial_type":"fractal-mutation","trial_index":91,"time_elapsed":2205430,"internal_node_id":"0.0-5.0-37.0"},{"group":"hexagon_tri","fractal_assignment":["../images/gry_blk.png","../images/blu_wht.png","../images/cyn_red.png","../images/org_blu.png","../images/pnk_blu.png","../images/ylw_slt.png"],"mutagen_generator_assignment":[0,1],"goal":1,"start":5,"action_noise":0.15,"location_history":"[5,4,0,1]","action_history":"[0,0,1]","mutagen_history":"[0,0,1]","location_rts":"[1768,1175,509]","trial_type":"fractal-mutation","trial_index":92,"time_elapsed":2215515,"internal_node_id":"0.0-5.0-38.0"},{"group":"hexagon_tri","fractal_assignment":["../images/gry_blk.png","../images/blu_wht.png","../images/cyn_red.png","../images/org_blu.png","../images/pnk_blu.png","../images/ylw_slt.png"],"mutagen_generator_assignment":[0,1],"goal":4,"start":1,"action_noise":0.15,"location_history":"[1,3,2,3,4]","action_history":"[0,1,1,1]","mutagen_history":"[0,1,1,1]","location_rts":"[109193,592,646,742]","trial_type":"fractal-mutation","trial_index":93,"time_elapsed":2334369,"internal_node_id":"0.0-5.0-39.0"},{"group":"hexagon_tri","fractal_assignment":["../images/gry_blk.png","../images/blu_wht.png","../images/cyn_red.png","../images/org_blu.png","../images/pnk_blu.png","../images/ylw_slt.png"],"mutagen_generator_assignment":[0,1],"goal":3,"start":4,"action_noise":0.15,"location_history":"[4,2,3]","action_history":"[0,1]","mutagen_history":"[0,1]","location_rts":"[1605,1084]","trial_type":"fractal-mutation","trial_index":94,"time_elapsed":2342651,"internal_node_id":"0.0-5.0-40.0"},{"group":"hexagon_tri","fractal_assignment":["../images/gry_blk.png","../images/blu_wht.png","../images/cyn_red.png","../images/org_blu.png","../images/pnk_blu.png","../images/ylw_slt.png"],"mutagen_generator_assignment":[0,1],"goal":2,"start":3,"action_noise":0.15,"location_history":"[3,2]","action_history":"[0]","mutagen_history":"[0]","location_rts":"[11338]","trial_type":"fractal-mutation","trial_index":95,"time_elapsed":2358534,"internal_node_id":"0.0-5.0-41.0"},{"group":"hexagon_tri","fractal_assignment":["../images/gry_blk.png","../images/blu_wht.png","../images/cyn_red.png","../images/org_blu.png","../images/pnk_blu.png","../images/ylw_slt.png"],"mutagen_generator_assignment":[0,1],"goal":0,"start":2,"action_noise":0.15,"location_history":"[2,1,5,4,0]","action_history":"[0,1,0,0]","mutagen_history":"[0,1,0,0]","location_rts":"[1219,512,525,545]","trial_type":"fractal-mutation","trial_index":96,"time_elapsed":2368994,"internal_node_id":"0.0-5.0-42.0"},{"group":"hexagon_tri","fractal_assignment":["../images/gry_blk.png","../images/blu_wht.png","../images/cyn_red.png","../images/org_blu.png","../images/pnk_blu.png","../images/ylw_slt.png"],"mutagen_generator_assignment":[0,1],"goal":5,"start":0,"action_noise":0.15,"location_history":"[0,1,3,4,0,1,5]","action_history":"[1,1,1,0,1,1]","mutagen_history":"[1,1,1,0,1,1]","location_rts":"[1640,399,869,766,597,694]","trial_type":"fractal-mutation","trial_index":97,"time_elapsed":2383724,"internal_node_id":"0.0-5.0-43.0"},{"group":"hexagon_tri","fractal_assignment":["../images/gry_blk.png","../images/blu_wht.png","../images/cyn_red.png","../images/org_blu.png","../images/pnk_blu.png","../images/ylw_slt.png"],"mutagen_generator_assignment":[0,1],"goal":0,"start":5,"action_noise":0.15,"location_history":"[5,4,0]","action_history":"[0,0]","mutagen_history":"[0,0]","location_rts":"[2125,253]","trial_type":"fractal-mutation","trial_index":98,"time_elapsed":2391684,"internal_node_id":"0.0-5.0-44.0"},{"group":"hexagon_tri","fractal_assignment":["../images/gry_blk.png","../images/blu_wht.png","../images/cyn_red.png","../images/org_blu.png","../images/pnk_blu.png","../images/ylw_slt.png"],"mutagen_generator_assignment":[0,1],"goal":2,"start":0,"action_noise":0.15,"location_history":"[0,1,5,0,1,3,4,2]","action_history":"[1,1,1,1,0,1,1]","mutagen_history":"[1,1,1,1,0,1,1]","location_rts":"[1602,540,491,831,493,391,1273]","trial_type":"fractal-mutation","trial_index":99,"time_elapsed":2408179,"internal_node_id":"0.0-5.0-45.0"},{"group":"hexagon_tri","fractal_assignment":["../images/gry_blk.png","../images/blu_wht.png","../images/cyn_red.png","../images/org_blu.png","../images/pnk_blu.png","../images/ylw_slt.png"],"mutagen_generator_assignment":[0,1],"goal":4,"start":2,"action_noise":0.15,"location_history":"[2,3,2,3,4]","action_history":"[1,0,1,0]","mutagen_history":"[1,0,1,0]","location_rts":"[15748,545,778,576]","trial_type":"fractal-mutation","trial_index":100,"time_elapsed":2433502,"internal_node_id":"0.0-5.0-46.0"},{"group":"hexagon_tri","fractal_assignment":["../images/gry_blk.png","../images/blu_wht.png","../images/cyn_red.png","../images/org_blu.png","../images/pnk_blu.png","../images/ylw_slt.png"],"mutagen_generator_assignment":[0,1],"goal":1,"start":4,"action_noise":0.15,"location_history":"[4,2,1]","action_history":"[1,0]","mutagen_history":"[1,0]","location_rts":"[2353,2432]","trial_type":"fractal-mutation","trial_index":101,"time_elapsed":2443875,"internal_node_id":"0.0-5.0-47.0"},{"group":"hexagon_tri","fractal_assignment":["../images/gry_blk.png","../images/blu_wht.png","../images/cyn_red.png","../images/org_blu.png","../images/pnk_blu.png","../images/ylw_slt.png"],"mutagen_generator_assignment":[0,1],"goal":5,"start":1,"action_noise":0.15,"location_history":"[1,5]","action_history":"[1]","mutagen_history":"[1]","location_rts":"[13198]","trial_type":"fractal-mutation","trial_index":102,"time_elapsed":2461632,"internal_node_id":"0.0-5.0-48.0"},{"group":"hexagon_tri","fractal_assignment":["../images/gry_blk.png","../images/blu_wht.png","../images/cyn_red.png","../images/org_blu.png","../images/pnk_blu.png","../images/ylw_slt.png"],"mutagen_generator_assignment":[0,1],"goal":3,"start":5,"action_noise":0.15,"location_history":"[5,4,0,5,0,1,3]","action_history":"[0,0,0,1,1,0]","mutagen_history":"[0,0,0,1,1,0]","location_rts":"[1398,468,483,480,474,377]","trial_type":"fractal-mutation","trial_index":103,"time_elapsed":2475070,"internal_node_id":"0.0-5.0-49.0"},{"view_history":"[{\"page_index\":0,\"viewing_time\":11029}]","rt":11029,"trial_type":"instructions","trial_index":104,"time_elapsed":2487101,"internal_node_id":"0.0-6.0"},{"rt":37220,"responses":"{\"Q0\":\"I was surprised at what I remembered in the haunted house. The gamma rays... not so much!\"}","trial_type":"survey-text","trial_index":105,"time_elapsed":2525327,"internal_node_id":"0.0-7.0"}]