[{"view_history":"[{\"page_index\":0,\"viewing_time\":7899},{\"page_index\":1,\"viewing_time\":7719}]","rt":15618,"trial_type":"instructions","trial_index":0,"time_elapsed":15618,"internal_node_id":"0.0-0.0"},{"view_history":"[{\"page_index\":0,\"viewing_time\":4066},{\"page_index\":1,\"viewing_time\":5829}]","rt":9895,"trial_type":"instructions","trial_index":1,"time_elapsed":26516,"internal_node_id":"0.0-1.0"},{"group":"hexagon_bi","room_assignment":["purple","yellow","grey","blue","green","red"],"door_color_assignment":["white","black"],"door_generator_assignment":[1,0],"goal":3,"start":5,"action_noise":0.15,"location_history":"[5,4,3]","action_history":"[1,0]","door_history":"[0,1]","location_rts":"[1823,945]","trial_type":"two-door-navigation","trial_index":2,"time_elapsed":34821,"internal_node_id":"0.0-2.0-0.0"},{"group":"hexagon_bi","room_assignment":["purple","yellow","grey","blue","green","red"],"door_color_assignment":["white","black"],"door_generator_assignment":[1,0],"goal":1,"start":3,"action_noise":0.15,"location_history":"[3,2,1]","action_history":"[1,0]","door_history":"[0,1]","location_rts":"[3200,1063]","trial_type":"two-door-navigation","trial_index":3,"time_elapsed":44609,"internal_node_id":"0.0-2.0-1.0"},{"group":"hexagon_bi","room_assignment":["purple","yellow","grey","blue","green","red"],"door_color_assignment":["white","black"],"door_generator_assignment":[1,0],"goal":0,"start":1,"action_noise":0.15,"location_history":"[1,2,3,4,3,2,1,0]","action_history":"[0,0,0,0,1,0,1]","door_history":"[1,1,1,1,0,1,0]","location_rts":"[1538,664,565,494,920,586,346]","trial_type":"two-door-navigation","trial_index":4,"time_elapsed":60378,"internal_node_id":"0.0-2.0-2.0"},{"group":"hexagon_bi","room_assignment":["purple","yellow","grey","blue","green","red"],"door_color_assignment":["white","black"],"door_generator_assignment":[1,0],"goal":3,"start":0,"action_noise":0.15,"location_history":"[0,1,0,1,0,5,0,1,0,5,0,1,0,1,2,3]","action_history":"[1,0,1,1,0,0,1,1,0,0,1,1,1,0,1]","door_history":"[0,1,0,0,1,1,0,0,1,1,0,0,0,1,0]","location_rts":"[4011,2013,308,434,552,442,727,2846,2207,2328,1318,785,810,117,250]","trial_type":"two-door-navigation","trial_index":5,"time_elapsed":98276,"internal_node_id":"0.0-2.0-3.0"},{"group":"hexagon_bi","room_assignment":["purple","yellow","grey","blue","green","red"],"door_color_assignment":["white","black"],"door_generator_assignment":[1,0],"goal":4,"start":3,"action_noise":0.15,"location_history":"[3,2,3,4]","action_history":"[0,1,0]","door_history":"[1,0,1]","location_rts":"[836,273,199]","trial_type":"two-door-navigation","trial_index":6,"time_elapsed":106126,"internal_node_id":"0.0-2.0-4.0"},{"group":"hexagon_bi","room_assignment":["purple","yellow","grey","blue","green","red"],"door_color_assignment":["white","black"],"door_generator_assignment":[1,0],"goal":2,"start":4,"action_noise":0.15,"location_history":"[4,3,2]","action_history":"[0,1]","door_history":"[1,0]","location_rts":"[365,260]","trial_type":"two-door-navigation","trial_index":7,"time_elapsed":112318,"internal_node_id":"0.0-2.0-5.0"},{"group":"hexagon_bi","room_assignment":["purple","yellow","grey","blue","green","red"],"door_color_assignment":["white","black"],"door_generator_assignment":[1,0],"goal":1,"start":2,"action_noise":0.15,"location_history":"[2,1]","action_history":"[0]","door_history":"[1]","location_rts":"[351]","trial_type":"two-door-navigation","trial_index":8,"time_elapsed":117178,"internal_node_id":"0.0-2.0-6.0"},{"group":"hexagon_bi","room_assignment":["purple","yellow","grey","blue","green","red"],"door_color_assignment":["white","black"],"door_generator_assignment":[1,0],"goal":5,"start":1,"action_noise":0.15,"location_history":"[1,2,3,4,5]","action_history":"[0,1,0,1]","door_history":"[1,0,1,0]","location_rts":"[842,236,237,661]","trial_type":"two-door-navigation","trial_index":9,"time_elapsed":126779,"internal_node_id":"0.0-2.0-7.0"},{"group":"hexagon_bi","room_assignment":["purple","yellow","grey","blue","green","red"],"door_color_assignment":["white","black"],"door_generator_assignment":[1,0],"goal":4,"start":5,"action_noise":0.15,"location_history":"[5,0,1,2,3,4]","action_history":"[0,1,0,1,0]","door_history":"[1,0,1,0,1]","location_rts":"[418,239,258,278,467]","trial_type":"two-door-navigation","trial_index":10,"time_elapsed":137026,"internal_node_id":"0.0-2.0-8.0"},{"group":"hexagon_bi","room_assignment":["purple","yellow","grey","blue","green","red"],"door_color_assignment":["white","black"],"door_generator_assignment":[1,0],"goal":2,"start":4,"action_noise":0.15,"location_history":"[4,3,2]","action_history":"[0,1]","door_history":"[1,0]","location_rts":"[585,784]","trial_type":"two-door-navigation","trial_index":11,"time_elapsed":143936,"internal_node_id":"0.0-2.0-9.0"},{"group":"hexagon_bi","room_assignment":["purple","yellow","grey","blue","green","red"],"door_color_assignment":["white","black"],"door_generator_assignment":[1,0],"goal":0,"start":2,"action_noise":0.15,"location_history":"[2,3,2,1,0]","action_history":"[0,1,0,1]","door_history":"[1,0,1,0]","location_rts":"[323,310,329,1282]","trial_type":"two-door-navigation","trial_index":12,"time_elapsed":153818,"internal_node_id":"0.0-2.0-10.0"},{"group":"hexagon_bi","room_assignment":["purple","yellow","grey","blue","green","red"],"door_color_assignment":["white","black"],"door_generator_assignment":[1,0],"goal":1,"start":0,"action_noise":0.15,"location_history":"[0,5,4,3,2,3,2,3,4,5,4,3,2,3,2,1]","action_history":"[0,1,0,1,0,1,1,0,1,1,0,1,1,1,0]","door_history":"[1,0,1,0,1,0,0,1,0,0,1,0,0,0,1]","location_rts":"[536,35,251,344,596,616,327,785,335,477,522,710,683,938,401]","trial_type":"two-door-navigation","trial_index":13,"time_elapsed":180171,"internal_node_id":"0.0-2.0-11.0"},{"group":"hexagon_bi","room_assignment":["purple","yellow","grey","blue","green","red"],"door_color_assignment":["white","black"],"door_generator_assignment":[1,0],"goal":3,"start":1,"action_noise":0.15,"location_history":"[1,0,1,0,1,2,1,0,5,0,1,2,3]","action_history":"[0,1,0,1,0,0,1,1,0,1,0,1]","door_history":"[1,0,1,0,1,1,0,0,1,0,1,0]","location_rts":"[3186,435,873,439,577,94,339,1275,257,617,332,531]","trial_type":"two-door-navigation","trial_index":14,"time_elapsed":204893,"internal_node_id":"0.0-2.0-12.0"},{"group":"hexagon_bi","room_assignment":["purple","yellow","grey","blue","green","red"],"door_color_assignment":["white","black"],"door_generator_assignment":[1,0],"goal":5,"start":3,"action_noise":0.15,"location_history":"[3,4,5]","action_history":"[0,1]","door_history":"[1,0]","location_rts":"[1336,218]","trial_type":"two-door-navigation","trial_index":15,"time_elapsed":211975,"internal_node_id":"0.0-2.0-13.0"},{"group":"hexagon_bi","room_assignment":["purple","yellow","grey","blue","green","red"],"door_color_assignment":["white","black"],"door_generator_assignment":[1,0],"goal":4,"start":5,"action_noise":0.15,"location_history":"[5,0,5,0,5,4]","action_history":"[0,1,0,1,1]","door_history":"[1,0,1,0,0]","location_rts":"[983,268,41,601,192]","trial_type":"two-door-navigation","trial_index":16,"time_elapsed":222665,"internal_node_id":"0.0-2.0-14.0"},{"group":"hexagon_bi","room_assignment":["purple","yellow","grey","blue","green","red"],"door_color_assignment":["white","black"],"door_generator_assignment":[1,0],"goal":0,"start":4,"action_noise":0.15,"location_history":"[4,3,2,1,0]","action_history":"[0,1,0,1]","door_history":"[1,0,1,0]","location_rts":"[1819,481,265,902]","trial_type":"two-door-navigation","trial_index":17,"time_elapsed":233698,"internal_node_id":"0.0-2.0-15.0"},{"group":"hexagon_bi","room_assignment":["purple","yellow","grey","blue","green","red"],"door_color_assignment":["white","black"],"door_generator_assignment":[1,0],"goal":3,"start":0,"action_noise":0.15,"location_history":"[0,5,4,3]","action_history":"[0,1,0]","door_history":"[1,0,1]","location_rts":"[578,603,1631]","trial_type":"two-door-navigation","trial_index":18,"time_elapsed":243040,"internal_node_id":"0.0-2.0-16.0"},{"group":"hexagon_bi","room_assignment":["purple","yellow","grey","blue","green","red"],"door_color_assignment":["white","black"],"door_generator_assignment":[1,0],"goal":1,"start":3,"action_noise":0.15,"location_history":"[3,4,5,0,1]","action_history":"[0,1,0,1]","door_history":"[1,0,1,0]","location_rts":"[1208,38,119,353]","trial_type":"two-door-navigation","trial_index":19,"time_elapsed":252300,"internal_node_id":"0.0-2.0-17.0"},{"group":"hexagon_bi","room_assignment":["purple","yellow","grey","blue","green","red"],"door_color_assignment":["white","black"],"door_generator_assignment":[1,0],"goal":5,"start":1,"action_noise":0.15,"location_history":"[1,2,3,4,5]","action_history":"[0,1,0,1]","door_history":"[1,0,1,0]","location_rts":"[438,473,478,306]","trial_type":"two-door-navigation","trial_index":20,"time_elapsed":261644,"internal_node_id":"0.0-2.0-18.0"},{"group":"hexagon_bi","room_assignment":["purple","yellow","grey","blue","green","red"],"door_color_assignment":["white","black"],"door_generator_assignment":[1,0],"goal":2,"start":5,"action_noise":0.15,"location_history":"[5,0,1,2]","action_history":"[0,1,0]","door_history":"[1,0,1]","location_rts":"[557,299,118]","trial_type":"two-door-navigation","trial_index":21,"time_elapsed":269168,"internal_node_id":"0.0-2.0-19.0"},{"group":"hexagon_bi","room_assignment":["purple","yellow","grey","blue","green","red"],"door_color_assignment":["white","black"],"door_generator_assignment":[1,0],"goal":4,"start":2,"action_noise":0.15,"location_history":"[2,1,0,5,4]","action_history":"[0,1,0,1]","door_history":"[1,0,1,0]","location_rts":"[657,241,219,838]","trial_type":"two-door-navigation","trial_index":22,"time_elapsed":278719,"internal_node_id":"0.0-2.0-20.0"},{"group":"hexagon_bi","room_assignment":["purple","yellow","grey","blue","green","red"],"door_color_assignment":["white","black"],"door_generator_assignment":[1,0],"goal":1,"start":4,"action_noise":0.15,"location_history":"[4,3,2,1]","action_history":"[0,1,0]","door_history":"[1,0,1]","location_rts":"[722,268,292]","trial_type":"two-door-navigation","trial_index":23,"time_elapsed":286536,"internal_node_id":"0.0-2.0-21.0"},{"group":"hexagon_bi","room_assignment":["purple","yellow","grey","blue","green","red"],"door_color_assignment":["white","black"],"door_generator_assignment":[1,0],"goal":3,"start":1,"action_noise":0.15,"location_history":"[1,2,3]","action_history":"[0,1]","door_history":"[1,0]","location_rts":"[493,267]","trial_type":"two-door-navigation","trial_index":24,"time_elapsed":292873,"internal_node_id":"0.0-2.0-22.0"},{"group":"hexagon_bi","room_assignment":["purple","yellow","grey","blue","green","red"],"door_color_assignment":["white","black"],"door_generator_assignment":[1,0],"goal":2,"start":3,"action_noise":0.15,"location_history":"[3,4,3,4,5,4,3,2]","action_history":"[0,1,0,1,1,0,1]","door_history":"[1,0,1,0,0,1,0]","location_rts":"[379,1220,274,511,561,164,273]","trial_type":"two-door-navigation","trial_index":25,"time_elapsed":306886,"internal_node_id":"0.0-2.0-23.0"},{"group":"hexagon_bi","room_assignment":["purple","yellow","grey","blue","green","red"],"door_color_assignment":["white","black"],"door_generator_assignment":[1,0],"goal":0,"start":2,"action_noise":0.15,"location_history":"[2,3,2,1,0]","action_history":"[0,1,0,1]","door_history":"[1,0,1,0]","location_rts":"[2427,3679,266,327]","trial_type":"two-door-navigation","trial_index":26,"time_elapsed":321115,"internal_node_id":"0.0-2.0-24.0"},{"group":"hexagon_bi","room_assignment":["purple","yellow","grey","blue","green","red"],"door_color_assignment":["white","black"],"door_generator_assignment":[1,0],"goal":5,"start":0,"action_noise":0.15,"location_history":"[0,5]","action_history":"[0]","door_history":"[1]","location_rts":"[2845]","trial_type":"two-door-navigation","trial_index":27,"time_elapsed":328475,"internal_node_id":"0.0-2.0-25.0"},{"group":"hexagon_bi","room_assignment":["purple","yellow","grey","blue","green","red"],"door_color_assignment":["white","black"],"door_generator_assignment":[1,0],"goal":2,"start":5,"action_noise":0.15,"location_history":"[5,0,1,2]","action_history":"[0,1,0]","door_history":"[1,0,1]","location_rts":"[9564,752,1177]","trial_type":"two-door-navigation","trial_index":28,"time_elapsed":346501,"internal_node_id":"0.0-2.0-26.0"},{"group":"hexagon_bi","room_assignment":["purple","yellow","grey","blue","green","red"],"door_color_assignment":["white","black"],"door_generator_assignment":[1,0],"goal":3,"start":2,"action_noise":0.15,"location_history":"[2,1,0,1,0,1,2,1,2,3]","action_history":"[0,1,0,1,1,0,0,0,1]","door_history":"[1,0,1,0,0,1,1,1,0]","location_rts":"[294,280,231,907,419,17,422,422,123]","trial_type":"two-door-navigation","trial_index":29,"time_elapsed":362275,"internal_node_id":"0.0-2.0-27.0"},{"group":"hexagon_bi","room_assignment":["purple","yellow","grey","blue","green","red"],"door_color_assignment":["white","black"],"door_generator_assignment":[1,0],"goal":0,"start":3,"action_noise":0.15,"location_history":"[3,4,5,0]","action_history":"[0,1,0]","door_history":"[1,0,1]","location_rts":"[27943,460,409]","trial_type":"two-door-navigation","trial_index":30,"time_elapsed":397673,"internal_node_id":"0.0-2.0-28.0"},{"group":"hexagon_bi","room_assignment":["purple","yellow","grey","blue","green","red"],"door_color_assignment":["white","black"],"door_generator_assignment":[1,0],"goal":1,"start":0,"action_noise":0.15,"location_history":"[0,5,4,3,2,1]","action_history":"[0,1,0,1,0]","door_history":"[1,0,1,0,1]","location_rts":"[1473,1210,3113,1452,1585]","trial_type":"two-door-navigation","trial_index":31,"time_elapsed":415067,"internal_node_id":"0.0-2.0-29.0"},{"group":"hexagon_bi","room_assignment":["purple","yellow","grey","blue","green","red"],"door_color_assignment":["white","black"],"door_generator_assignment":[1,0],"goal":4,"start":1,"action_noise":0.15,"location_history":"[1,2,3,4]","action_history":"[0,1,0]","door_history":"[1,0,1]","location_rts":"[586,416,360]","trial_type":"two-door-navigation","trial_index":32,"time_elapsed":422967,"internal_node_id":"0.0-2.0-30.0"},{"group":"hexagon_bi","room_assignment":["purple","yellow","grey","blue","green","red"],"door_color_assignment":["white","black"],"door_generator_assignment":[1,0],"goal":5,"start":4,"action_noise":0.15,"location_history":"[4,3,2,1,0,1,2,3,4,5]","action_history":"[0,1,0,1,1,0,1,0,0]","door_history":"[1,0,1,0,0,1,0,1,1]","location_rts":"[402,276,301,337,387,189,128,400,394]","trial_type":"two-door-navigation","trial_index":33,"time_elapsed":438418,"internal_node_id":"0.0-2.0-31.0"},{"group":"hexagon_bi","room_assignment":["purple","yellow","grey","blue","green","red"],"door_color_assignment":["white","black"],"door_generator_assignment":[1,0],"goal":0,"start":5,"action_noise":0.15,"location_history":"[5,4,3,4,5,0]","action_history":"[0,1,0,1,0]","door_history":"[1,0,1,0,1]","location_rts":"[938,152,524,964,712]","trial_type":"two-door-navigation","trial_index":34,"time_elapsed":450305,"internal_node_id":"0.0-2.0-32.0"},{"group":"hexagon_bi","room_assignment":["purple","yellow","grey","blue","green","red"],"door_color_assignment":["white","black"],"door_generator_assignment":[1,0],"goal":3,"start":0,"action_noise":0.15,"location_history":"[0,1,0,5,0,5,4,5,4,5,4,3]","action_history":"[0,1,0,1,0,1,0,1,1,1,0]","door_history":"[1,0,1,0,1,0,1,0,0,0,1]","location_rts":"[2872,266,287,295,413,419,381,451,306,379,681]","trial_type":"two-door-navigation","trial_index":35,"time_elapsed":471752,"internal_node_id":"0.0-2.0-33.0"},{"group":"hexagon_bi","room_assignment":["purple","yellow","grey","blue","green","red"],"door_color_assignment":["white","black"],"door_generator_assignment":[1,0],"goal":1,"start":3,"action_noise":0.15,"location_history":"[3,4,5,0,1]","action_history":"[0,1,0,1]","door_history":"[1,0,1,0]","location_rts":"[8931,92,374,298]","trial_type":"two-door-navigation","trial_index":36,"time_elapsed":489067,"internal_node_id":"0.0-2.0-34.0"},{"group":"hexagon_bi","room_assignment":["purple","yellow","grey","blue","green","red"],"door_color_assignment":["white","black"],"door_generator_assignment":[1,0],"goal":2,"start":1,"action_noise":0.15,"location_history":"[1,2]","action_history":"[0]","door_history":"[1]","location_rts":"[1424]","trial_type":"two-door-navigation","trial_index":37,"time_elapsed":495003,"internal_node_id":"0.0-2.0-35.0"},{"group":"hexagon_bi","room_assignment":["purple","yellow","grey","blue","green","red"],"door_color_assignment":["white","black"],"door_generator_assignment":[1,0],"goal":4,"start":2,"action_noise":0.15,"location_history":"[2,3,4]","action_history":"[1,0]","door_history":"[0,1]","location_rts":"[1510,269]","trial_type":"two-door-navigation","trial_index":38,"time_elapsed":502335,"internal_node_id":"0.0-2.0-36.0"},{"group":"hexagon_bi","room_assignment":["purple","yellow","grey","blue","green","red"],"door_color_assignment":["white","black"],"door_generator_assignment":[1,0],"goal":5,"start":4,"action_noise":0.15,"location_history":"[4,5]","action_history":"[1]","door_history":"[0]","location_rts":"[478]","trial_type":"two-door-navigation","trial_index":39,"time_elapsed":507322,"internal_node_id":"0.0-2.0-37.0"},{"group":"hexagon_bi","room_assignment":["purple","yellow","grey","blue","green","red"],"door_color_assignment":["white","black"],"door_generator_assignment":[1,0],"goal":1,"start":5,"action_noise":0.15,"location_history":"[5,0,1]","action_history":"[0,1]","door_history":"[1,0]","location_rts":"[1483,360]","trial_type":"two-door-navigation","trial_index":40,"time_elapsed":514709,"internal_node_id":"0.0-2.0-38.0"},{"group":"hexagon_bi","room_assignment":["purple","yellow","grey","blue","green","red"],"door_color_assignment":["white","black"],"door_generator_assignment":[1,0],"goal":4,"start":1,"action_noise":0.15,"location_history":"[1,0,5,4]","action_history":"[1,0,1]","door_history":"[0,1,0]","location_rts":"[837,172,859]","trial_type":"two-door-navigation","trial_index":41,"time_elapsed":523172,"internal_node_id":"0.0-2.0-39.0"},{"group":"hexagon_bi","room_assignment":["purple","yellow","grey","blue","green","red"],"door_color_assignment":["white","black"],"door_generator_assignment":[1,0],"goal":3,"start":4,"action_noise":0.15,"location_history":"[4,3]","action_history":"[0]","door_history":"[1]","location_rts":"[1519]","trial_type":"two-door-navigation","trial_index":42,"time_elapsed":529203,"internal_node_id":"0.0-2.0-40.0"},{"group":"hexagon_bi","room_assignment":["purple","yellow","grey","blue","green","red"],"door_color_assignment":["white","black"],"door_generator_assignment":[1,0],"goal":2,"start":3,"action_noise":0.15,"location_history":"[3,2]","action_history":"[1]","door_history":"[0]","location_rts":"[1320]","trial_type":"two-door-navigation","trial_index":43,"time_elapsed":535040,"internal_node_id":"0.0-2.0-41.0"},{"group":"hexagon_bi","room_assignment":["purple","yellow","grey","blue","green","red"],"door_color_assignment":["white","black"],"door_generator_assignment":[1,0],"goal":0,"start":2,"action_noise":0.15,"location_history":"[2,1,0]","action_history":"[0,1]","door_history":"[1,0]","location_rts":"[1503,369]","trial_type":"two-door-navigation","trial_index":44,"time_elapsed":542461,"internal_node_id":"0.0-2.0-42.0"},{"group":"hexagon_bi","room_assignment":["purple","yellow","grey","blue","green","red"],"door_color_assignment":["white","black"],"door_generator_assignment":[1,0],"goal":5,"start":0,"action_noise":0.15,"location_history":"[0,5]","action_history":"[0]","door_history":"[1]","location_rts":"[2684]","trial_type":"two-door-navigation","trial_index":45,"time_elapsed":549724,"internal_node_id":"0.0-2.0-43.0"},{"group":"hexagon_bi","room_assignment":["purple","yellow","grey","blue","green","red"],"door_color_assignment":["white","black"],"door_generator_assignment":[1,0],"goal":0,"start":5,"action_noise":0.15,"location_history":"[5,4,3,2,1,0]","action_history":"[1,0,1,0,1]","door_history":"[0,1,0,1,0]","location_rts":"[1451,967,649,709,674]","trial_type":"two-door-navigation","trial_index":46,"time_elapsed":562967,"internal_node_id":"0.0-2.0-44.0"},{"group":"hexagon_bi","room_assignment":["purple","yellow","grey","blue","green","red"],"door_color_assignment":["white","black"],"door_generator_assignment":[1,0],"goal":2,"start":0,"action_noise":0.15,"location_history":"[0,5,4,3,2]","action_history":"[0,1,0,1]","door_history":"[1,0,1,0]","location_rts":"[2134,346,366,656]","trial_type":"two-door-navigation","trial_index":47,"time_elapsed":574016,"internal_node_id":"0.0-2.0-45.0"},{"group":"hexagon_bi","room_assignment":["purple","yellow","grey","blue","green","red"],"door_color_assignment":["white","black"],"door_generator_assignment":[1,0],"goal":4,"start":2,"action_noise":0.15,"location_history":"[2,3,2,1,2,1,0,5,0,5,0,5,4]","action_history":"[0,1,0,0,0,1,0,1,0,0,0,1]","door_history":"[1,0,1,1,1,0,1,0,1,1,1,0]","location_rts":"[1663,323,127,421,642,530,275,732,645,551,628,385]","trial_type":"two-door-navigation","trial_index":48,"time_elapsed":596616,"internal_node_id":"0.0-2.0-46.0"},{"group":"hexagon_bi","room_assignment":["purple","yellow","grey","blue","green","red"],"door_color_assignment":["white","black"],"door_generator_assignment":[1,0],"goal":1,"start":4,"action_noise":0.15,"location_history":"[4,5,0,1]","action_history":"[0,0,1]","door_history":"[1,1,0]","location_rts":"[1084,775,179]","trial_type":"two-door-navigation","trial_index":49,"time_elapsed":605208,"internal_node_id":"0.0-2.0-47.0"},{"group":"hexagon_bi","room_assignment":["purple","yellow","grey","blue","green","red"],"door_color_assignment":["white","black"],"door_generator_assignment":[1,0],"goal":5,"start":1,"action_noise":0.15,"location_history":"[1,2,3,2,3,4,5]","action_history":"[0,1,0,1,0,1]","door_history":"[1,0,1,0,1,0]","location_rts":"[1368,458,150,634,760,468]","trial_type":"two-door-navigation","trial_index":50,"time_elapsed":618673,"internal_node_id":"0.0-2.0-48.0"},{"group":"hexagon_bi","room_assignment":["purple","yellow","grey","blue","green","red"],"door_color_assignment":["white","black"],"door_generator_assignment":[1,0],"goal":3,"start":5,"action_noise":0.15,"location_history":"[5,0,1,2,1,0,5,4,3]","action_history":"[0,1,0,0,1,0,1,0]","door_history":"[1,0,1,1,0,1,0,1]","location_rts":"[1760,375,526,501,618,226,324,697]","trial_type":"two-door-navigation","trial_index":51,"time_elapsed":635295,"internal_node_id":"0.0-2.0-49.0"},{"view_history":"[{\"page_index\":0,\"viewing_time\":5796}]","rt":5796,"trial_type":"instructions","trial_index":52,"time_elapsed":642091,"internal_node_id":"0.0-3.0"},{"view_history":"[{\"page_index\":0,\"viewing_time\":3743},{\"page_index\":1,\"viewing_time\":7568}]","rt":11312,"trial_type":"instructions","trial_index":53,"time_elapsed":654403,"internal_node_id":"0.0-4.0"},{"group":"hexagon_bi","fractal_assignment":["../images/org_blu.png","../images/blu_wht.png","../images/ylw_slt.png","../images/cyn_red.png","../images/gry_blk.png","../images/pnk_blu.png"],"mutagen_generator_assignment":[0,1],"goal":3,"start":5,"action_noise":0.15,"location_history":"[5,0,1,0,1,0,5,0,5,4,3]","action_history":"[0,1,1,1,1,0,0,0,1,0]","mutagen_history":"[0,1,1,1,1,0,0,0,1,0]","location_rts":"[6781,619,639,501,443,434,743,537,480,457]","trial_type":"fractal-mutation","trial_index":54,"time_elapsed":679878,"internal_node_id":"0.0-5.0-0.0"},{"group":"hexagon_bi","fractal_assignment":["../images/org_blu.png","../images/blu_wht.png","../images/ylw_slt.png","../images/cyn_red.png","../images/gry_blk.png","../images/pnk_blu.png"],"mutagen_generator_assignment":[0,1],"goal":1,"start":3,"action_noise":0.15,"location_history":"[3,4,5,0,1]","action_history":"[0,1,0,1]","mutagen_history":"[0,1,0,1]","location_rts":"[2658,445,1083,337]","trial_type":"fractal-mutation","trial_index":55,"time_elapsed":692036,"internal_node_id":"0.0-5.0-1.0"},{"group":"hexagon_bi","fractal_assignment":["../images/org_blu.png","../images/blu_wht.png","../images/ylw_slt.png","../images/cyn_red.png","../images/gry_blk.png","../images/pnk_blu.png"],"mutagen_generator_assignment":[0,1],"goal":0,"start":1,"action_noise":0.15,"location_history":"[1,2,1,2,3,2,1,0]","action_history":"[0,1,0,1,1,0,1]","mutagen_history":"[0,1,0,1,1,0,1]","location_rts":"[1687,515,515,522,397,419,470]","trial_type":"fractal-mutation","trial_index":56,"time_elapsed":707268,"internal_node_id":"0.0-5.0-2.0"},{"group":"hexagon_bi","fractal_assignment":["../images/org_blu.png","../images/blu_wht.png","../images/ylw_slt.png","../images/cyn_red.png","../images/gry_blk.png","../images/pnk_blu.png"],"mutagen_generator_assignment":[0,1],"goal":3,"start":0,"action_noise":0.15,"location_history":"[0,5,4,3]","action_history":"[0,1,0]","mutagen_history":"[0,1,0]","location_rts":"[2518,232,518]","trial_type":"fractal-mutation","trial_index":57,"time_elapsed":717156,"internal_node_id":"0.0-5.0-3.0"},{"group":"hexagon_bi","fractal_assignment":["../images/org_blu.png","../images/blu_wht.png","../images/ylw_slt.png","../images/cyn_red.png","../images/gry_blk.png","../images/pnk_blu.png"],"mutagen_generator_assignment":[0,1],"goal":4,"start":3,"action_noise":0.15,"location_history":"[3,2,1,2,3,2,3,2,1,2,1,0,5,0,5,0,1,2,3,4]","action_history":"[1,0,0,1,0,1,1,0,0,0,1,0,1,0,0,1,0,1,0]","mutagen_history":"[1,0,0,1,0,1,1,0,0,0,1,0,1,0,0,1,0,1,0]","location_rts":"[1277,563,1054,134,409,494,540,298,496,812,213,592,255,421,759,123,988,672,198]","trial_type":"fractal-mutation","trial_index":58,"time_elapsed":750685,"internal_node_id":"0.0-5.0-4.0"},{"group":"hexagon_bi","fractal_assignment":["../images/org_blu.png","../images/blu_wht.png","../images/ylw_slt.png","../images/cyn_red.png","../images/gry_blk.png","../images/pnk_blu.png"],"mutagen_generator_assignment":[0,1],"goal":2,"start":4,"action_noise":0.15,"location_history":"[4,3,2]","action_history":"[0,1]","mutagen_history":"[0,1]","location_rts":"[750,569]","trial_type":"fractal-mutation","trial_index":59,"time_elapsed":757596,"internal_node_id":"0.0-5.0-5.0"},{"group":"hexagon_bi","fractal_assignment":["../images/org_blu.png","../images/blu_wht.png","../images/ylw_slt.png","../images/cyn_red.png","../images/gry_blk.png","../images/pnk_blu.png"],"mutagen_generator_assignment":[0,1],"goal":1,"start":2,"action_noise":0.15,"location_history":"[2,3,2,3,4,5,4,3,2,1]","action_history":"[1,1,1,0,1,1,0,1,0]","mutagen_history":"[1,1,1,0,1,1,0,1,0]","location_rts":"[1244,855,605,198,814,923,395,375,411]","trial_type":"fractal-mutation","trial_index":60,"time_elapsed":776199,"internal_node_id":"0.0-5.0-6.0"},{"group":"hexagon_bi","fractal_assignment":["../images/org_blu.png","../images/blu_wht.png","../images/ylw_slt.png","../images/cyn_red.png","../images/gry_blk.png","../images/pnk_blu.png"],"mutagen_generator_assignment":[0,1],"goal":5,"start":1,"action_noise":0.15,"location_history":"[1,0,1,2,3,4,5]","action_history":"[0,1,0,1,0,1]","mutagen_history":"[0,1,0,1,0,1]","location_rts":"[1675,384,1070,371,575,410]","trial_type":"fractal-mutation","trial_index":61,"time_elapsed":790461,"internal_node_id":"0.0-5.0-7.0"},{"group":"hexagon_bi","fractal_assignment":["../images/org_blu.png","../images/blu_wht.png","../images/ylw_slt.png","../images/cyn_red.png","../images/gry_blk.png","../images/pnk_blu.png"],"mutagen_generator_assignment":[0,1],"goal":4,"start":5,"action_noise":0.15,"location_history":"[5,4]","action_history":"[1]","mutagen_history":"[1]","location_rts":"[504]","trial_type":"fractal-mutation","trial_index":62,"time_elapsed":795488,"internal_node_id":"0.0-5.0-8.0"},{"group":"hexagon_bi","fractal_assignment":["../images/org_blu.png","../images/blu_wht.png","../images/ylw_slt.png","../images/cyn_red.png","../images/gry_blk.png","../images/pnk_blu.png"],"mutagen_generator_assignment":[0,1],"goal":2,"start":4,"action_noise":0.15,"location_history":"[4,3,2]","action_history":"[0,1]","mutagen_history":"[0,1]","location_rts":"[2535,538]","trial_type":"fractal-mutation","trial_index":63,"time_elapsed":804139,"internal_node_id":"0.0-5.0-9.0"},{"group":"hexagon_bi","fractal_assignment":["../images/org_blu.png","../images/blu_wht.png","../images/ylw_slt.png","../images/cyn_red.png","../images/gry_blk.png","../images/pnk_blu.png"],"mutagen_generator_assignment":[0,1],"goal":0,"start":2,"action_noise":0.15,"location_history":"[2,3,4,5,4,5,0]","action_history":"[1,0,1,1,1,0]","mutagen_history":"[1,0,1,1,1,0]","location_rts":"[1575,92,531,900,710,266]","trial_type":"fractal-mutation","trial_index":64,"time_elapsed":817922,"internal_node_id":"0.0-5.0-10.0"},{"group":"hexagon_bi","fractal_assignment":["../images/org_blu.png","../images/blu_wht.png","../images/ylw_slt.png","../images/cyn_red.png","../images/gry_blk.png","../images/pnk_blu.png"],"mutagen_generator_assignment":[0,1],"goal":1,"start":0,"action_noise":0.15,"location_history":"[0,5,4,3,4,5,4,3,4,5,0,1]","action_history":"[0,1,0,0,1,1,0,1,0,0,1]","mutagen_history":"[0,1,0,0,1,1,0,1,0,0,1]","location_rts":"[463,788,221,900,164,777,73,278,572,125,304]","trial_type":"fractal-mutation","trial_index":65,"time_elapsed":837486,"internal_node_id":"0.0-5.0-11.0"},{"group":"hexagon_bi","fractal_assignment":["../images/org_blu.png","../images/blu_wht.png","../images/ylw_slt.png","../images/cyn_red.png","../images/gry_blk.png","../images/pnk_blu.png"],"mutagen_generator_assignment":[0,1],"goal":3,"start":1,"action_noise":0.15,"location_history":"[1,2,3]","action_history":"[0,1]","mutagen_history":"[0,1]","location_rts":"[1475,646]","trial_type":"fractal-mutation","trial_index":66,"time_elapsed":845169,"internal_node_id":"0.0-5.0-12.0"},{"group":"hexagon_bi","fractal_assignment":["../images/org_blu.png","../images/blu_wht.png","../images/ylw_slt.png","../images/cyn_red.png","../images/gry_blk.png","../images/pnk_blu.png"],"mutagen_generator_assignment":[0,1],"goal":5,"start":3,"action_noise":0.15,"location_history":"[3,4,5]","action_history":"[0,1]","mutagen_history":"[0,1]","location_rts":"[1458,223]","trial_type":"fractal-mutation","trial_index":67,"time_elapsed":852397,"internal_node_id":"0.0-5.0-13.0"},{"group":"hexagon_bi","fractal_assignment":["../images/org_blu.png","../images/blu_wht.png","../images/ylw_slt.png","../images/cyn_red.png","../images/gry_blk.png","../images/pnk_blu.png"],"mutagen_generator_assignment":[0,1],"goal":4,"start":5,"action_noise":0.15,"location_history":"[5,4]","action_history":"[1]","mutagen_history":"[1]","location_rts":"[486]","trial_type":"fractal-mutation","trial_index":68,"time_elapsed":857411,"internal_node_id":"0.0-5.0-14.0"},{"group":"hexagon_bi","fractal_assignment":["../images/org_blu.png","../images/blu_wht.png","../images/ylw_slt.png","../images/cyn_red.png","../images/gry_blk.png","../images/pnk_blu.png"],"mutagen_generator_assignment":[0,1],"goal":0,"start":4,"action_noise":0.15,"location_history":"[4,3,2,3,4,5,0]","action_history":"[0,1,1,0,1,0]","mutagen_history":"[0,1,1,0,1,0]","location_rts":"[398,348,193,158,161,438]","trial_type":"fractal-mutation","trial_index":69,"time_elapsed":868819,"internal_node_id":"0.0-5.0-15.0"},{"group":"hexagon_bi","fractal_assignment":["../images/org_blu.png","../images/blu_wht.png","../images/ylw_slt.png","../images/cyn_red.png","../images/gry_blk.png","../images/pnk_blu.png"],"mutagen_generator_assignment":[0,1],"goal":3,"start":0,"action_noise":0.15,"location_history":"[0,5,4,3]","action_history":"[0,1,0]","mutagen_history":"[0,1,0]","location_rts":"[20699,439,651]","trial_type":"fractal-mutation","trial_index":70,"time_elapsed":897184,"internal_node_id":"0.0-5.0-16.0"},{"group":"hexagon_bi","fractal_assignment":["../images/org_blu.png","../images/blu_wht.png","../images/ylw_slt.png","../images/cyn_red.png","../images/gry_blk.png","../images/pnk_blu.png"],"mutagen_generator_assignment":[0,1],"goal":1,"start":3,"action_noise":0.15,"location_history":"[3,4,5,4,3,4,5,0,1]","action_history":"[0,1,0,0,1,1,0,1]","mutagen_history":"[0,1,0,0,1,1,0,1]","location_rts":"[374,271,543,475,138,638,186,553]","trial_type":"fractal-mutation","trial_index":71,"time_elapsed":912216,"internal_node_id":"0.0-5.0-17.0"},{"group":"hexagon_bi","fractal_assignment":["../images/org_blu.png","../images/blu_wht.png","../images/ylw_slt.png","../images/cyn_red.png","../images/gry_blk.png","../images/pnk_blu.png"],"mutagen_generator_assignment":[0,1],"goal":5,"start":1,"action_noise":0.15,"location_history":"[1,0,5]","action_history":"[0,1]","mutagen_history":"[0,1]","location_rts":"[4126,532]","trial_type":"fractal-mutation","trial_index":72,"time_elapsed":922441,"internal_node_id":"0.0-5.0-18.0"},{"group":"hexagon_bi","fractal_assignment":["../images/org_blu.png","../images/blu_wht.png","../images/ylw_slt.png","../images/cyn_red.png","../images/gry_blk.png","../images/pnk_blu.png"],"mutagen_generator_assignment":[0,1],"goal":2,"start":5,"action_noise":0.15,"location_history":"[5,4,5,4,5,0,1,0,5,4,3,2]","action_history":"[1,0,0,1,0,1,1,0,1,0,1]","mutagen_history":"[1,0,0,1,0,1,1,0,1,0,1]","location_rts":"[1744,507,763,446,737,231,831,466,461,271,1053]","trial_type":"fractal-mutation","trial_index":73,"time_elapsed":944815,"internal_node_id":"0.0-5.0-19.0"},{"group":"hexagon_bi","fractal_assignment":["../images/org_blu.png","../images/blu_wht.png","../images/ylw_slt.png","../images/cyn_red.png","../images/gry_blk.png","../images/pnk_blu.png"],"mutagen_generator_assignment":[0,1],"goal":4,"start":2,"action_noise":0.15,"location_history":"[2,3,2,1,2,3,2,1,0,5,4]","action_history":"[1,0,0,0,1,0,0,1,0,1]","mutagen_history":"[1,0,0,0,1,0,0,1,0,1]","location_rts":"[1368,228,654,817,367,70,587,157,852,571]","trial_type":"fractal-mutation","trial_index":74,"time_elapsed":964295,"internal_node_id":"0.0-5.0-20.0"},{"group":"hexagon_bi","fractal_assignment":["../images/org_blu.png","../images/blu_wht.png","../images/ylw_slt.png","../images/cyn_red.png","../images/gry_blk.png","../images/pnk_blu.png"],"mutagen_generator_assignment":[0,1],"goal":1,"start":4,"action_noise":0.15,"location_history":"[4,3,2,1]","action_history":"[0,1,0]","mutagen_history":"[0,1,0]","location_rts":"[2477,679,1457]","trial_type":"fractal-mutation","trial_index":75,"time_elapsed":975492,"internal_node_id":"0.0-5.0-21.0"},{"group":"hexagon_bi","fractal_assignment":["../images/org_blu.png","../images/blu_wht.png","../images/ylw_slt.png","../images/cyn_red.png","../images/gry_blk.png","../images/pnk_blu.png"],"mutagen_generator_assignment":[0,1],"goal":3,"start":1,"action_noise":0.15,"location_history":"[1,0,5,4,5,4,3]","action_history":"[1,0,0,1,0,0]","mutagen_history":"[1,0,0,1,0,0]","location_rts":"[1017,717,571,281,595,565]","trial_type":"fractal-mutation","trial_index":76,"time_elapsed":988989,"internal_node_id":"0.0-5.0-22.0"},{"group":"hexagon_bi","fractal_assignment":["../images/org_blu.png","../images/blu_wht.png","../images/ylw_slt.png","../images/cyn_red.png","../images/gry_blk.png","../images/pnk_blu.png"],"mutagen_generator_assignment":[0,1],"goal":2,"start":3,"action_noise":0.15,"location_history":"[3,2]","action_history":"[1]","mutagen_history":"[1]","location_rts":"[1665]","trial_type":"fractal-mutation","trial_index":77,"time_elapsed":995210,"internal_node_id":"0.0-5.0-23.0"},{"group":"hexagon_bi","fractal_assignment":["../images/org_blu.png","../images/blu_wht.png","../images/ylw_slt.png","../images/cyn_red.png","../images/gry_blk.png","../images/pnk_blu.png"],"mutagen_generator_assignment":[0,1],"goal":0,"start":2,"action_noise":0.15,"location_history":"[2,3,4,3,4,3,4,5,0]","action_history":"[1,0,0,1,0,0,1,0]","mutagen_history":"[1,0,0,1,0,0,1,0]","location_rts":"[1702,456,892,725,509,773,310,1604]","trial_type":"fractal-mutation","trial_index":78,"time_elapsed":1013978,"internal_node_id":"0.0-5.0-24.0"},{"group":"hexagon_bi","fractal_assignment":["../images/org_blu.png","../images/blu_wht.png","../images/ylw_slt.png","../images/cyn_red.png","../images/gry_blk.png","../images/pnk_blu.png"],"mutagen_generator_assignment":[0,1],"goal":5,"start":0,"action_noise":0.15,"location_history":"[0,1,2,1,0,1,0,1,2,1,0,5]","action_history":"[1,0,0,1,0,1,1,0,0,1,0]","mutagen_history":"[1,0,0,1,0,1,1,0,0,1,0]","location_rts":"[2216,1205,433,289,379,860,784,851,1008,1119,399]","trial_type":"fractal-mutation","trial_index":79,"time_elapsed":1038379,"internal_node_id":"0.0-5.0-25.0"},{"group":"hexagon_bi","fractal_assignment":["../images/org_blu.png","../images/blu_wht.png","../images/ylw_slt.png","../images/cyn_red.png","../images/gry_blk.png","../images/pnk_blu.png"],"mutagen_generator_assignment":[0,1],"goal":2,"start":5,"action_noise":0.15,"location_history":"[5,0,1,2]","action_history":"[0,1,0]","mutagen_history":"[0,1,0]","location_rts":"[1245,878,231]","trial_type":"fractal-mutation","trial_index":80,"time_elapsed":1047399,"internal_node_id":"0.0-5.0-26.0"},{"group":"hexagon_bi","fractal_assignment":["../images/org_blu.png","../images/blu_wht.png","../images/ylw_slt.png","../images/cyn_red.png","../images/gry_blk.png","../images/pnk_blu.png"],"mutagen_generator_assignment":[0,1],"goal":3,"start":2,"action_noise":0.15,"location_history":"[2,1,0,5,4,5,0,1,2,3]","action_history":"[0,1,0,1,1,0,0,0,1]","mutagen_history":"[0,1,0,1,1,0,0,0,1]","location_rts":"[557,376,376,511,1048,353,642,667,849]","trial_type":"fractal-mutation","trial_index":81,"time_elapsed":1065678,"internal_node_id":"0.0-5.0-27.0"},{"group":"hexagon_bi","fractal_assignment":["../images/org_blu.png","../images/blu_wht.png","../images/ylw_slt.png","../images/cyn_red.png","../images/gry_blk.png","../images/pnk_blu.png"],"mutagen_generator_assignment":[0,1],"goal":0,"start":3,"action_noise":0.15,"location_history":"[3,4,5,0]","action_history":"[0,1,0]","mutagen_history":"[0,1,0]","location_rts":"[6106,575,540]","trial_type":"fractal-mutation","trial_index":82,"time_elapsed":1079468,"internal_node_id":"0.0-5.0-28.0"},{"group":"hexagon_bi","fractal_assignment":["../images/org_blu.png","../images/blu_wht.png","../images/ylw_slt.png","../images/cyn_red.png","../images/gry_blk.png","../images/pnk_blu.png"],"mutagen_generator_assignment":[0,1],"goal":1,"start":0,"action_noise":0.15,"location_history":"[0,5,0,1]","action_history":"[0,1,0]","mutagen_history":"[0,1,0]","location_rts":"[1745,878,272]","trial_type":"fractal-mutation","trial_index":83,"time_elapsed":1088952,"internal_node_id":"0.0-5.0-29.0"},{"group":"hexagon_bi","fractal_assignment":["../images/org_blu.png","../images/blu_wht.png","../images/ylw_slt.png","../images/cyn_red.png","../images/gry_blk.png","../images/pnk_blu.png"],"mutagen_generator_assignment":[0,1],"goal":4,"start":1,"action_noise":0.15,"location_history":"[1,2,1,2,3,2,1,2,1,2,1,2,3,2,3,4]","action_history":"[0,1,0,1,1,0,0,0,0,0,0,1,1,1,0]","mutagen_history":"[0,1,0,1,1,0,0,0,0,0,0,1,1,1,0]","location_rts":"[1511,264,574,417,884,316,553,633,432,421,397,553,502,601,628]","trial_type":"fractal-mutation","trial_index":84,"time_elapsed":1116602,"internal_node_id":"0.0-5.0-30.0"},{"group":"hexagon_bi","fractal_assignment":["../images/org_blu.png","../images/blu_wht.png","../images/ylw_slt.png","../images/cyn_red.png","../images/gry_blk.png","../images/pnk_blu.png"],"mutagen_generator_assignment":[0,1],"goal":5,"start":4,"action_noise":0.15,"location_history":"[4,5]","action_history":"[1]","mutagen_history":"[1]","location_rts":"[1288]","trial_type":"fractal-mutation","trial_index":85,"time_elapsed":1122506,"internal_node_id":"0.0-5.0-31.0"},{"group":"hexagon_bi","fractal_assignment":["../images/org_blu.png","../images/blu_wht.png","../images/ylw_slt.png","../images/cyn_red.png","../images/gry_blk.png","../images/pnk_blu.png"],"mutagen_generator_assignment":[0,1],"goal":0,"start":5,"action_noise":0.15,"location_history":"[5,4,3,2,1,2,3,4,5,4,5,0]","action_history":"[1,0,1,0,0,1,0,0,1,0,0]","mutagen_history":"[1,0,1,0,0,1,0,0,1,0,0]","location_rts":"[1788,920,656,503,611,649,270,996,519,906,648]","trial_type":"fractal-mutation","trial_index":86,"time_elapsed":1145844,"internal_node_id":"0.0-5.0-32.0"},{"group":"hexagon_bi","fractal_assignment":["../images/org_blu.png","../images/blu_wht.png","../images/ylw_slt.png","../images/cyn_red.png","../images/gry_blk.png","../images/pnk_blu.png"],"mutagen_generator_assignment":[0,1],"goal":3,"start":0,"action_noise":0.15,"location_history":"[0,1,0,5,4,3]","action_history":"[1,0,0,1,0]","mutagen_history":"[1,0,0,1,0]","location_rts":"[1960,563,1154,688,886]","trial_type":"fractal-mutation","trial_index":87,"time_elapsed":1159717,"internal_node_id":"0.0-5.0-33.0"},{"group":"hexagon_bi","fractal_assignment":["../images/org_blu.png","../images/blu_wht.png","../images/ylw_slt.png","../images/cyn_red.png","../images/gry_blk.png","../images/pnk_blu.png"],"mutagen_generator_assignment":[0,1],"goal":1,"start":3,"action_noise":0.15,"location_history":"[3,4,5,0,5,0,5,0,1]","action_history":"[0,1,0,0,1,0,0,1]","mutagen_history":"[0,1,0,0,1,0,0,1]","location_rts":"[1487,588,1322,894,682,151,694,185]","trial_type":"fractal-mutation","trial_index":88,"time_elapsed":1177507,"internal_node_id":"0.0-5.0-34.0"},{"group":"hexagon_bi","fractal_assignment":["../images/org_blu.png","../images/blu_wht.png","../images/ylw_slt.png","../images/cyn_red.png","../images/gry_blk.png","../images/pnk_blu.png"],"mutagen_generator_assignment":[0,1],"goal":2,"start":1,"action_noise":0.15,"location_history":"[1,0,5,4,5,0,1,2]","action_history":"[1,0,0,1,0,1,0]","mutagen_history":"[1,0,0,1,0,1,0]","location_rts":"[6158,484,442,579,559,518,968]","trial_type":"fractal-mutation","trial_index":89,"time_elapsed":1198001,"internal_node_id":"0.0-5.0-35.0"},{"group":"hexagon_bi","fractal_assignment":["../images/org_blu.png","../images/blu_wht.png","../images/ylw_slt.png","../images/cyn_red.png","../images/gry_blk.png","../images/pnk_blu.png"],"mutagen_generator_assignment":[0,1],"goal":4,"start":2,"action_noise":0.15,"location_history":"[2,3,4]","action_history":"[1,0]","mutagen_history":"[1,0]","location_rts":"[1379,476]","trial_type":"fractal-mutation","trial_index":90,"time_elapsed":1205471,"internal_node_id":"0.0-5.0-36.0"},{"group":"hexagon_bi","fractal_assignment":["../images/org_blu.png","../images/blu_wht.png","../images/ylw_slt.png","../images/cyn_red.png","../images/gry_blk.png","../images/pnk_blu.png"],"mutagen_generator_assignment":[0,1],"goal":5,"start":4,"action_noise":0.15,"location_history":"[4,3,2,1,0,1,2,1,0,5]","action_history":"[0,1,0,0,1,0,0,1,0]","mutagen_history":"[0,1,0,0,1,0,0,1,0]","location_rts":"[1159,835,470,613,714,1389,730,895,726]","trial_type":"fractal-mutation","trial_index":91,"time_elapsed":1225750,"internal_node_id":"0.0-5.0-37.0"},{"group":"hexagon_bi","fractal_assignment":["../images/org_blu.png","../images/blu_wht.png","../images/ylw_slt.png","../images/cyn_red.png","../images/gry_blk.png","../images/pnk_blu.png"],"mutagen_generator_assignment":[0,1],"goal":1,"start":5,"action_noise":0.15,"location_history":"[5,0,1]","action_history":"[0,1]","mutagen_history":"[0,1]","location_rts":"[3009,496]","trial_type":"fractal-mutation","trial_index":92,"time_elapsed":1234830,"internal_node_id":"0.0-5.0-38.0"},{"group":"hexagon_bi","fractal_assignment":["../images/org_blu.png","../images/blu_wht.png","../images/ylw_slt.png","../images/cyn_red.png","../images/gry_blk.png","../images/pnk_blu.png"],"mutagen_generator_assignment":[0,1],"goal":4,"start":1,"action_noise":0.15,"location_history":"[1,0,5,0,1,2,1,0,1,2,3,4]","action_history":"[1,0,0,1,1,0,1,1,0,1,1]","mutagen_history":"[1,0,0,1,1,0,1,1,0,1,1]","location_rts":"[1307,1244,433,324,605,95,872,316,212,262,3375]","trial_type":"fractal-mutation","trial_index":93,"time_elapsed":1258840,"internal_node_id":"0.0-5.0-39.0"},{"group":"hexagon_bi","fractal_assignment":["../images/org_blu.png","../images/blu_wht.png","../images/ylw_slt.png","../images/cyn_red.png","../images/gry_blk.png","../images/pnk_blu.png"],"mutagen_generator_assignment":[0,1],"goal":3,"start":4,"action_noise":0.15,"location_history":"[4,5,0,5,0,5,4,3]","action_history":"[1,0,1,0,0,1,0]","mutagen_history":"[1,0,1,0,0,1,0]","location_rts":"[451,542,163,469,188,174,122]","trial_type":"fractal-mutation","trial_index":94,"time_elapsed":1271797,"internal_node_id":"0.0-5.0-40.0"},{"group":"hexagon_bi","fractal_assignment":["../images/org_blu.png","../images/blu_wht.png","../images/ylw_slt.png","../images/cyn_red.png","../images/gry_blk.png","../images/pnk_blu.png"],"mutagen_generator_assignment":[0,1],"goal":2,"start":3,"action_noise":0.15,"location_history":"[3,2]","action_history":"[1]","mutagen_history":"[1]","location_rts":"[1580]","trial_type":"fractal-mutation","trial_index":95,"time_elapsed":1277959,"internal_node_id":"0.0-5.0-41.0"},{"group":"hexagon_bi","fractal_assignment":["../images/org_blu.png","../images/blu_wht.png","../images/ylw_slt.png","../images/cyn_red.png","../images/gry_blk.png","../images/pnk_blu.png"],"mutagen_generator_assignment":[0,1],"goal":0,"start":2,"action_noise":0.15,"location_history":"[2,1,2,1,2,3,4,5,0]","action_history":"[0,1,0,0,1,0,1,0]","mutagen_history":"[0,1,0,0,1,0,1,0]","location_rts":"[998,2738,728,395,581,916,792,773]","trial_type":"fractal-mutation","trial_index":96,"time_elapsed":1297611,"internal_node_id":"0.0-5.0-42.0"},{"group":"hexagon_bi","fractal_assignment":["../images/org_blu.png","../images/blu_wht.png","../images/ylw_slt.png","../images/cyn_red.png","../images/gry_blk.png","../images/pnk_blu.png"],"mutagen_generator_assignment":[0,1],"goal":5,"start":0,"action_noise":0.15,"location_history":"[0,5]","action_history":"[0]","mutagen_history":"[0]","location_rts":"[1963]","trial_type":"fractal-mutation","trial_index":97,"time_elapsed":1304100,"internal_node_id":"0.0-5.0-43.0"},{"group":"hexagon_bi","fractal_assignment":["../images/org_blu.png","../images/blu_wht.png","../images/ylw_slt.png","../images/cyn_red.png","../images/gry_blk.png","../images/pnk_blu.png"],"mutagen_generator_assignment":[0,1],"goal":0,"start":5,"action_noise":0.15,"location_history":"[5,0]","action_history":"[0]","mutagen_history":"[0]","location_rts":"[1260]","trial_type":"fractal-mutation","trial_index":98,"time_elapsed":1309898,"internal_node_id":"0.0-5.0-44.0"},{"group":"hexagon_bi","fractal_assignment":["../images/org_blu.png","../images/blu_wht.png","../images/ylw_slt.png","../images/cyn_red.png","../images/gry_blk.png","../images/pnk_blu.png"],"mutagen_generator_assignment":[0,1],"goal":2,"start":0,"action_noise":0.15,"location_history":"[0,5,0,1,2]","action_history":"[1,0,0,0]","mutagen_history":"[1,0,0,0]","location_rts":"[1263,177,589,875]","trial_type":"fractal-mutation","trial_index":99,"time_elapsed":1320401,"internal_node_id":"0.0-5.0-45.0"},{"group":"hexagon_bi","fractal_assignment":["../images/org_blu.png","../images/blu_wht.png","../images/ylw_slt.png","../images/cyn_red.png","../images/gry_blk.png","../images/pnk_blu.png"],"mutagen_generator_assignment":[0,1],"goal":4,"start":2,"action_noise":0.15,"location_history":"[2,3,4]","action_history":"[1,0]","mutagen_history":"[1,0]","location_rts":"[1296,416]","trial_type":"fractal-mutation","trial_index":100,"time_elapsed":1327857,"internal_node_id":"0.0-5.0-46.0"},{"group":"hexagon_bi","fractal_assignment":["../images/org_blu.png","../images/blu_wht.png","../images/ylw_slt.png","../images/cyn_red.png","../images/gry_blk.png","../images/pnk_blu.png"],"mutagen_generator_assignment":[0,1],"goal":1,"start":4,"action_noise":0.15,"location_history":"[4,3,4,3,2,3,2,3,4,3,2,3,4,5,4,3,2,3,4,3,4,5,0,1]","action_history":"[1,0,0,1,0,1,1,0,0,1,1,0,0,1,0,1,1,0,0,1,1,0,1]","mutagen_history":"[1,0,0,1,0,1,1,0,0,1,1,0,0,1,0,1,1,0,0,1,1,0,1]","location_rts":"[1743,884,521,104,971,640,645,730,766,569,599,386,668,703,735,561,477,419,696,219,606,595,1341]","trial_type":"fractal-mutation","trial_index":101,"time_elapsed":1370899,"internal_node_id":"0.0-5.0-47.0"},{"group":"hexagon_bi","fractal_assignment":["../images/org_blu.png","../images/blu_wht.png","../images/ylw_slt.png","../images/cyn_red.png","../images/gry_blk.png","../images/pnk_blu.png"],"mutagen_generator_assignment":[0,1],"goal":5,"start":1,"action_noise":0.15,"location_history":"[1,2,1,0,5]","action_history":"[0,1,0,1]","mutagen_history":"[0,1,0,1]","location_rts":"[836,652,1409,1154]","trial_type":"fractal-mutation","trial_index":102,"time_elapsed":1382734,"internal_node_id":"0.0-5.0-48.0"},{"group":"hexagon_bi","fractal_assignment":["../images/org_blu.png","../images/blu_wht.png","../images/ylw_slt.png","../images/cyn_red.png","../images/gry_blk.png","../images/pnk_blu.png"],"mutagen_generator_assignment":[0,1],"goal":3,"start":5,"action_noise":0.15,"location_history":"[5,4,5,4,3]","action_history":"[1,0,1,0]","mutagen_history":"[1,0,1,0]","location_rts":"[1714,423,871,515]","trial_type":"fractal-mutation","trial_index":103,"time_elapsed":1394389,"internal_node_id":"0.0-5.0-49.0"},{"view_history":"[{\"page_index\":0,\"viewing_time\":35419}]","rt":35419,"trial_type":"instructions","trial_index":104,"time_elapsed":1430816,"internal_node_id":"0.0-6.0"},{"rt":4801,"responses":"{\"Q0\":\"None\"}","trial_type":"survey-text","trial_index":105,"time_elapsed":1436723,"internal_node_id":"0.0-7.0"}]