[{"view_history":"[{\"page_index\":0,\"viewing_time\":16488},{\"page_index\":1,\"viewing_time\":152722}]","rt":169212,"trial_type":"instructions","trial_index":0,"time_elapsed":169216,"internal_node_id":"0.0-0.0"},{"view_history":"[{\"page_index\":0,\"viewing_time\":9199},{\"page_index\":1,\"viewing_time\":3889}]","rt":13089,"trial_type":"instructions","trial_index":1,"time_elapsed":183307,"internal_node_id":"0.0-1.0"},{"group":"hexagon_bi","room_assignment":["grey","green","purple","blue","yellow","red"],"door_color_assignment":["white","black"],"door_generator_assignment":[1,0],"goal":3,"start":5,"action_noise":0.15,"location_history":"[5,4,5,0,1,0,1,0,1,0,1,2,3]","action_history":"[1,0,0,1,0,1,1,0,1,1,0,1]","door_history":"[0,1,1,0,1,0,0,1,0,0,1,0]","location_rts":"[2402,579,385,754,855,1548,407,1110,871,1039,393,968]","trial_type":"two-door-navigation","trial_index":2,"time_elapsed":210168,"internal_node_id":"0.0-2.0-0.0"},{"group":"hexagon_bi","room_assignment":["grey","green","purple","blue","yellow","red"],"door_color_assignment":["white","black"],"door_generator_assignment":[1,0],"goal":1,"start":3,"action_noise":0.15,"location_history":"[3,2,1]","action_history":"[1,0]","door_history":"[0,1]","location_rts":"[513,595]","trial_type":"two-door-navigation","trial_index":3,"time_elapsed":216782,"internal_node_id":"0.0-2.0-1.0"},{"group":"hexagon_bi","room_assignment":["grey","green","purple","blue","yellow","red"],"door_color_assignment":["white","black"],"door_generator_assignment":[1,0],"goal":0,"start":1,"action_noise":0.15,"location_history":"[1,2,1,0]","action_history":"[1,0,1]","door_history":"[0,1,0]","location_rts":"[759,1641,917]","trial_type":"two-door-navigation","trial_index":4,"time_elapsed":226620,"internal_node_id":"0.0-2.0-2.0"},{"group":"hexagon_bi","room_assignment":["grey","green","purple","blue","yellow","red"],"door_color_assignment":["white","black"],"door_generator_assignment":[1,0],"goal":3,"start":0,"action_noise":0.15,"location_history":"[0,1,0,5,4,5,4,5,4,5,0,1,0,1,2,3]","action_history":"[1,0,0,1,1,0,1,1,1,0,0,1,1,0,1]","door_history":"[0,1,1,0,0,1,0,0,0,1,1,0,0,1,0]","location_rts":"[425,643,463,257,985,991,2106,7244,655,293,916,1015,709,361,656]","trial_type":"two-door-navigation","trial_index":5,"time_elapsed":262871,"internal_node_id":"0.0-2.0-3.0"},{"group":"hexagon_bi","room_assignment":["grey","green","purple","blue","yellow","red"],"door_color_assignment":["white","black"],"door_generator_assignment":[1,0],"goal":4,"start":3,"action_noise":0.15,"location_history":"[3,2,1,2,1,0,5,4]","action_history":"[1,0,1,0,1,1,1]","door_history":"[0,1,0,1,0,0,0]","location_rts":"[365,781,820,1350,773,480,440]","trial_type":"two-door-navigation","trial_index":6,"time_elapsed":279269,"internal_node_id":"0.0-2.0-4.0"},{"group":"hexagon_bi","room_assignment":["grey","green","purple","blue","yellow","red"],"door_color_assignment":["white","black"],"door_generator_assignment":[1,0],"goal":2,"start":4,"action_noise":0.15,"location_history":"[4,3,4,5,0,5,4,3,4,3,4,5,0,1,0,1,0,1,0,1,0,5,0,5,4,3,4,5,0,1,2]","action_history":"[1,0,1,0,1,1,0,0,1,0,1,1,1,1,1,1,1,0,0,1,0,1,0,1,0,0,1,0,1,0]","door_history":"[0,1,0,1,0,0,1,1,0,1,0,0,0,0,0,0,0,1,1,0,1,0,1,0,1,1,0,1,0,1]","location_rts":"[1301,545,1413,509,1016,283,450,1500,1743,936,2071,1215,498,373,344,310,299,338,775,1722,686,1380,1060,1041,1131,609,1199,779,1265,922]","trial_type":"two-door-navigation","trial_index":7,"time_elapsed":340536,"internal_node_id":"0.0-2.0-5.0"},{"group":"hexagon_bi","room_assignment":["grey","green","purple","blue","yellow","red"],"door_color_assignment":["white","black"],"door_generator_assignment":[1,0],"goal":1,"start":2,"action_noise":0.15,"location_history":"[2,1]","action_history":"[0]","door_history":"[1]","location_rts":"[1918]","trial_type":"two-door-navigation","trial_index":8,"time_elapsed":346959,"internal_node_id":"0.0-2.0-6.0"},{"group":"hexagon_bi","room_assignment":["grey","green","purple","blue","yellow","red"],"door_color_assignment":["white","black"],"door_generator_assignment":[1,0],"goal":5,"start":1,"action_noise":0.15,"location_history":"[1,2,3,4,3,2,3,4,3,2,1,0,5]","action_history":"[1,0,1,0,1,1,0,0,1,0,1,0]","door_history":"[0,1,0,1,0,0,1,1,0,1,0,1]","location_rts":"[419,512,490,716,707,616,332,441,906,800,1000,808]","trial_type":"two-door-navigation","trial_index":9,"time_elapsed":370227,"internal_node_id":"0.0-2.0-7.0"},{"group":"hexagon_bi","room_assignment":["grey","green","purple","blue","yellow","red"],"door_color_assignment":["white","black"],"door_generator_assignment":[1,0],"goal":4,"start":5,"action_noise":0.15,"location_history":"[5,4]","action_history":"[1]","door_history":"[0]","location_rts":"[633]","trial_type":"two-door-navigation","trial_index":10,"time_elapsed":375365,"internal_node_id":"0.0-2.0-8.0"},{"group":"hexagon_bi","room_assignment":["grey","green","purple","blue","yellow","red"],"door_color_assignment":["white","black"],"door_generator_assignment":[1,0],"goal":2,"start":4,"action_noise":0.15,"location_history":"[4,5,4,3,4,3,4,3,2]","action_history":"[0,1,0,0,1,0,0,1]","door_history":"[1,0,1,1,0,1,1,0]","location_rts":"[2012,961,637,596,975,968,902,685]","trial_type":"two-door-navigation","trial_index":11,"time_elapsed":394612,"internal_node_id":"0.0-2.0-9.0"},{"group":"hexagon_bi","room_assignment":["grey","green","purple","blue","yellow","red"],"door_color_assignment":["white","black"],"door_generator_assignment":[1,0],"goal":0,"start":2,"action_noise":0.15,"location_history":"[2,3,2,3,2,3,4,5,4,3,2,1,0]","action_history":"[1,1,0,1,1,0,1,1,0,1,0,1]","door_history":"[0,0,1,0,0,1,0,0,1,0,1,0]","location_rts":"[3695,791,1147,827,523,753,906,786,612,669,975,662]","trial_type":"two-door-navigation","trial_index":12,"time_elapsed":422478,"internal_node_id":"0.0-2.0-10.0"},{"group":"hexagon_bi","room_assignment":["grey","green","purple","blue","yellow","red"],"door_color_assignment":["white","black"],"door_generator_assignment":[1,0],"goal":1,"start":0,"action_noise":0.15,"location_history":"[0,1]","action_history":"[1]","door_history":"[0]","location_rts":"[604]","trial_type":"two-door-navigation","trial_index":13,"time_elapsed":427589,"internal_node_id":"0.0-2.0-11.0"},{"group":"hexagon_bi","room_assignment":["grey","green","purple","blue","yellow","red"],"door_color_assignment":["white","black"],"door_generator_assignment":[1,0],"goal":3,"start":1,"action_noise":0.15,"location_history":"[1,2,3]","action_history":"[0,1]","door_history":"[1,0]","location_rts":"[1171,583]","trial_type":"two-door-navigation","trial_index":14,"time_elapsed":434845,"internal_node_id":"0.0-2.0-12.0"},{"group":"hexagon_bi","room_assignment":["grey","green","purple","blue","yellow","red"],"door_color_assignment":["white","black"],"door_generator_assignment":[1,0],"goal":5,"start":3,"action_noise":0.15,"location_history":"[3,2,3,2,3,4,5]","action_history":"[1,0,1,1,0,1]","door_history":"[0,1,0,0,1,0]","location_rts":"[321,504,443,716,369,618]","trial_type":"two-door-navigation","trial_index":15,"time_elapsed":447328,"internal_node_id":"0.0-2.0-13.0"},{"group":"hexagon_bi","room_assignment":["grey","green","purple","blue","yellow","red"],"door_color_assignment":["white","black"],"door_generator_assignment":[1,0],"goal":4,"start":5,"action_noise":0.15,"location_history":"[5,4]","action_history":"[1]","door_history":"[0]","location_rts":"[794]","trial_type":"two-door-navigation","trial_index":16,"time_elapsed":452625,"internal_node_id":"0.0-2.0-14.0"},{"group":"hexagon_bi","room_assignment":["grey","green","purple","blue","yellow","red"],"door_color_assignment":["white","black"],"door_generator_assignment":[1,0],"goal":0,"start":4,"action_noise":0.15,"location_history":"[4,3,4,3,4,3,2,3,2,1,0]","action_history":"[0,0,1,1,0,1,0,1,0,1]","door_history":"[1,1,0,0,1,0,1,0,1,0]","location_rts":"[876,600,534,3947,1225,717,773,1253,834,1316]","trial_type":"two-door-navigation","trial_index":17,"time_elapsed":478216,"internal_node_id":"0.0-2.0-15.0"},{"group":"hexagon_bi","room_assignment":["grey","green","purple","blue","yellow","red"],"door_color_assignment":["white","black"],"door_generator_assignment":[1,0],"goal":3,"start":0,"action_noise":0.15,"location_history":"[0,1,2,1,2,1,0,5,4,5,0,1,0,5,4,3]","action_history":"[1,0,1,0,0,1,0,1,1,0,1,1,0,1,0]","door_history":"[0,1,0,1,1,0,1,0,0,1,0,0,1,0,1]","location_rts":"[1332,624,1109,525,840,373,866,789,621,562,1116,678,881,670,755]","trial_type":"two-door-navigation","trial_index":18,"time_elapsed":508470,"internal_node_id":"0.0-2.0-16.0"},{"group":"hexagon_bi","room_assignment":["grey","green","purple","blue","yellow","red"],"door_color_assignment":["white","black"],"door_generator_assignment":[1,0],"goal":1,"start":3,"action_noise":0.15,"location_history":"[3,4,5,0,1]","action_history":"[0,1,0,1]","door_history":"[1,0,1,0]","location_rts":"[29528,733,661,1127]","trial_type":"two-door-navigation","trial_index":19,"time_elapsed":548023,"internal_node_id":"0.0-2.0-17.0"},{"group":"hexagon_bi","room_assignment":["grey","green","purple","blue","yellow","red"],"door_color_assignment":["white","black"],"door_generator_assignment":[1,0],"goal":5,"start":1,"action_noise":0.15,"location_history":"[1,2,3,2,1,0,5]","action_history":"[0,1,1,0,1,0]","door_history":"[1,0,0,1,0,1]","location_rts":"[5613,707,550,1628,567,575]","trial_type":"two-door-navigation","trial_index":20,"time_elapsed":567171,"internal_node_id":"0.0-2.0-18.0"},{"group":"hexagon_bi","room_assignment":["grey","green","purple","blue","yellow","red"],"door_color_assignment":["white","black"],"door_generator_assignment":[1,0],"goal":2,"start":5,"action_noise":0.15,"location_history":"[5,0,1,2]","action_history":"[0,1,0]","door_history":"[1,0,1]","location_rts":"[12344,667,608]","trial_type":"two-door-navigation","trial_index":21,"time_elapsed":587291,"internal_node_id":"0.0-2.0-19.0"},{"group":"hexagon_bi","room_assignment":["grey","green","purple","blue","yellow","red"],"door_color_assignment":["white","black"],"door_generator_assignment":[1,0],"goal":4,"start":2,"action_noise":0.15,"location_history":"[2,3,2,1,0,5,0,1,2,1,0,5,0,1,2,3,4]","action_history":"[1,0,0,1,0,0,1,0,0,1,0,0,1,0,1,0]","door_history":"[0,1,1,0,1,1,0,1,1,0,1,1,0,1,0,1]","location_rts":"[1688,467,908,567,1701,506,944,779,914,325,1123,919,599,953,878,1532]","trial_type":"two-door-navigation","trial_index":22,"time_elapsed":621630,"internal_node_id":"0.0-2.0-20.0"},{"group":"hexagon_bi","room_assignment":["grey","green","purple","blue","yellow","red"],"door_color_assignment":["white","black"],"door_generator_assignment":[1,0],"goal":1,"start":4,"action_noise":0.15,"location_history":"[4,5,0,1]","action_history":"[1,0,1]","door_history":"[0,1,0]","location_rts":"[1321,606,678]","trial_type":"two-door-navigation","trial_index":23,"time_elapsed":630739,"internal_node_id":"0.0-2.0-21.0"},{"group":"hexagon_bi","room_assignment":["grey","green","purple","blue","yellow","red"],"door_color_assignment":["white","black"],"door_generator_assignment":[1,0],"goal":3,"start":1,"action_noise":0.15,"location_history":"[1,0,5,4,3]","action_history":"[1,0,1,0]","door_history":"[0,1,0,1]","location_rts":"[1580,750,1119,630]","trial_type":"two-door-navigation","trial_index":24,"time_elapsed":642326,"internal_node_id":"0.0-2.0-22.0"},{"group":"hexagon_bi","room_assignment":["grey","green","purple","blue","yellow","red"],"door_color_assignment":["white","black"],"door_generator_assignment":[1,0],"goal":2,"start":3,"action_noise":0.15,"location_history":"[3,2]","action_history":"[1]","door_history":"[0]","location_rts":"[1051]","trial_type":"two-door-navigation","trial_index":25,"time_elapsed":647881,"internal_node_id":"0.0-2.0-23.0"},{"group":"hexagon_bi","room_assignment":["grey","green","purple","blue","yellow","red"],"door_color_assignment":["white","black"],"door_generator_assignment":[1,0],"goal":0,"start":2,"action_noise":0.15,"location_history":"[2,3,4,5,0]","action_history":"[1,0,1,0]","door_history":"[0,1,0,1]","location_rts":"[1533,530,625,703]","trial_type":"two-door-navigation","trial_index":26,"time_elapsed":658777,"internal_node_id":"0.0-2.0-24.0"},{"group":"hexagon_bi","room_assignment":["grey","green","purple","blue","yellow","red"],"door_color_assignment":["white","black"],"door_generator_assignment":[1,0],"goal":5,"start":0,"action_noise":0.15,"location_history":"[0,5]","action_history":"[1]","door_history":"[0]","location_rts":"[1120]","trial_type":"two-door-navigation","trial_index":27,"time_elapsed":664404,"internal_node_id":"0.0-2.0-25.0"},{"group":"hexagon_bi","room_assignment":["grey","green","purple","blue","yellow","red"],"door_color_assignment":["white","black"],"door_generator_assignment":[1,0],"goal":2,"start":5,"action_noise":0.15,"location_history":"[5,0,5,4,3,2]","action_history":"[1,0,1,0,1]","door_history":"[0,1,0,1,0]","location_rts":"[736,606,670,724,620]","trial_type":"two-door-navigation","trial_index":28,"time_elapsed":676268,"internal_node_id":"0.0-2.0-26.0"},{"group":"hexagon_bi","room_assignment":["grey","green","purple","blue","yellow","red"],"door_color_assignment":["white","black"],"door_generator_assignment":[1,0],"goal":3,"start":2,"action_noise":0.15,"location_history":"[2,3]","action_history":"[0]","door_history":"[1]","location_rts":"[1809]","trial_type":"two-door-navigation","trial_index":29,"time_elapsed":682582,"internal_node_id":"0.0-2.0-27.0"},{"group":"hexagon_bi","room_assignment":["grey","green","purple","blue","yellow","red"],"door_color_assignment":["white","black"],"door_generator_assignment":[1,0],"goal":0,"start":3,"action_noise":0.15,"location_history":"[3,2,1,0]","action_history":"[1,0,1]","door_history":"[0,1,0]","location_rts":"[970,659,526]","trial_type":"two-door-navigation","trial_index":30,"time_elapsed":691243,"internal_node_id":"0.0-2.0-28.0"},{"group":"hexagon_bi","room_assignment":["grey","green","purple","blue","yellow","red"],"door_color_assignment":["white","black"],"door_generator_assignment":[1,0],"goal":1,"start":0,"action_noise":0.15,"location_history":"[0,1]","action_history":"[1]","door_history":"[0]","location_rts":"[807]","trial_type":"two-door-navigation","trial_index":31,"time_elapsed":696557,"internal_node_id":"0.0-2.0-29.0"},{"group":"hexagon_bi","room_assignment":["grey","green","purple","blue","yellow","red"],"door_color_assignment":["white","black"],"door_generator_assignment":[1,0],"goal":4,"start":1,"action_noise":0.15,"location_history":"[1,0,5,0,1,0,5,0,5,0,5,4]","action_history":"[1,0,1,1,1,0,0,0,1,0,1]","door_history":"[0,1,0,0,0,1,1,1,0,1,0]","location_rts":"[716,509,870,1204,716,508,635,1626,289,701,1170]","trial_type":"two-door-navigation","trial_index":32,"time_elapsed":720030,"internal_node_id":"0.0-2.0-30.0"},{"group":"hexagon_bi","room_assignment":["grey","green","purple","blue","yellow","red"],"door_color_assignment":["white","black"],"door_generator_assignment":[1,0],"goal":5,"start":4,"action_noise":0.15,"location_history":"[4,5]","action_history":"[1]","door_history":"[0]","location_rts":"[668]","trial_type":"two-door-navigation","trial_index":33,"time_elapsed":725201,"internal_node_id":"0.0-2.0-31.0"},{"group":"hexagon_bi","room_assignment":["grey","green","purple","blue","yellow","red"],"door_color_assignment":["white","black"],"door_generator_assignment":[1,0],"goal":0,"start":5,"action_noise":0.15,"location_history":"[5,4,3,4,5,4,3,2,3,4,3,2,3,2,3,2,3,4,5,4,3,2,1,0]","action_history":"[1,0,1,1,1,0,1,0,1,0,1,1,1,0,1,1,0,1,1,0,1,0,1]","door_history":"[0,1,0,0,0,1,0,1,0,1,0,0,0,1,0,0,1,0,0,1,0,1,0]","location_rts":"[538,653,880,647,511,449,817,803,575,2117,1208,1137,468,308,540,1128,383,1533,1047,944,787,1099,983]","trial_type":"two-door-navigation","trial_index":34,"time_elapsed":771282,"internal_node_id":"0.0-2.0-32.0"},{"group":"hexagon_bi","room_assignment":["grey","green","purple","blue","yellow","red"],"door_color_assignment":["white","black"],"door_generator_assignment":[1,0],"goal":3,"start":0,"action_noise":0.15,"location_history":"[0,1,0,1,0,5,4,3]","action_history":"[1,0,1,1,0,1,0]","door_history":"[0,1,0,0,1,0,1]","location_rts":"[670,606,768,606,291,842,849]","trial_type":"two-door-navigation","trial_index":35,"time_elapsed":786423,"internal_node_id":"0.0-2.0-33.0"},{"group":"hexagon_bi","room_assignment":["grey","green","purple","blue","yellow","red"],"door_color_assignment":["white","black"],"door_generator_assignment":[1,0],"goal":1,"start":3,"action_noise":0.15,"location_history":"[3,2,1]","action_history":"[1,1]","door_history":"[0,0]","location_rts":"[19267,559]","trial_type":"two-door-navigation","trial_index":36,"time_elapsed":811754,"internal_node_id":"0.0-2.0-34.0"},{"group":"hexagon_bi","room_assignment":["grey","green","purple","blue","yellow","red"],"door_color_assignment":["white","black"],"door_generator_assignment":[1,0],"goal":2,"start":1,"action_noise":0.15,"location_history":"[1,0,1,2]","action_history":"[1,1,0]","door_history":"[0,0,1]","location_rts":"[72729,403,383]","trial_type":"two-door-navigation","trial_index":37,"time_elapsed":891778,"internal_node_id":"0.0-2.0-35.0"},{"group":"hexagon_bi","room_assignment":["grey","green","purple","blue","yellow","red"],"door_color_assignment":["white","black"],"door_generator_assignment":[1,0],"goal":4,"start":2,"action_noise":0.15,"location_history":"[2,1,2,3,2,3,4]","action_history":"[1,0,1,1,1,0]","door_history":"[0,1,0,0,0,1]","location_rts":"[2421,540,1017,1031,458,276]","trial_type":"two-door-navigation","trial_index":38,"time_elapsed":907041,"internal_node_id":"0.0-2.0-36.0"},{"group":"hexagon_bi","room_assignment":["grey","green","purple","blue","yellow","red"],"door_color_assignment":["white","black"],"door_generator_assignment":[1,0],"goal":5,"start":4,"action_noise":0.15,"location_history":"[4,5]","action_history":"[0]","door_history":"[1]","location_rts":"[113597]","trial_type":"two-door-navigation","trial_index":39,"time_elapsed":1025139,"internal_node_id":"0.0-2.0-37.0"},{"group":"hexagon_bi","room_assignment":["grey","green","purple","blue","yellow","red"],"door_color_assignment":["white","black"],"door_generator_assignment":[1,0],"goal":1,"start":5,"action_noise":0.15,"location_history":"[5,0,5,4,3,4,5,0,1]","action_history":"[1,0,1,0,0,1,0,1]","door_history":"[0,1,0,1,1,0,1,0]","location_rts":"[654,730,670,636,325,950,606,1077]","trial_type":"two-door-navigation","trial_index":40,"time_elapsed":1042298,"internal_node_id":"0.0-2.0-38.0"},{"group":"hexagon_bi","room_assignment":["grey","green","purple","blue","yellow","red"],"door_color_assignment":["white","black"],"door_generator_assignment":[1,0],"goal":4,"start":1,"action_noise":0.15,"location_history":"[1,0,5,4]","action_history":"[1,0,1]","door_history":"[0,1,0]","location_rts":"[900,1133,441]","trial_type":"two-door-navigation","trial_index":41,"time_elapsed":1051278,"internal_node_id":"0.0-2.0-39.0"},{"group":"hexagon_bi","room_assignment":["grey","green","purple","blue","yellow","red"],"door_color_assignment":["white","black"],"door_generator_assignment":[1,0],"goal":3,"start":4,"action_noise":0.15,"location_history":"[4,5,0,1,0,1,2,3]","action_history":"[1,0,1,1,1,0,1]","door_history":"[0,1,0,0,0,1,0]","location_rts":"[404,442,671,1051,414,285,686]","trial_type":"two-door-navigation","trial_index":42,"time_elapsed":1065744,"internal_node_id":"0.0-2.0-40.0"},{"group":"hexagon_bi","room_assignment":["grey","green","purple","blue","yellow","red"],"door_color_assignment":["white","black"],"door_generator_assignment":[1,0],"goal":2,"start":3,"action_noise":0.15,"location_history":"[3,2]","action_history":"[1]","door_history":"[0]","location_rts":"[384]","trial_type":"two-door-navigation","trial_index":43,"time_elapsed":1070630,"internal_node_id":"0.0-2.0-41.0"},{"group":"hexagon_bi","room_assignment":["grey","green","purple","blue","yellow","red"],"door_color_assignment":["white","black"],"door_generator_assignment":[1,0],"goal":0,"start":2,"action_noise":0.15,"location_history":"[2,3,4,5,0]","action_history":"[1,0,1,0]","door_history":"[0,1,0,1]","location_rts":"[1492,515,661,916]","trial_type":"two-door-navigation","trial_index":44,"time_elapsed":1081721,"internal_node_id":"0.0-2.0-42.0"},{"group":"hexagon_bi","room_assignment":["grey","green","purple","blue","yellow","red"],"door_color_assignment":["white","black"],"door_generator_assignment":[1,0],"goal":5,"start":0,"action_noise":0.15,"location_history":"[0,5]","action_history":"[1]","door_history":"[0]","location_rts":"[457]","trial_type":"two-door-navigation","trial_index":45,"time_elapsed":1086681,"internal_node_id":"0.0-2.0-43.0"},{"group":"hexagon_bi","room_assignment":["grey","green","purple","blue","yellow","red"],"door_color_assignment":["white","black"],"door_generator_assignment":[1,0],"goal":0,"start":5,"action_noise":0.15,"location_history":"[5,4,3,4,5,4,3,2,1,0]","action_history":"[1,0,1,1,1,0,1,0,1]","door_history":"[0,1,0,0,0,1,0,1,0]","location_rts":"[563,1037,496,818,402,385,433,944,495]","trial_type":"two-door-navigation","trial_index":46,"time_elapsed":1104779,"internal_node_id":"0.0-2.0-44.0"},{"group":"hexagon_bi","room_assignment":["grey","green","purple","blue","yellow","red"],"door_color_assignment":["white","black"],"door_generator_assignment":[1,0],"goal":2,"start":0,"action_noise":0.15,"location_history":"[0,1,2]","action_history":"[1,0]","door_history":"[0,1]","location_rts":"[490,928]","trial_type":"two-door-navigation","trial_index":47,"time_elapsed":1111701,"internal_node_id":"0.0-2.0-45.0"},{"group":"hexagon_bi","room_assignment":["grey","green","purple","blue","yellow","red"],"door_color_assignment":["white","black"],"door_generator_assignment":[1,0],"goal":4,"start":2,"action_noise":0.15,"location_history":"[2,3,4]","action_history":"[1,0]","door_history":"[0,1]","location_rts":"[502,546]","trial_type":"two-door-navigation","trial_index":48,"time_elapsed":1118257,"internal_node_id":"0.0-2.0-46.0"},{"group":"hexagon_bi","room_assignment":["grey","green","purple","blue","yellow","red"],"door_color_assignment":["white","black"],"door_generator_assignment":[1,0],"goal":1,"start":4,"action_noise":0.15,"location_history":"[4,5,0,1]","action_history":"[1,0,1]","door_history":"[0,1,0]","location_rts":"[522,647,653]","trial_type":"two-door-navigation","trial_index":49,"time_elapsed":1126586,"internal_node_id":"0.0-2.0-47.0"},{"group":"hexagon_bi","room_assignment":["grey","green","purple","blue","yellow","red"],"door_color_assignment":["white","black"],"door_generator_assignment":[1,0],"goal":5,"start":1,"action_noise":0.15,"location_history":"[1,0,5]","action_history":"[1,0]","door_history":"[0,1]","location_rts":"[397,588]","trial_type":"two-door-navigation","trial_index":50,"time_elapsed":1133076,"internal_node_id":"0.0-2.0-48.0"},{"group":"hexagon_bi","room_assignment":["grey","green","purple","blue","yellow","red"],"door_color_assignment":["white","black"],"door_generator_assignment":[1,0],"goal":3,"start":5,"action_noise":0.15,"location_history":"[5,4,3]","action_history":"[1,0]","door_history":"[0,1]","location_rts":"[646,537]","trial_type":"two-door-navigation","trial_index":51,"time_elapsed":1139764,"internal_node_id":"0.0-2.0-49.0"},{"view_history":"[{\"page_index\":0,\"viewing_time\":2060}]","rt":2060,"trial_type":"instructions","trial_index":52,"time_elapsed":1142826,"internal_node_id":"0.0-3.0"},{"view_history":"[{\"page_index\":0,\"viewing_time\":77517},{\"page_index\":1,\"viewing_time\":103243}]","rt":180762,"trial_type":"instructions","trial_index":53,"time_elapsed":1324588,"internal_node_id":"0.0-4.0"},{"group":"hexagon_bi","fractal_assignment":["../images/gry_blk.png","../images/blu_wht.png","../images/cyn_red.png","../images/pnk_blu.png","../images/ylw_slt.png","../images/org_blu.png"],"mutagen_generator_assignment":[1,0],"goal":3,"start":5,"action_noise":0.15,"location_history":"[5,4,5,0,1,2,3]","action_history":"[1,1,0,1,0,1]","mutagen_history":"[0,0,1,0,1,0]","location_rts":"[703,675,419,599,425,559]","trial_type":"fractal-mutation","trial_index":54,"time_elapsed":1337663,"internal_node_id":"0.0-5.0-0.0"},{"group":"hexagon_bi","fractal_assignment":["../images/gry_blk.png","../images/blu_wht.png","../images/cyn_red.png","../images/pnk_blu.png","../images/ylw_slt.png","../images/org_blu.png"],"mutagen_generator_assignment":[1,0],"goal":1,"start":3,"action_noise":0.15,"location_history":"[3,2,3,2,1]","action_history":"[1,1,1,0]","mutagen_history":"[0,0,0,1]","location_rts":"[381,801,586,250]","trial_type":"fractal-mutation","trial_index":55,"time_elapsed":1347293,"internal_node_id":"0.0-5.0-1.0"},{"group":"hexagon_bi","fractal_assignment":["../images/gry_blk.png","../images/blu_wht.png","../images/cyn_red.png","../images/pnk_blu.png","../images/ylw_slt.png","../images/org_blu.png"],"mutagen_generator_assignment":[1,0],"goal":0,"start":1,"action_noise":0.15,"location_history":"[1,2,1,0]","action_history":"[1,0,1]","mutagen_history":"[0,1,0]","location_rts":"[523,362,676]","trial_type":"fractal-mutation","trial_index":56,"time_elapsed":1355437,"internal_node_id":"0.0-5.0-2.0"},{"group":"hexagon_bi","fractal_assignment":["../images/gry_blk.png","../images/blu_wht.png","../images/cyn_red.png","../images/pnk_blu.png","../images/ylw_slt.png","../images/org_blu.png"],"mutagen_generator_assignment":[1,0],"goal":3,"start":0,"action_noise":0.15,"location_history":"[0,1,2,3]","action_history":"[1,0,1]","mutagen_history":"[0,1,0]","location_rts":"[577,298,428]","trial_type":"fractal-mutation","trial_index":57,"time_elapsed":1363303,"internal_node_id":"0.0-5.0-3.0"},{"group":"hexagon_bi","fractal_assignment":["../images/gry_blk.png","../images/blu_wht.png","../images/cyn_red.png","../images/pnk_blu.png","../images/ylw_slt.png","../images/org_blu.png"],"mutagen_generator_assignment":[1,0],"goal":4,"start":3,"action_noise":0.15,"location_history":"[3,2,1,2,1,2,1,0,5,4]","action_history":"[1,1,0,1,0,0,1,0,1]","mutagen_history":"[0,0,1,0,1,1,0,1,0]","location_rts":"[297,638,601,402,422,269,746,1000,506]","trial_type":"fractal-mutation","trial_index":58,"time_elapsed":1380907,"internal_node_id":"0.0-5.0-4.0"},{"group":"hexagon_bi","fractal_assignment":["../images/gry_blk.png","../images/blu_wht.png","../images/cyn_red.png","../images/pnk_blu.png","../images/ylw_slt.png","../images/org_blu.png"],"mutagen_generator_assignment":[1,0],"goal":2,"start":4,"action_noise":0.15,"location_history":"[4,3,4,5,4,3,2]","action_history":"[1,0,1,1,0,1]","mutagen_history":"[0,1,0,0,1,0]","location_rts":"[497,539,377,794,671,611]","trial_type":"fractal-mutation","trial_index":59,"time_elapsed":1394013,"internal_node_id":"0.0-5.0-5.0"},{"group":"hexagon_bi","fractal_assignment":["../images/gry_blk.png","../images/blu_wht.png","../images/cyn_red.png","../images/pnk_blu.png","../images/ylw_slt.png","../images/org_blu.png"],"mutagen_generator_assignment":[1,0],"goal":1,"start":2,"action_noise":0.15,"location_history":"[2,1]","action_history":"[0]","mutagen_history":"[1]","location_rts":"[608]","trial_type":"fractal-mutation","trial_index":60,"time_elapsed":1399148,"internal_node_id":"0.0-5.0-6.0"},{"group":"hexagon_bi","fractal_assignment":["../images/gry_blk.png","../images/blu_wht.png","../images/cyn_red.png","../images/pnk_blu.png","../images/ylw_slt.png","../images/org_blu.png"],"mutagen_generator_assignment":[1,0],"goal":5,"start":1,"action_noise":0.15,"location_history":"[1,0,5]","action_history":"[1,0]","mutagen_history":"[0,1]","location_rts":"[444,694]","trial_type":"fractal-mutation","trial_index":61,"time_elapsed":1405847,"internal_node_id":"0.0-5.0-7.0"},{"group":"hexagon_bi","fractal_assignment":["../images/gry_blk.png","../images/blu_wht.png","../images/cyn_red.png","../images/pnk_blu.png","../images/ylw_slt.png","../images/org_blu.png"],"mutagen_generator_assignment":[1,0],"goal":4,"start":5,"action_noise":0.15,"location_history":"[5,4]","action_history":"[1]","mutagen_history":"[0]","location_rts":"[333]","trial_type":"fractal-mutation","trial_index":62,"time_elapsed":1410694,"internal_node_id":"0.0-5.0-8.0"},{"group":"hexagon_bi","fractal_assignment":["../images/gry_blk.png","../images/blu_wht.png","../images/cyn_red.png","../images/pnk_blu.png","../images/ylw_slt.png","../images/org_blu.png"],"mutagen_generator_assignment":[1,0],"goal":2,"start":4,"action_noise":0.15,"location_history":"[4,3,2]","action_history":"[0,1]","mutagen_history":"[1,0]","location_rts":"[569,351]","trial_type":"fractal-mutation","trial_index":63,"time_elapsed":1417175,"internal_node_id":"0.0-5.0-9.0"},{"group":"hexagon_bi","fractal_assignment":["../images/gry_blk.png","../images/blu_wht.png","../images/cyn_red.png","../images/pnk_blu.png","../images/ylw_slt.png","../images/org_blu.png"],"mutagen_generator_assignment":[1,0],"goal":0,"start":2,"action_noise":0.15,"location_history":"[2,3,4,3,2,3,2,1,2,3,2,1,2,1,2,3,4,3,4,5,0]","action_history":"[1,0,0,1,0,1,0,0,1,1,0,0,0,1,0,1,0,0,1,0]","mutagen_history":"[0,1,1,0,1,0,1,1,0,0,1,1,1,0,1,0,1,1,0,1]","location_rts":"[474,364,787,495,549,576,503,312,673,1019,487,682,645,325,579,801,688,1480,380,569]","trial_type":"fractal-mutation","trial_index":64,"time_elapsed":1453617,"internal_node_id":"0.0-5.0-10.0"},{"group":"hexagon_bi","fractal_assignment":["../images/gry_blk.png","../images/blu_wht.png","../images/cyn_red.png","../images/pnk_blu.png","../images/ylw_slt.png","../images/org_blu.png"],"mutagen_generator_assignment":[1,0],"goal":1,"start":0,"action_noise":0.15,"location_history":"[0,1]","action_history":"[1]","mutagen_history":"[0]","location_rts":"[326]","trial_type":"fractal-mutation","trial_index":65,"time_elapsed":1458464,"internal_node_id":"0.0-5.0-11.0"},{"group":"hexagon_bi","fractal_assignment":["../images/gry_blk.png","../images/blu_wht.png","../images/cyn_red.png","../images/pnk_blu.png","../images/ylw_slt.png","../images/org_blu.png"],"mutagen_generator_assignment":[1,0],"goal":3,"start":1,"action_noise":0.15,"location_history":"[1,2,3]","action_history":"[0,1]","mutagen_history":"[1,0]","location_rts":"[563,459]","trial_type":"fractal-mutation","trial_index":66,"time_elapsed":1465034,"internal_node_id":"0.0-5.0-12.0"},{"group":"hexagon_bi","fractal_assignment":["../images/gry_blk.png","../images/blu_wht.png","../images/cyn_red.png","../images/pnk_blu.png","../images/ylw_slt.png","../images/org_blu.png"],"mutagen_generator_assignment":[1,0],"goal":5,"start":3,"action_noise":0.15,"location_history":"[3,2,1,0,5]","action_history":"[1,0,1,0]","mutagen_history":"[0,1,0,1]","location_rts":"[834,528,498,630]","trial_type":"fractal-mutation","trial_index":67,"time_elapsed":1475163,"internal_node_id":"0.0-5.0-13.0"},{"group":"hexagon_bi","fractal_assignment":["../images/gry_blk.png","../images/blu_wht.png","../images/cyn_red.png","../images/pnk_blu.png","../images/ylw_slt.png","../images/org_blu.png"],"mutagen_generator_assignment":[1,0],"goal":4,"start":5,"action_noise":0.15,"location_history":"[5,4]","action_history":"[1]","mutagen_history":"[0]","location_rts":"[390]","trial_type":"fractal-mutation","trial_index":68,"time_elapsed":1480078,"internal_node_id":"0.0-5.0-14.0"},{"group":"hexagon_bi","fractal_assignment":["../images/gry_blk.png","../images/blu_wht.png","../images/cyn_red.png","../images/pnk_blu.png","../images/ylw_slt.png","../images/org_blu.png"],"mutagen_generator_assignment":[1,0],"goal":0,"start":4,"action_noise":0.15,"location_history":"[4,3,4,5,0]","action_history":"[0,0,1,0]","mutagen_history":"[1,1,0,1]","location_rts":"[811,841,473,408]","trial_type":"fractal-mutation","trial_index":69,"time_elapsed":1490237,"internal_node_id":"0.0-5.0-15.0"},{"group":"hexagon_bi","fractal_assignment":["../images/gry_blk.png","../images/blu_wht.png","../images/cyn_red.png","../images/pnk_blu.png","../images/ylw_slt.png","../images/org_blu.png"],"mutagen_generator_assignment":[1,0],"goal":3,"start":0,"action_noise":0.15,"location_history":"[0,5,0,1,2,1,2,1,2,3]","action_history":"[1,0,1,0,1,0,0,0,1]","mutagen_history":"[0,1,0,1,0,1,1,1,0]","location_rts":"[960,418,379,1033,519,652,762,5969,465]","trial_type":"fractal-mutation","trial_index":70,"time_elapsed":1514088,"internal_node_id":"0.0-5.0-16.0"},{"group":"hexagon_bi","fractal_assignment":["../images/gry_blk.png","../images/blu_wht.png","../images/cyn_red.png","../images/pnk_blu.png","../images/ylw_slt.png","../images/org_blu.png"],"mutagen_generator_assignment":[1,0],"goal":1,"start":3,"action_noise":0.15,"location_history":"[3,2,3,4,5,0,1]","action_history":"[0,1,0,1,0,1]","mutagen_history":"[1,0,1,0,1,0]","location_rts":"[4857,416,539,741,469,402]","trial_type":"fractal-mutation","trial_index":71,"time_elapsed":1531157,"internal_node_id":"0.0-5.0-17.0"},{"group":"hexagon_bi","fractal_assignment":["../images/gry_blk.png","../images/blu_wht.png","../images/cyn_red.png","../images/pnk_blu.png","../images/ylw_slt.png","../images/org_blu.png"],"mutagen_generator_assignment":[1,0],"goal":5,"start":1,"action_noise":0.15,"location_history":"[1,0,1,2,1,0,1,2,3,2,3,4,5]","action_history":"[0,1,0,0,1,0,1,0,1,0,0,1]","mutagen_history":"[1,0,1,1,0,1,0,1,0,1,1,0]","location_rts":"[1949,362,532,504,351,500,687,504,671,475,527,382]","trial_type":"fractal-mutation","trial_index":72,"time_elapsed":1554416,"internal_node_id":"0.0-5.0-18.0"},{"group":"hexagon_bi","fractal_assignment":["../images/gry_blk.png","../images/blu_wht.png","../images/cyn_red.png","../images/pnk_blu.png","../images/ylw_slt.png","../images/org_blu.png"],"mutagen_generator_assignment":[1,0],"goal":2,"start":5,"action_noise":0.15,"location_history":"[5,0,1,2]","action_history":"[0,1,1]","mutagen_history":"[1,0,0]","location_rts":"[523,431,519]","trial_type":"fractal-mutation","trial_index":73,"time_elapsed":1562459,"internal_node_id":"0.0-5.0-19.0"},{"group":"hexagon_bi","fractal_assignment":["../images/gry_blk.png","../images/blu_wht.png","../images/cyn_red.png","../images/pnk_blu.png","../images/ylw_slt.png","../images/org_blu.png"],"mutagen_generator_assignment":[1,0],"goal":4,"start":2,"action_noise":0.15,"location_history":"[2,3,4]","action_history":"[1,0]","mutagen_history":"[0,1]","location_rts":"[695,450]","trial_type":"fractal-mutation","trial_index":74,"time_elapsed":1569145,"internal_node_id":"0.0-5.0-20.0"},{"group":"hexagon_bi","fractal_assignment":["../images/gry_blk.png","../images/blu_wht.png","../images/cyn_red.png","../images/pnk_blu.png","../images/ylw_slt.png","../images/org_blu.png"],"mutagen_generator_assignment":[1,0],"goal":1,"start":4,"action_noise":0.15,"location_history":"[4,3,2,3,2,3,4,5,0,5,4,5,4,3,2,1]","action_history":"[0,1,0,1,1,0,1,0,0,1,1,1,0,1,0]","mutagen_history":"[1,0,1,0,0,1,0,1,1,0,0,0,1,0,1]","location_rts":"[3857,391,365,541,408,441,657,478,375,515,876,584,264,557,497]","trial_type":"fractal-mutation","trial_index":75,"time_elapsed":1598797,"internal_node_id":"0.0-5.0-21.0"},{"group":"hexagon_bi","fractal_assignment":["../images/gry_blk.png","../images/blu_wht.png","../images/cyn_red.png","../images/pnk_blu.png","../images/ylw_slt.png","../images/org_blu.png"],"mutagen_generator_assignment":[1,0],"goal":3,"start":1,"action_noise":0.15,"location_history":"[1,0,5,4,3]","action_history":"[1,0,1,1]","mutagen_history":"[0,1,0,0]","location_rts":"[436,333,484,854]","trial_type":"fractal-mutation","trial_index":76,"time_elapsed":1608479,"internal_node_id":"0.0-5.0-22.0"},{"group":"hexagon_bi","fractal_assignment":["../images/gry_blk.png","../images/blu_wht.png","../images/cyn_red.png","../images/pnk_blu.png","../images/ylw_slt.png","../images/org_blu.png"],"mutagen_generator_assignment":[1,0],"goal":2,"start":3,"action_noise":0.15,"location_history":"[3,4,5,0,5,4,3,2]","action_history":"[0,1,0,0,1,0,1]","mutagen_history":"[1,0,1,1,0,1,0]","location_rts":"[318,352,808,760,471,883,538]","trial_type":"fractal-mutation","trial_index":77,"time_elapsed":1623299,"internal_node_id":"0.0-5.0-23.0"},{"group":"hexagon_bi","fractal_assignment":["../images/gry_blk.png","../images/blu_wht.png","../images/cyn_red.png","../images/pnk_blu.png","../images/ylw_slt.png","../images/org_blu.png"],"mutagen_generator_assignment":[1,0],"goal":0,"start":2,"action_noise":0.15,"location_history":"[2,1,0]","action_history":"[0,1]","mutagen_history":"[1,0]","location_rts":"[1040,426]","trial_type":"fractal-mutation","trial_index":78,"time_elapsed":1630313,"internal_node_id":"0.0-5.0-24.0"},{"group":"hexagon_bi","fractal_assignment":["../images/gry_blk.png","../images/blu_wht.png","../images/cyn_red.png","../images/pnk_blu.png","../images/ylw_slt.png","../images/org_blu.png"],"mutagen_generator_assignment":[1,0],"goal":5,"start":0,"action_noise":0.15,"location_history":"[0,5]","action_history":"[0]","mutagen_history":"[1]","location_rts":"[414]","trial_type":"fractal-mutation","trial_index":79,"time_elapsed":1635275,"internal_node_id":"0.0-5.0-25.0"},{"group":"hexagon_bi","fractal_assignment":["../images/gry_blk.png","../images/blu_wht.png","../images/cyn_red.png","../images/pnk_blu.png","../images/ylw_slt.png","../images/org_blu.png"],"mutagen_generator_assignment":[1,0],"goal":2,"start":5,"action_noise":0.15,"location_history":"[5,0,5,4,5,0,1,2]","action_history":"[1,0,1,1,0,1,0]","mutagen_history":"[0,1,0,0,1,0,1]","location_rts":"[688,361,594,356,1423,709,685]","trial_type":"fractal-mutation","trial_index":80,"time_elapsed":1650780,"internal_node_id":"0.0-5.0-26.0"},{"group":"hexagon_bi","fractal_assignment":["../images/gry_blk.png","../images/blu_wht.png","../images/cyn_red.png","../images/pnk_blu.png","../images/ylw_slt.png","../images/org_blu.png"],"mutagen_generator_assignment":[1,0],"goal":3,"start":2,"action_noise":0.15,"location_history":"[2,1,2,3]","action_history":"[0,1,0]","mutagen_history":"[1,0,1]","location_rts":"[760,443,520]","trial_type":"fractal-mutation","trial_index":81,"time_elapsed":1659079,"internal_node_id":"0.0-5.0-27.0"},{"group":"hexagon_bi","fractal_assignment":["../images/gry_blk.png","../images/blu_wht.png","../images/cyn_red.png","../images/pnk_blu.png","../images/ylw_slt.png","../images/org_blu.png"],"mutagen_generator_assignment":[1,0],"goal":0,"start":3,"action_noise":0.15,"location_history":"[3,4,5,0]","action_history":"[0,1,0]","mutagen_history":"[1,0,1]","location_rts":"[972,308,424]","trial_type":"fractal-mutation","trial_index":82,"time_elapsed":1667354,"internal_node_id":"0.0-5.0-28.0"},{"group":"hexagon_bi","fractal_assignment":["../images/gry_blk.png","../images/blu_wht.png","../images/cyn_red.png","../images/pnk_blu.png","../images/ylw_slt.png","../images/org_blu.png"],"mutagen_generator_assignment":[1,0],"goal":1,"start":0,"action_noise":0.15,"location_history":"[0,1]","action_history":"[1]","mutagen_history":"[0]","location_rts":"[273]","trial_type":"fractal-mutation","trial_index":83,"time_elapsed":1672153,"internal_node_id":"0.0-5.0-29.0"},{"group":"hexagon_bi","fractal_assignment":["../images/gry_blk.png","../images/blu_wht.png","../images/cyn_red.png","../images/pnk_blu.png","../images/ylw_slt.png","../images/org_blu.png"],"mutagen_generator_assignment":[1,0],"goal":4,"start":1,"action_noise":0.15,"location_history":"[1,2,3,4]","action_history":"[0,1,0]","mutagen_history":"[1,0,1]","location_rts":"[746,353,517]","trial_type":"fractal-mutation","trial_index":84,"time_elapsed":1680335,"internal_node_id":"0.0-5.0-30.0"},{"group":"hexagon_bi","fractal_assignment":["../images/gry_blk.png","../images/blu_wht.png","../images/cyn_red.png","../images/pnk_blu.png","../images/ylw_slt.png","../images/org_blu.png"],"mutagen_generator_assignment":[1,0],"goal":5,"start":4,"action_noise":0.15,"location_history":"[4,5]","action_history":"[1]","mutagen_history":"[0]","location_rts":"[301]","trial_type":"fractal-mutation","trial_index":85,"time_elapsed":1685155,"internal_node_id":"0.0-5.0-31.0"},{"group":"hexagon_bi","fractal_assignment":["../images/gry_blk.png","../images/blu_wht.png","../images/cyn_red.png","../images/pnk_blu.png","../images/ylw_slt.png","../images/org_blu.png"],"mutagen_generator_assignment":[1,0],"goal":0,"start":5,"action_noise":0.15,"location_history":"[5,0]","action_history":"[0]","mutagen_history":"[1]","location_rts":"[1014]","trial_type":"fractal-mutation","trial_index":86,"time_elapsed":1690696,"internal_node_id":"0.0-5.0-32.0"},{"group":"hexagon_bi","fractal_assignment":["../images/gry_blk.png","../images/blu_wht.png","../images/cyn_red.png","../images/pnk_blu.png","../images/ylw_slt.png","../images/org_blu.png"],"mutagen_generator_assignment":[1,0],"goal":3,"start":0,"action_noise":0.15,"location_history":"[0,1,2,3]","action_history":"[1,0,1]","mutagen_history":"[0,1,0]","location_rts":"[286,445,489]","trial_type":"fractal-mutation","trial_index":87,"time_elapsed":1698484,"internal_node_id":"0.0-5.0-33.0"},{"group":"hexagon_bi","fractal_assignment":["../images/gry_blk.png","../images/blu_wht.png","../images/cyn_red.png","../images/pnk_blu.png","../images/ylw_slt.png","../images/org_blu.png"],"mutagen_generator_assignment":[1,0],"goal":1,"start":3,"action_noise":0.15,"location_history":"[3,4,5,0,1]","action_history":"[0,1,0,1]","mutagen_history":"[1,0,1,0]","location_rts":"[443,357,480,469]","trial_type":"fractal-mutation","trial_index":88,"time_elapsed":1707841,"internal_node_id":"0.0-5.0-34.0"},{"group":"hexagon_bi","fractal_assignment":["../images/gry_blk.png","../images/blu_wht.png","../images/cyn_red.png","../images/pnk_blu.png","../images/ylw_slt.png","../images/org_blu.png"],"mutagen_generator_assignment":[1,0],"goal":2,"start":1,"action_noise":0.15,"location_history":"[1,2]","action_history":"[0]","mutagen_history":"[1]","location_rts":"[591]","trial_type":"fractal-mutation","trial_index":89,"time_elapsed":1712967,"internal_node_id":"0.0-5.0-35.0"},{"group":"hexagon_bi","fractal_assignment":["../images/gry_blk.png","../images/blu_wht.png","../images/cyn_red.png","../images/pnk_blu.png","../images/ylw_slt.png","../images/org_blu.png"],"mutagen_generator_assignment":[1,0],"goal":4,"start":2,"action_noise":0.15,"location_history":"[2,1,0,5,4]","action_history":"[0,1,0,1]","mutagen_history":"[1,0,1,0]","location_rts":"[573,433,422,415]","trial_type":"fractal-mutation","trial_index":90,"time_elapsed":1722409,"internal_node_id":"0.0-5.0-36.0"},{"group":"hexagon_bi","fractal_assignment":["../images/gry_blk.png","../images/blu_wht.png","../images/cyn_red.png","../images/pnk_blu.png","../images/ylw_slt.png","../images/org_blu.png"],"mutagen_generator_assignment":[1,0],"goal":5,"start":4,"action_noise":0.15,"location_history":"[4,3,2,1,0,1,0,5]","action_history":"[0,1,0,1,0,1,1]","mutagen_history":"[1,0,1,0,1,0,0]","location_rts":"[836,523,384,604,379,521,775]","trial_type":"fractal-mutation","trial_index":91,"time_elapsed":1737123,"internal_node_id":"0.0-5.0-37.0"},{"group":"hexagon_bi","fractal_assignment":["../images/gry_blk.png","../images/blu_wht.png","../images/cyn_red.png","../images/pnk_blu.png","../images/ylw_slt.png","../images/org_blu.png"],"mutagen_generator_assignment":[1,0],"goal":1,"start":5,"action_noise":0.15,"location_history":"[5,4,3,2,1]","action_history":"[1,0,1,0]","mutagen_history":"[0,1,0,1]","location_rts":"[800,265,517,576]","trial_type":"fractal-mutation","trial_index":92,"time_elapsed":1746873,"internal_node_id":"0.0-5.0-38.0"},{"group":"hexagon_bi","fractal_assignment":["../images/gry_blk.png","../images/blu_wht.png","../images/cyn_red.png","../images/pnk_blu.png","../images/ylw_slt.png","../images/org_blu.png"],"mutagen_generator_assignment":[1,0],"goal":4,"start":1,"action_noise":0.15,"location_history":"[1,0,5,4]","action_history":"[1,0,1]","mutagen_history":"[0,1,0]","location_rts":"[476,343,373]","trial_type":"fractal-mutation","trial_index":93,"time_elapsed":1754631,"internal_node_id":"0.0-5.0-39.0"},{"group":"hexagon_bi","fractal_assignment":["../images/gry_blk.png","../images/blu_wht.png","../images/cyn_red.png","../images/pnk_blu.png","../images/ylw_slt.png","../images/org_blu.png"],"mutagen_generator_assignment":[1,0],"goal":3,"start":4,"action_noise":0.15,"location_history":"[4,3]","action_history":"[0]","mutagen_history":"[1]","location_rts":"[366]","trial_type":"fractal-mutation","trial_index":94,"time_elapsed":1759528,"internal_node_id":"0.0-5.0-40.0"},{"group":"hexagon_bi","fractal_assignment":["../images/gry_blk.png","../images/blu_wht.png","../images/cyn_red.png","../images/pnk_blu.png","../images/ylw_slt.png","../images/org_blu.png"],"mutagen_generator_assignment":[1,0],"goal":2,"start":3,"action_noise":0.15,"location_history":"[3,2]","action_history":"[1]","mutagen_history":"[0]","location_rts":"[371]","trial_type":"fractal-mutation","trial_index":95,"time_elapsed":1764426,"internal_node_id":"0.0-5.0-41.0"},{"group":"hexagon_bi","fractal_assignment":["../images/gry_blk.png","../images/blu_wht.png","../images/cyn_red.png","../images/pnk_blu.png","../images/ylw_slt.png","../images/org_blu.png"],"mutagen_generator_assignment":[1,0],"goal":0,"start":2,"action_noise":0.15,"location_history":"[2,3,2,1,2,1,0]","action_history":"[0,1,0,0,0,1]","mutagen_history":"[1,0,1,1,1,0]","location_rts":"[696,474,641,663,517,387]","trial_type":"fractal-mutation","trial_index":96,"time_elapsed":1777504,"internal_node_id":"0.0-5.0-42.0"},{"group":"hexagon_bi","fractal_assignment":["../images/gry_blk.png","../images/blu_wht.png","../images/cyn_red.png","../images/pnk_blu.png","../images/ylw_slt.png","../images/org_blu.png"],"mutagen_generator_assignment":[1,0],"goal":5,"start":0,"action_noise":0.15,"location_history":"[0,5]","action_history":"[0]","mutagen_history":"[1]","location_rts":"[623]","trial_type":"fractal-mutation","trial_index":97,"time_elapsed":1782660,"internal_node_id":"0.0-5.0-43.0"},{"group":"hexagon_bi","fractal_assignment":["../images/gry_blk.png","../images/blu_wht.png","../images/cyn_red.png","../images/pnk_blu.png","../images/ylw_slt.png","../images/org_blu.png"],"mutagen_generator_assignment":[1,0],"goal":0,"start":5,"action_noise":0.15,"location_history":"[5,4,3,2,3,2,3,2,1,0]","action_history":"[1,0,1,1,1,0,1,0,1]","mutagen_history":"[0,1,0,0,0,1,0,1,0]","location_rts":"[611,376,523,519,476,231,295,1234,894]","trial_type":"fractal-mutation","trial_index":98,"time_elapsed":1800519,"internal_node_id":"0.0-5.0-44.0"},{"group":"hexagon_bi","fractal_assignment":["../images/gry_blk.png","../images/blu_wht.png","../images/cyn_red.png","../images/pnk_blu.png","../images/ylw_slt.png","../images/org_blu.png"],"mutagen_generator_assignment":[1,0],"goal":2,"start":0,"action_noise":0.15,"location_history":"[0,5,4,5,0,1,2]","action_history":"[0,1,1,0,1,0]","mutagen_history":"[1,0,0,1,0,1]","location_rts":"[562,276,565,337,672,1089]","trial_type":"fractal-mutation","trial_index":99,"time_elapsed":1813665,"internal_node_id":"0.0-5.0-45.0"},{"group":"hexagon_bi","fractal_assignment":["../images/gry_blk.png","../images/blu_wht.png","../images/cyn_red.png","../images/pnk_blu.png","../images/ylw_slt.png","../images/org_blu.png"],"mutagen_generator_assignment":[1,0],"goal":4,"start":2,"action_noise":0.15,"location_history":"[2,3,2,3,2,3,4]","action_history":"[1,0,1,1,0,1]","mutagen_history":"[0,1,0,0,1,0]","location_rts":"[352,327,357,671,516,1331]","trial_type":"fractal-mutation","trial_index":100,"time_elapsed":1826847,"internal_node_id":"0.0-5.0-46.0"},{"group":"hexagon_bi","fractal_assignment":["../images/gry_blk.png","../images/blu_wht.png","../images/cyn_red.png","../images/pnk_blu.png","../images/ylw_slt.png","../images/org_blu.png"],"mutagen_generator_assignment":[1,0],"goal":1,"start":4,"action_noise":0.15,"location_history":"[4,5,0,5,0,1]","action_history":"[1,0,1,0,1]","mutagen_history":"[0,1,0,1,0]","location_rts":"[695,644,541,730,736]","trial_type":"fractal-mutation","trial_index":101,"time_elapsed":1838799,"internal_node_id":"0.0-5.0-47.0"},{"group":"hexagon_bi","fractal_assignment":["../images/gry_blk.png","../images/blu_wht.png","../images/cyn_red.png","../images/pnk_blu.png","../images/ylw_slt.png","../images/org_blu.png"],"mutagen_generator_assignment":[1,0],"goal":5,"start":1,"action_noise":0.15,"location_history":"[1,0,1,0,1,2,3,4,5]","action_history":"[1,0,1,1,0,1,0,1]","mutagen_history":"[0,1,0,0,1,0,1,0]","location_rts":"[2268,1971,528,719,2396,2002,1075,891]","trial_type":"fractal-mutation","trial_index":102,"time_elapsed":1862331,"internal_node_id":"0.0-5.0-48.0"},{"group":"hexagon_bi","fractal_assignment":["../images/gry_blk.png","../images/blu_wht.png","../images/cyn_red.png","../images/pnk_blu.png","../images/ylw_slt.png","../images/org_blu.png"],"mutagen_generator_assignment":[1,0],"goal":3,"start":5,"action_noise":0.15,"location_history":"[5,4,5,0,1,0,5,4,3]","action_history":"[0,1,0,1,1,0,1,0]","mutagen_history":"[1,0,1,0,0,1,0,1]","location_rts":"[440,474,487,625,541,387,674,496]","trial_type":"fractal-mutation","trial_index":103,"time_elapsed":1878178,"internal_node_id":"0.0-5.0-49.0"},{"view_history":"[{\"page_index\":0,\"viewing_time\":20176}]","rt":20178,"trial_type":"instructions","trial_index":104,"time_elapsed":1899357,"internal_node_id":"0.0-6.0"},{"rt":18467,"responses":"{\"Q0\":\"this was interesting and the first session seemed a bit more difficult today\"}","trial_type":"survey-text","trial_index":105,"time_elapsed":1918836,"internal_node_id":"0.0-7.0"}]