[{"view_history":"[{\"page_index\":0,\"viewing_time\":157756},{\"page_index\":1,\"viewing_time\":22222}]","rt":179978,"trial_type":"instructions","trial_index":0,"time_elapsed":179979,"internal_node_id":"0.0-0.0"},{"view_history":"[{\"page_index\":0,\"viewing_time\":15195},{\"page_index\":1,\"viewing_time\":4518}]","rt":19714,"trial_type":"instructions","trial_index":1,"time_elapsed":201632,"internal_node_id":"0.0-1.0"},{"group":"hexagon_bi","room_assignment":["green","red","yellow","blue","grey","purple"],"door_color_assignment":["white","black"],"door_generator_assignment":[1,0],"goal":3,"start":5,"action_noise":0.15,"location_history":"[5,4,3]","action_history":"[0,1]","door_history":"[1,0]","location_rts":"[9315,1298]","trial_type":"two-door-navigation","trial_index":2,"time_elapsed":221109,"internal_node_id":"0.0-2.0-0.0"},{"group":"hexagon_bi","room_assignment":["green","red","yellow","blue","grey","purple"],"door_color_assignment":["white","black"],"door_generator_assignment":[1,0],"goal":1,"start":3,"action_noise":0.15,"location_history":"[3,4,3,4,3,4,3,4,3,2,1]","action_history":"[0,0,1,1,0,1,0,0,1,0]","door_history":"[1,1,0,0,1,0,1,1,0,1]","location_rts":"[6202,460,310,402,1332,519,378,2910,377,1045]","trial_type":"two-door-navigation","trial_index":3,"time_elapsed":254829,"internal_node_id":"0.0-2.0-1.0"},{"group":"hexagon_bi","room_assignment":["green","red","yellow","blue","grey","purple"],"door_color_assignment":["white","black"],"door_generator_assignment":[1,0],"goal":0,"start":1,"action_noise":0.15,"location_history":"[1,2,1,2,1,0]","action_history":"[1,0,0,1,1]","door_history":"[0,1,1,0,0]","location_rts":"[35520,1513,3410,488,470]","trial_type":"two-door-navigation","trial_index":4,"time_elapsed":307515,"internal_node_id":"0.0-2.0-2.0"},{"group":"hexagon_bi","room_assignment":["green","red","yellow","blue","grey","purple"],"door_color_assignment":["white","black"],"door_generator_assignment":[1,0],"goal":3,"start":0,"action_noise":0.15,"location_history":"[0,1,0,5,4,5,4,5,0,1,2,3]","action_history":"[1,1,0,1,0,1,1,0,1,0,1]","door_history":"[0,0,1,0,1,0,0,1,0,1,0]","location_rts":"[25151,847,1494,1891,1943,815,1767,354,882,415,980]","trial_type":"two-door-navigation","trial_index":5,"time_elapsed":365817,"internal_node_id":"0.0-2.0-3.0"},{"group":"hexagon_bi","room_assignment":["green","red","yellow","blue","grey","purple"],"door_color_assignment":["white","black"],"door_generator_assignment":[1,0],"goal":4,"start":3,"action_noise":0.15,"location_history":"[3,2,1,0,1,2,3,4]","action_history":"[1,0,1,1,0,1,0]","door_history":"[0,1,0,0,1,0,1]","location_rts":"[8704,1688,5032,1398,284,1649,1057]","trial_type":"two-door-navigation","trial_index":6,"time_elapsed":400661,"internal_node_id":"0.0-2.0-4.0"},{"group":"hexagon_bi","room_assignment":["green","red","yellow","blue","grey","purple"],"door_color_assignment":["white","black"],"door_generator_assignment":[1,0],"goal":2,"start":4,"action_noise":0.15,"location_history":"[4,5,0,1,2]","action_history":"[1,0,1,0]","door_history":"[0,1,0,1]","location_rts":"[12919,2835,12759,11873]","trial_type":"two-door-navigation","trial_index":7,"time_elapsed":449967,"internal_node_id":"0.0-2.0-5.0"},{"group":"hexagon_bi","room_assignment":["green","red","yellow","blue","grey","purple"],"door_color_assignment":["white","black"],"door_generator_assignment":[1,0],"goal":1,"start":2,"action_noise":0.15,"location_history":"[2,1]","action_history":"[0]","door_history":"[1]","location_rts":"[4554]","trial_type":"two-door-navigation","trial_index":8,"time_elapsed":460521,"internal_node_id":"0.0-2.0-6.0"},{"group":"hexagon_bi","room_assignment":["green","red","yellow","blue","grey","purple"],"door_color_assignment":["white","black"],"door_generator_assignment":[1,0],"goal":5,"start":1,"action_noise":0.15,"location_history":"[1,0,5]","action_history":"[1,0]","door_history":"[0,1]","location_rts":"[10227,8407]","trial_type":"two-door-navigation","trial_index":9,"time_elapsed":486643,"internal_node_id":"0.0-2.0-7.0"},{"group":"hexagon_bi","room_assignment":["green","red","yellow","blue","grey","purple"],"door_color_assignment":["white","black"],"door_generator_assignment":[1,0],"goal":4,"start":5,"action_noise":0.15,"location_history":"[5,4]","action_history":"[1]","door_history":"[0]","location_rts":"[8327]","trial_type":"two-door-navigation","trial_index":10,"time_elapsed":502052,"internal_node_id":"0.0-2.0-8.0"},{"group":"hexagon_bi","room_assignment":["green","red","yellow","blue","grey","purple"],"door_color_assignment":["white","black"],"door_generator_assignment":[1,0],"goal":2,"start":4,"action_noise":0.15,"location_history":"[4,5,0,1,2]","action_history":"[1,0,1,0]","door_history":"[0,1,0,1]","location_rts":"[6661,922,2521,5897]","trial_type":"two-door-navigation","trial_index":11,"time_elapsed":529735,"internal_node_id":"0.0-2.0-9.0"},{"group":"hexagon_bi","room_assignment":["green","red","yellow","blue","grey","purple"],"door_color_assignment":["white","black"],"door_generator_assignment":[1,0],"goal":0,"start":2,"action_noise":0.15,"location_history":"[2,3,4,5,0]","action_history":"[1,0,1,0]","door_history":"[0,1,0,1]","location_rts":"[1329,2085,1738,1637]","trial_type":"two-door-navigation","trial_index":12,"time_elapsed":547154,"internal_node_id":"0.0-2.0-10.0"},{"group":"hexagon_bi","room_assignment":["green","red","yellow","blue","grey","purple"],"door_color_assignment":["white","black"],"door_generator_assignment":[1,0],"goal":1,"start":0,"action_noise":0.15,"location_history":"[0,1]","action_history":"[1]","door_history":"[0]","location_rts":"[8389]","trial_type":"two-door-navigation","trial_index":13,"time_elapsed":562121,"internal_node_id":"0.0-2.0-11.0"},{"group":"hexagon_bi","room_assignment":["green","red","yellow","blue","grey","purple"],"door_color_assignment":["white","black"],"door_generator_assignment":[1,0],"goal":3,"start":1,"action_noise":0.15,"location_history":"[1,0,5,4,3]","action_history":"[1,0,1,0]","door_history":"[0,1,0,1]","location_rts":"[75063,967,1750,2295]","trial_type":"two-door-navigation","trial_index":14,"time_elapsed":653350,"internal_node_id":"0.0-2.0-12.0"},{"group":"hexagon_bi","room_assignment":["green","red","yellow","blue","grey","purple"],"door_color_assignment":["white","black"],"door_generator_assignment":[1,0],"goal":5,"start":3,"action_noise":0.15,"location_history":"[3,2,3,4,5]","action_history":"[0,1,0,1]","door_history":"[1,0,1,0]","location_rts":"[2857,1052,2506,1040]","trial_type":"two-door-navigation","trial_index":15,"time_elapsed":671174,"internal_node_id":"0.0-2.0-13.0"},{"group":"hexagon_bi","room_assignment":["green","red","yellow","blue","grey","purple"],"door_color_assignment":["white","black"],"door_generator_assignment":[1,0],"goal":4,"start":5,"action_noise":0.15,"location_history":"[5,4]","action_history":"[1]","door_history":"[0]","location_rts":"[14909]","trial_type":"two-door-navigation","trial_index":16,"time_elapsed":692965,"internal_node_id":"0.0-2.0-14.0"},{"group":"hexagon_bi","room_assignment":["green","red","yellow","blue","grey","purple"],"door_color_assignment":["white","black"],"door_generator_assignment":[1,0],"goal":0,"start":4,"action_noise":0.15,"location_history":"[4,3,2,1,0]","action_history":"[0,1,0,1]","door_history":"[1,0,1,0]","location_rts":"[3407,5082,844,1566]","trial_type":"two-door-navigation","trial_index":17,"time_elapsed":714154,"internal_node_id":"0.0-2.0-15.0"},{"group":"hexagon_bi","room_assignment":["green","red","yellow","blue","grey","purple"],"door_color_assignment":["white","black"],"door_generator_assignment":[1,0],"goal":3,"start":0,"action_noise":0.15,"location_history":"[0,5,0,1,2,3]","action_history":"[0,0,1,0,1]","door_history":"[1,1,0,1,0]","location_rts":"[3105,2679,388,444,3677]","trial_type":"two-door-navigation","trial_index":18,"time_elapsed":737912,"internal_node_id":"0.0-2.0-16.0"},{"group":"hexagon_bi","room_assignment":["green","red","yellow","blue","grey","purple"],"door_color_assignment":["white","black"],"door_generator_assignment":[1,0],"goal":1,"start":3,"action_noise":0.15,"location_history":"[3,2,1]","action_history":"[1,0]","door_history":"[0,1]","location_rts":"[3918,1017]","trial_type":"two-door-navigation","trial_index":19,"time_elapsed":750950,"internal_node_id":"0.0-2.0-17.0"},{"group":"hexagon_bi","room_assignment":["green","red","yellow","blue","grey","purple"],"door_color_assignment":["white","black"],"door_generator_assignment":[1,0],"goal":5,"start":1,"action_noise":0.15,"location_history":"[1,2,3,4,5]","action_history":"[0,1,0,1]","door_history":"[1,0,1,0]","location_rts":"[3588,1673,2288,3431]","trial_type":"two-door-navigation","trial_index":20,"time_elapsed":772066,"internal_node_id":"0.0-2.0-18.0"},{"group":"hexagon_bi","room_assignment":["green","red","yellow","blue","grey","purple"],"door_color_assignment":["white","black"],"door_generator_assignment":[1,0],"goal":2,"start":5,"action_noise":0.15,"location_history":"[5,0,5,4,3,4,3,2]","action_history":"[0,0,0,1,0,0,1]","door_history":"[1,1,1,0,1,1,0]","location_rts":"[2655,7052,4470,2450,372,2285,358]","trial_type":"two-door-navigation","trial_index":21,"time_elapsed":807648,"internal_node_id":"0.0-2.0-19.0"},{"group":"hexagon_bi","room_assignment":["green","red","yellow","blue","grey","purple"],"door_color_assignment":["white","black"],"door_generator_assignment":[1,0],"goal":4,"start":2,"action_noise":0.15,"location_history":"[2,3,4]","action_history":"[1,0]","door_history":"[0,1]","location_rts":"[9999,1973]","trial_type":"two-door-navigation","trial_index":22,"time_elapsed":826186,"internal_node_id":"0.0-2.0-20.0"},{"group":"hexagon_bi","room_assignment":["green","red","yellow","blue","grey","purple"],"door_color_assignment":["white","black"],"door_generator_assignment":[1,0],"goal":1,"start":4,"action_noise":0.15,"location_history":"[4,3,2,3,4,5,0,1]","action_history":"[0,1,1,0,1,0,1]","door_history":"[1,0,0,1,0,1,0]","location_rts":"[7245,5780,8810,1299,3224,1948,1147]","trial_type":"two-door-navigation","trial_index":23,"time_elapsed":869592,"internal_node_id":"0.0-2.0-21.0"},{"group":"hexagon_bi","room_assignment":["green","red","yellow","blue","grey","purple"],"door_color_assignment":["white","black"],"door_generator_assignment":[1,0],"goal":3,"start":1,"action_noise":0.15,"location_history":"[1,2,3]","action_history":"[0,1]","door_history":"[1,0]","location_rts":"[22006,6519]","trial_type":"two-door-navigation","trial_index":24,"time_elapsed":906253,"internal_node_id":"0.0-2.0-22.0"},{"group":"hexagon_bi","room_assignment":["green","red","yellow","blue","grey","purple"],"door_color_assignment":["white","black"],"door_generator_assignment":[1,0],"goal":2,"start":3,"action_noise":0.15,"location_history":"[3,4,5,0,1,2]","action_history":"[0,1,0,1,0]","door_history":"[1,0,1,0,1]","location_rts":"[2101,13034,1946,975,1902]","trial_type":"two-door-navigation","trial_index":25,"time_elapsed":938020,"internal_node_id":"0.0-2.0-23.0"},{"group":"hexagon_bi","room_assignment":["green","red","yellow","blue","grey","purple"],"door_color_assignment":["white","black"],"door_generator_assignment":[1,0],"goal":0,"start":2,"action_noise":0.15,"location_history":"[2,3,4,5,0]","action_history":"[1,0,1,0]","door_history":"[0,1,0,1]","location_rts":"[6678,1608,3920,1720]","trial_type":"two-door-navigation","trial_index":26,"time_elapsed":965718,"internal_node_id":"0.0-2.0-24.0"},{"group":"hexagon_bi","room_assignment":["green","red","yellow","blue","grey","purple"],"door_color_assignment":["white","black"],"door_generator_assignment":[1,0],"goal":5,"start":0,"action_noise":0.15,"location_history":"[0,1,0,1,2,3,4,5]","action_history":"[1,0,1,0,1,0,1]","door_history":"[0,1,0,1,0,1,0]","location_rts":"[4456,575,3038,7026,987,1254,1394]","trial_type":"two-door-navigation","trial_index":27,"time_elapsed":1000108,"internal_node_id":"0.0-2.0-25.0"},{"group":"hexagon_bi","room_assignment":["green","red","yellow","blue","grey","purple"],"door_color_assignment":["white","black"],"door_generator_assignment":[1,0],"goal":2,"start":5,"action_noise":0.15,"location_history":"[5,0,1,2]","action_history":"[0,1,0]","door_history":"[1,0,1]","location_rts":"[22335,12551,1409]","trial_type":"two-door-navigation","trial_index":28,"time_elapsed":1045434,"internal_node_id":"0.0-2.0-26.0"},{"group":"hexagon_bi","room_assignment":["green","red","yellow","blue","grey","purple"],"door_color_assignment":["white","black"],"door_generator_assignment":[1,0],"goal":3,"start":2,"action_noise":0.15,"location_history":"[2,3]","action_history":"[1]","door_history":"[0]","location_rts":"[23090]","trial_type":"two-door-navigation","trial_index":29,"time_elapsed":1076376,"internal_node_id":"0.0-2.0-27.0"},{"group":"hexagon_bi","room_assignment":["green","red","yellow","blue","grey","purple"],"door_color_assignment":["white","black"],"door_generator_assignment":[1,0],"goal":0,"start":3,"action_noise":0.15,"location_history":"[3,2,3,2,3,2,3,4,3,4,5,0]","action_history":"[1,0,1,0,0,1,1,0,1,1,0]","door_history":"[0,1,0,1,1,0,0,1,0,0,1]","location_rts":"[2430,536,871,482,387,361,883,1658,535,451,2005]","trial_type":"two-door-navigation","trial_index":30,"time_elapsed":1111918,"internal_node_id":"0.0-2.0-28.0"},{"group":"hexagon_bi","room_assignment":["green","red","yellow","blue","grey","purple"],"door_color_assignment":["white","black"],"door_generator_assignment":[1,0],"goal":1,"start":0,"action_noise":0.15,"location_history":"[0,1]","action_history":"[1]","door_history":"[0]","location_rts":"[2129]","trial_type":"two-door-navigation","trial_index":31,"time_elapsed":1119537,"internal_node_id":"0.0-2.0-29.0"},{"group":"hexagon_bi","room_assignment":["green","red","yellow","blue","grey","purple"],"door_color_assignment":["white","black"],"door_generator_assignment":[1,0],"goal":4,"start":1,"action_noise":0.15,"location_history":"[1,0,1,0,1,2,3,2,3,2,1,0,5,4]","action_history":"[1,1,0,1,0,1,1,0,1,0,1,1,1]","door_history":"[0,0,1,0,1,0,0,1,0,1,0,0,0]","location_rts":"[18694,15344,1993,4811,8848,2477,1914,296,363,505,2817,8216,11633]","trial_type":"two-door-navigation","trial_index":32,"time_elapsed":1224051,"internal_node_id":"0.0-2.0-30.0"},{"group":"hexagon_bi","room_assignment":["green","red","yellow","blue","grey","purple"],"door_color_assignment":["white","black"],"door_generator_assignment":[1,0],"goal":5,"start":4,"action_noise":0.15,"location_history":"[4,5]","action_history":"[1]","door_history":"[0]","location_rts":"[2309]","trial_type":"two-door-navigation","trial_index":33,"time_elapsed":1232910,"internal_node_id":"0.0-2.0-31.0"},{"group":"hexagon_bi","room_assignment":["green","red","yellow","blue","grey","purple"],"door_color_assignment":["white","black"],"door_generator_assignment":[1,0],"goal":0,"start":5,"action_noise":0.15,"location_history":"[5,4,3,2,3,4,5,0]","action_history":"[0,0,1,0,0,1,0]","door_history":"[1,1,0,1,1,0,1]","location_rts":"[3509,6743,8563,526,3096,1319,863]","trial_type":"two-door-navigation","trial_index":34,"time_elapsed":1272806,"internal_node_id":"0.0-2.0-32.0"},{"group":"hexagon_bi","room_assignment":["green","red","yellow","blue","grey","purple"],"door_color_assignment":["white","black"],"door_generator_assignment":[1,0],"goal":3,"start":0,"action_noise":0.15,"location_history":"[0,5,4,3]","action_history":"[1,1,0]","door_history":"[0,0,1]","location_rts":"[11323,1981,278]","trial_type":"two-door-navigation","trial_index":35,"time_elapsed":1295037,"internal_node_id":"0.0-2.0-33.0"},{"group":"hexagon_bi","room_assignment":["green","red","yellow","blue","grey","purple"],"door_color_assignment":["white","black"],"door_generator_assignment":[1,0],"goal":1,"start":3,"action_noise":0.15,"location_history":"[3,4,5,0,1]","action_history":"[0,1,0,1]","door_history":"[1,0,1,0]","location_rts":"[36888,1541,2002,5077]","trial_type":"two-door-navigation","trial_index":36,"time_elapsed":1352863,"internal_node_id":"0.0-2.0-34.0"},{"group":"hexagon_bi","room_assignment":["green","red","yellow","blue","grey","purple"],"door_color_assignment":["white","black"],"door_generator_assignment":[1,0],"goal":2,"start":1,"action_noise":0.15,"location_history":"[1,2]","action_history":"[0]","door_history":"[1]","location_rts":"[1465]","trial_type":"two-door-navigation","trial_index":37,"time_elapsed":1360117,"internal_node_id":"0.0-2.0-35.0"},{"group":"hexagon_bi","room_assignment":["green","red","yellow","blue","grey","purple"],"door_color_assignment":["white","black"],"door_generator_assignment":[1,0],"goal":4,"start":2,"action_noise":0.15,"location_history":"[2,3,4]","action_history":"[1,0]","door_history":"[0,1]","location_rts":"[2029,4351]","trial_type":"two-door-navigation","trial_index":38,"time_elapsed":1372897,"internal_node_id":"0.0-2.0-36.0"},{"group":"hexagon_bi","room_assignment":["green","red","yellow","blue","grey","purple"],"door_color_assignment":["white","black"],"door_generator_assignment":[1,0],"goal":5,"start":4,"action_noise":0.15,"location_history":"[4,5]","action_history":"[1]","door_history":"[0]","location_rts":"[11143]","trial_type":"two-door-navigation","trial_index":39,"time_elapsed":1390077,"internal_node_id":"0.0-2.0-37.0"},{"group":"hexagon_bi","room_assignment":["green","red","yellow","blue","grey","purple"],"door_color_assignment":["white","black"],"door_generator_assignment":[1,0],"goal":1,"start":5,"action_noise":0.15,"location_history":"[5,4,5,0,5,0,5,4,5,4,5,4,5,4,5,0,1]","action_history":"[0,1,0,0,1,0,1,0,1,0,1,1,0,1,0,1]","door_history":"[1,0,1,1,0,1,0,1,0,1,0,0,1,0,1,0]","location_rts":"[3592,3422,7139,8514,1966,1531,2203,3579,5731,1934,2478,1988,1010,1467,436,807]","trial_type":"two-door-navigation","trial_index":40,"time_elapsed":1465114,"internal_node_id":"0.0-2.0-38.0"},{"group":"hexagon_bi","room_assignment":["green","red","yellow","blue","grey","purple"],"door_color_assignment":["white","black"],"door_generator_assignment":[1,0],"goal":4,"start":1,"action_noise":0.15,"location_history":"[1,0,5,0,1,2,3,4]","action_history":"[1,0,1,1,0,1,0]","door_history":"[0,1,0,0,1,0,1]","location_rts":"[22007,8170,10110,1943,595,905,1432]","trial_type":"two-door-navigation","trial_index":41,"time_elapsed":1525694,"internal_node_id":"0.0-2.0-39.0"},{"group":"hexagon_bi","room_assignment":["green","red","yellow","blue","grey","purple"],"door_color_assignment":["white","black"],"door_generator_assignment":[1,0],"goal":3,"start":4,"action_noise":0.15,"location_history":"[4,3]","action_history":"[0]","door_history":"[1]","location_rts":"[57624]","trial_type":"two-door-navigation","trial_index":42,"time_elapsed":1591473,"internal_node_id":"0.0-2.0-40.0"},{"group":"hexagon_bi","room_assignment":["green","red","yellow","blue","grey","purple"],"door_color_assignment":["white","black"],"door_generator_assignment":[1,0],"goal":2,"start":3,"action_noise":0.15,"location_history":"[3,2]","action_history":"[1]","door_history":"[0]","location_rts":"[23041]","trial_type":"two-door-navigation","trial_index":43,"time_elapsed":1620214,"internal_node_id":"0.0-2.0-41.0"},{"group":"hexagon_bi","room_assignment":["green","red","yellow","blue","grey","purple"],"door_color_assignment":["white","black"],"door_generator_assignment":[1,0],"goal":0,"start":2,"action_noise":0.15,"location_history":"[2,3,4,5,0]","action_history":"[0,1,1,0]","door_history":"[1,0,0,1]","location_rts":"[10037,2308,1806,4095]","trial_type":"two-door-navigation","trial_index":44,"time_elapsed":1649427,"internal_node_id":"0.0-2.0-42.0"},{"group":"hexagon_bi","room_assignment":["green","red","yellow","blue","grey","purple"],"door_color_assignment":["white","black"],"door_generator_assignment":[1,0],"goal":5,"start":0,"action_noise":0.15,"location_history":"[0,1,2,3,4,5]","action_history":"[1,0,1,0,1]","door_history":"[0,1,0,1,0]","location_rts":"[1474,2905,1833,1497,7471]","trial_type":"two-door-navigation","trial_index":45,"time_elapsed":1676627,"internal_node_id":"0.0-2.0-43.0"},{"group":"hexagon_bi","room_assignment":["green","red","yellow","blue","grey","purple"],"door_color_assignment":["white","black"],"door_generator_assignment":[1,0],"goal":0,"start":5,"action_noise":0.15,"location_history":"[5,0]","action_history":"[0]","door_history":"[1]","location_rts":"[2058]","trial_type":"two-door-navigation","trial_index":46,"time_elapsed":1684380,"internal_node_id":"0.0-2.0-44.0"},{"group":"hexagon_bi","room_assignment":["green","red","yellow","blue","grey","purple"],"door_color_assignment":["white","black"],"door_generator_assignment":[1,0],"goal":2,"start":0,"action_noise":0.15,"location_history":"[0,1,0,5,0,1,2]","action_history":"[1,0,1,0,1,0]","door_history":"[0,1,0,1,0,1]","location_rts":"[3027,11328,2219,1471,1754,1483]","trial_type":"two-door-navigation","trial_index":47,"time_elapsed":1717390,"internal_node_id":"0.0-2.0-45.0"},{"group":"hexagon_bi","room_assignment":["green","red","yellow","blue","grey","purple"],"door_color_assignment":["white","black"],"door_generator_assignment":[1,0],"goal":4,"start":2,"action_noise":0.15,"location_history":"[2,3,4]","action_history":"[1,0]","door_history":"[0,1]","location_rts":"[1246,2253]","trial_type":"two-door-navigation","trial_index":48,"time_elapsed":1727991,"internal_node_id":"0.0-2.0-46.0"},{"group":"hexagon_bi","room_assignment":["green","red","yellow","blue","grey","purple"],"door_color_assignment":["white","black"],"door_generator_assignment":[1,0],"goal":1,"start":4,"action_noise":0.15,"location_history":"[4,5,0,1]","action_history":"[1,0,1]","door_history":"[0,1,0]","location_rts":"[2044,1083,2040]","trial_type":"two-door-navigation","trial_index":49,"time_elapsed":1743275,"internal_node_id":"0.0-2.0-47.0"},{"group":"hexagon_bi","room_assignment":["green","red","yellow","blue","grey","purple"],"door_color_assignment":["white","black"],"door_generator_assignment":[1,0],"goal":5,"start":1,"action_noise":0.15,"location_history":"[1,0,5]","action_history":"[1,0]","door_history":"[0,1]","location_rts":"[8533,1903]","trial_type":"two-door-navigation","trial_index":50,"time_elapsed":1761634,"internal_node_id":"0.0-2.0-48.0"},{"group":"hexagon_bi","room_assignment":["green","red","yellow","blue","grey","purple"],"door_color_assignment":["white","black"],"door_generator_assignment":[1,0],"goal":3,"start":5,"action_noise":0.15,"location_history":"[5,0,1,2,3]","action_history":"[0,1,0,1]","door_history":"[1,0,1,0]","location_rts":"[2342,1635,2494,2003]","trial_type":"two-door-navigation","trial_index":51,"time_elapsed":1779849,"internal_node_id":"0.0-2.0-49.0"},{"view_history":"[{\"page_index\":0,\"viewing_time\":358655}]","rt":358656,"trial_type":"instructions","trial_index":52,"time_elapsed":2139506,"internal_node_id":"0.0-3.0"},{"view_history":"[{\"page_index\":0,\"viewing_time\":16196},{\"page_index\":1,\"viewing_time\":56907}]","rt":73104,"trial_type":"instructions","trial_index":53,"time_elapsed":2213610,"internal_node_id":"0.0-4.0"},{"group":"hexagon_tri","fractal_assignment":["../images/pnk_blu.png","../images/gry_blk.png","../images/org_blu.png","../images/ylw_slt.png","../images/cyn_red.png","../images/blu_wht.png"],"mutagen_generator_assignment":[1,0],"goal":3,"start":5,"action_noise":0.15,"location_history":"[5,0,5,4,0,5,4,2,3]","action_history":"[1,0,1,0,0,1,1,1]","mutagen_history":"[0,1,0,1,1,0,0,0]","location_rts":"[2116,4088,1604,38,5979,2482,4802,1946]","trial_type":"fractal-mutation","trial_index":54,"time_elapsed":2255508,"internal_node_id":"0.0-5.0-0.0"},{"group":"hexagon_tri","fractal_assignment":["../images/pnk_blu.png","../images/gry_blk.png","../images/org_blu.png","../images/ylw_slt.png","../images/cyn_red.png","../images/blu_wht.png"],"mutagen_generator_assignment":[1,0],"goal":1,"start":3,"action_noise":0.15,"location_history":"[3,4,0,5,0,1]","action_history":"[1,0,0,1,1]","mutagen_history":"[0,1,1,0,0]","location_rts":"[4734,744,783,1993,3454]","trial_type":"fractal-mutation","trial_index":55,"time_elapsed":2280748,"internal_node_id":"0.0-5.0-1.0"},{"group":"hexagon_tri","fractal_assignment":["../images/pnk_blu.png","../images/gry_blk.png","../images/org_blu.png","../images/ylw_slt.png","../images/cyn_red.png","../images/blu_wht.png"],"mutagen_generator_assignment":[1,0],"goal":0,"start":1,"action_noise":0.15,"location_history":"[1,5,0]","action_history":"[1,1]","mutagen_history":"[0,0]","location_rts":"[10257,6919]","trial_type":"fractal-mutation","trial_index":56,"time_elapsed":2305916,"internal_node_id":"0.0-5.0-2.0"},{"group":"hexagon_tri","fractal_assignment":["../images/pnk_blu.png","../images/gry_blk.png","../images/org_blu.png","../images/ylw_slt.png","../images/cyn_red.png","../images/blu_wht.png"],"mutagen_generator_assignment":[1,0],"goal":3,"start":0,"action_noise":0.15,"location_history":"[0,1,3]","action_history":"[1,0]","mutagen_history":"[0,1]","location_rts":"[4475,608]","trial_type":"fractal-mutation","trial_index":57,"time_elapsed":2320364,"internal_node_id":"0.0-5.0-3.0"},{"group":"hexagon_tri","fractal_assignment":["../images/pnk_blu.png","../images/gry_blk.png","../images/org_blu.png","../images/ylw_slt.png","../images/cyn_red.png","../images/blu_wht.png"],"mutagen_generator_assignment":[1,0],"goal":4,"start":3,"action_noise":0.15,"location_history":"[3,2,1,3,4]","action_history":"[1,0,0,1]","mutagen_history":"[0,1,1,0]","location_rts":"[3709,653,2758,785]","trial_type":"fractal-mutation","trial_index":58,"time_elapsed":2338181,"internal_node_id":"0.0-5.0-4.0"},{"group":"hexagon_tri","fractal_assignment":["../images/pnk_blu.png","../images/gry_blk.png","../images/org_blu.png","../images/ylw_slt.png","../images/cyn_red.png","../images/blu_wht.png"],"mutagen_generator_assignment":[1,0],"goal":2,"start":4,"action_noise":0.15,"location_history":"[4,0,1,3,4,0,1,5,4,2]","action_history":"[0,1,0,0,1,1,1,0,1]","mutagen_history":"[1,0,1,1,0,0,0,1,0]","location_rts":"[3680,647,1627,1388,2749,886,2636,2993,6500]","trial_type":"fractal-mutation","trial_index":59,"time_elapsed":2380895,"internal_node_id":"0.0-5.0-5.0"},{"group":"hexagon_tri","fractal_assignment":["../images/pnk_blu.png","../images/gry_blk.png","../images/org_blu.png","../images/ylw_slt.png","../images/cyn_red.png","../images/blu_wht.png"],"mutagen_generator_assignment":[1,0],"goal":1,"start":2,"action_noise":0.15,"location_history":"[2,3,2,1]","action_history":"[1,0,1]","mutagen_history":"[0,1,0]","location_rts":"[3393,8512,14609]","trial_type":"fractal-mutation","trial_index":60,"time_elapsed":2415713,"internal_node_id":"0.0-5.0-6.0"},{"group":"hexagon_tri","fractal_assignment":["../images/pnk_blu.png","../images/gry_blk.png","../images/org_blu.png","../images/ylw_slt.png","../images/cyn_red.png","../images/blu_wht.png"],"mutagen_generator_assignment":[1,0],"goal":5,"start":1,"action_noise":0.15,"location_history":"[1,5]","action_history":"[1]","mutagen_history":"[0]","location_rts":"[30600]","trial_type":"fractal-mutation","trial_index":61,"time_elapsed":2456791,"internal_node_id":"0.0-5.0-7.0"},{"group":"hexagon_tri","fractal_assignment":["../images/pnk_blu.png","../images/gry_blk.png","../images/org_blu.png","../images/ylw_slt.png","../images/cyn_red.png","../images/blu_wht.png"],"mutagen_generator_assignment":[1,0],"goal":4,"start":5,"action_noise":0.15,"location_history":"[5,0,1,3,2,3,4]","action_history":"[1,1,0,0,1,1]","mutagen_history":"[0,0,1,1,0,0]","location_rts":"[2201,6175,2620,760,892,1687]","trial_type":"fractal-mutation","trial_index":62,"time_elapsed":2486182,"internal_node_id":"0.0-5.0-8.0"},{"group":"hexagon_tri","fractal_assignment":["../images/pnk_blu.png","../images/gry_blk.png","../images/org_blu.png","../images/ylw_slt.png","../images/cyn_red.png","../images/blu_wht.png"],"mutagen_generator_assignment":[1,0],"goal":2,"start":4,"action_noise":0.15,"location_history":"[4,0,5,0,1,5,0,1,3,2]","action_history":"[0,0,1,1,1,1,0,0,0]","mutagen_history":"[1,1,0,0,0,0,1,1,1]","location_rts":"[1994,1500,1923,1722,7767,820,462,490,569]","trial_type":"fractal-mutation","trial_index":63,"time_elapsed":2519771,"internal_node_id":"0.0-5.0-9.0"},{"group":"hexagon_tri","fractal_assignment":["../images/pnk_blu.png","../images/gry_blk.png","../images/org_blu.png","../images/ylw_slt.png","../images/cyn_red.png","../images/blu_wht.png"],"mutagen_generator_assignment":[1,0],"goal":0,"start":2,"action_noise":0.15,"location_history":"[2,3,4,0]","action_history":"[1,1,0]","mutagen_history":"[0,0,1]","location_rts":"[9803,2040,2321]","trial_type":"fractal-mutation","trial_index":64,"time_elapsed":2540556,"internal_node_id":"0.0-5.0-10.0"},{"group":"hexagon_tri","fractal_assignment":["../images/pnk_blu.png","../images/gry_blk.png","../images/org_blu.png","../images/ylw_slt.png","../images/cyn_red.png","../images/blu_wht.png"],"mutagen_generator_assignment":[1,0],"goal":1,"start":0,"action_noise":0.15,"location_history":"[0,5,0,5,4,2,1]","action_history":"[0,1,0,0,0,0]","mutagen_history":"[1,0,1,1,1,1]","location_rts":"[22855,27521,1489,723,22367,12936]","trial_type":"fractal-mutation","trial_index":65,"time_elapsed":2643541,"internal_node_id":"0.0-5.0-11.0"},{"group":"hexagon_tri","fractal_assignment":["../images/pnk_blu.png","../images/gry_blk.png","../images/org_blu.png","../images/ylw_slt.png","../images/cyn_red.png","../images/blu_wht.png"],"mutagen_generator_assignment":[1,0],"goal":3,"start":1,"action_noise":0.15,"location_history":"[1,3]","action_history":"[0]","mutagen_history":"[1]","location_rts":"[12776]","trial_type":"fractal-mutation","trial_index":66,"time_elapsed":2661913,"internal_node_id":"0.0-5.0-12.0"},{"group":"hexagon_tri","fractal_assignment":["../images/pnk_blu.png","../images/gry_blk.png","../images/org_blu.png","../images/ylw_slt.png","../images/cyn_red.png","../images/blu_wht.png"],"mutagen_generator_assignment":[1,0],"goal":5,"start":3,"action_noise":0.15,"location_history":"[3,2,1,3,4,0,1,5]","action_history":"[1,0,1,1,1,1,1]","mutagen_history":"[0,1,0,0,0,0,0]","location_rts":"[5908,6119,12259,11721,6707,5574,755]","trial_type":"fractal-mutation","trial_index":67,"time_elapsed":2726957,"internal_node_id":"0.0-5.0-13.0"},{"group":"hexagon_tri","fractal_assignment":["../images/pnk_blu.png","../images/gry_blk.png","../images/org_blu.png","../images/ylw_slt.png","../images/cyn_red.png","../images/blu_wht.png"],"mutagen_generator_assignment":[1,0],"goal":4,"start":5,"action_noise":0.15,"location_history":"[5,0,5,4]","action_history":"[1,0,0]","mutagen_history":"[0,1,1]","location_rts":"[14247,1351,2704]","trial_type":"fractal-mutation","trial_index":68,"time_elapsed":2755848,"internal_node_id":"0.0-5.0-14.0"},{"group":"hexagon_tri","fractal_assignment":["../images/pnk_blu.png","../images/gry_blk.png","../images/org_blu.png","../images/ylw_slt.png","../images/cyn_red.png","../images/blu_wht.png"],"mutagen_generator_assignment":[1,0],"goal":0,"start":4,"action_noise":0.15,"location_history":"[4,0]","action_history":"[0]","mutagen_history":"[1]","location_rts":"[11757]","trial_type":"fractal-mutation","trial_index":69,"time_elapsed":2774612,"internal_node_id":"0.0-5.0-15.0"},{"group":"hexagon_tri","fractal_assignment":["../images/pnk_blu.png","../images/gry_blk.png","../images/org_blu.png","../images/ylw_slt.png","../images/cyn_red.png","../images/blu_wht.png"],"mutagen_generator_assignment":[1,0],"goal":3,"start":0,"action_noise":0.15,"location_history":"[0,5,4,2,3]","action_history":"[0,0,1,1]","mutagen_history":"[1,1,0,0]","location_rts":"[11096,4448,1970,2268]","trial_type":"fractal-mutation","trial_index":70,"time_elapsed":2803185,"internal_node_id":"0.0-5.0-16.0"},{"group":"hexagon_tri","fractal_assignment":["../images/pnk_blu.png","../images/gry_blk.png","../images/org_blu.png","../images/ylw_slt.png","../images/cyn_red.png","../images/blu_wht.png"],"mutagen_generator_assignment":[1,0],"goal":1,"start":3,"action_noise":0.15,"location_history":"[3,2,1]","action_history":"[0,0]","mutagen_history":"[1,1]","location_rts":"[2695,2616]","trial_type":"fractal-mutation","trial_index":71,"time_elapsed":2816248,"internal_node_id":"0.0-5.0-17.0"},{"group":"hexagon_tri","fractal_assignment":["../images/pnk_blu.png","../images/gry_blk.png","../images/org_blu.png","../images/ylw_slt.png","../images/cyn_red.png","../images/blu_wht.png"],"mutagen_generator_assignment":[1,0],"goal":5,"start":1,"action_noise":0.15,"location_history":"[1,3,2,1,5]","action_history":"[0,0,0,1]","mutagen_history":"[1,1,1,0]","location_rts":"[6987,4536,24328,9151]","trial_type":"fractal-mutation","trial_index":72,"time_elapsed":2872048,"internal_node_id":"0.0-5.0-18.0"},{"group":"hexagon_tri","fractal_assignment":["../images/pnk_blu.png","../images/gry_blk.png","../images/org_blu.png","../images/ylw_slt.png","../images/cyn_red.png","../images/blu_wht.png"],"mutagen_generator_assignment":[1,0],"goal":2,"start":5,"action_noise":0.15,"location_history":"[5,4,2]","action_history":"[0,1]","mutagen_history":"[1,0]","location_rts":"[16179,10577]","trial_type":"fractal-mutation","trial_index":73,"time_elapsed":2905253,"internal_node_id":"0.0-5.0-19.0"},{"group":"hexagon_tri","fractal_assignment":["../images/pnk_blu.png","../images/gry_blk.png","../images/org_blu.png","../images/ylw_slt.png","../images/cyn_red.png","../images/blu_wht.png"],"mutagen_generator_assignment":[1,0],"goal":4,"start":2,"action_noise":0.15,"location_history":"[2,3,2,1,5,4]","action_history":"[1,0,1,1,0]","mutagen_history":"[0,1,0,0,1]","location_rts":"[58705,2623,1252,1964,14042]","trial_type":"fractal-mutation","trial_index":74,"time_elapsed":2997204,"internal_node_id":"0.0-5.0-20.0"},{"group":"hexagon_tri","fractal_assignment":["../images/pnk_blu.png","../images/gry_blk.png","../images/org_blu.png","../images/ylw_slt.png","../images/cyn_red.png","../images/blu_wht.png"],"mutagen_generator_assignment":[1,0],"goal":1,"start":4,"action_noise":0.15,"location_history":"[4,2,1]","action_history":"[1,0]","mutagen_history":"[0,1]","location_rts":"[15620,5327]","trial_type":"fractal-mutation","trial_index":75,"time_elapsed":3023709,"internal_node_id":"0.0-5.0-21.0"},{"group":"hexagon_tri","fractal_assignment":["../images/pnk_blu.png","../images/gry_blk.png","../images/org_blu.png","../images/ylw_slt.png","../images/cyn_red.png","../images/blu_wht.png"],"mutagen_generator_assignment":[1,0],"goal":3,"start":1,"action_noise":0.15,"location_history":"[1,3]","action_history":"[0]","mutagen_history":"[1]","location_rts":"[3798]","trial_type":"fractal-mutation","trial_index":76,"time_elapsed":3032144,"internal_node_id":"0.0-5.0-22.0"},{"group":"hexagon_tri","fractal_assignment":["../images/pnk_blu.png","../images/gry_blk.png","../images/org_blu.png","../images/ylw_slt.png","../images/cyn_red.png","../images/blu_wht.png"],"mutagen_generator_assignment":[1,0],"goal":2,"start":3,"action_noise":0.15,"location_history":"[3,2]","action_history":"[0]","mutagen_history":"[1]","location_rts":"[15195]","trial_type":"fractal-mutation","trial_index":77,"time_elapsed":3051884,"internal_node_id":"0.0-5.0-23.0"},{"group":"hexagon_tri","fractal_assignment":["../images/pnk_blu.png","../images/gry_blk.png","../images/org_blu.png","../images/ylw_slt.png","../images/cyn_red.png","../images/blu_wht.png"],"mutagen_generator_assignment":[1,0],"goal":0,"start":2,"action_noise":0.15,"location_history":"[2,3,2,1,3,4,0]","action_history":"[1,0,0,0,1,1]","mutagen_history":"[0,1,1,1,0,0]","location_rts":"[2068,4170,18832,2569,1909,1393]","trial_type":"fractal-mutation","trial_index":78,"time_elapsed":3095441,"internal_node_id":"0.0-5.0-24.0"},{"group":"hexagon_tri","fractal_assignment":["../images/pnk_blu.png","../images/gry_blk.png","../images/org_blu.png","../images/ylw_slt.png","../images/cyn_red.png","../images/blu_wht.png"],"mutagen_generator_assignment":[1,0],"goal":5,"start":0,"action_noise":0.15,"location_history":"[0,5]","action_history":"[0]","mutagen_history":"[1]","location_rts":"[9087]","trial_type":"fractal-mutation","trial_index":79,"time_elapsed":3110224,"internal_node_id":"0.0-5.0-25.0"},{"group":"hexagon_tri","fractal_assignment":["../images/pnk_blu.png","../images/gry_blk.png","../images/org_blu.png","../images/ylw_slt.png","../images/cyn_red.png","../images/blu_wht.png"],"mutagen_generator_assignment":[1,0],"goal":2,"start":5,"action_noise":0.15,"location_history":"[5,0,5,0,1,5,4,2]","action_history":"[1,0,1,1,0,0,0]","mutagen_history":"[0,1,0,0,1,1,1]","location_rts":"[10074,508,705,6800,666,4905,2087]","trial_type":"fractal-mutation","trial_index":80,"time_elapsed":3150680,"internal_node_id":"0.0-5.0-26.0"},{"group":"hexagon_tri","fractal_assignment":["../images/pnk_blu.png","../images/gry_blk.png","../images/org_blu.png","../images/ylw_slt.png","../images/cyn_red.png","../images/blu_wht.png"],"mutagen_generator_assignment":[1,0],"goal":3,"start":2,"action_noise":0.15,"location_history":"[2,1,5,4,2,3]","action_history":"[0,1,0,1,0]","mutagen_history":"[1,0,1,0,1]","location_rts":"[3205,1695,11743,939,2103]","trial_type":"fractal-mutation","trial_index":81,"time_elapsed":3182861,"internal_node_id":"0.0-5.0-27.0"},{"group":"hexagon_tri","fractal_assignment":["../images/pnk_blu.png","../images/gry_blk.png","../images/org_blu.png","../images/ylw_slt.png","../images/cyn_red.png","../images/blu_wht.png"],"mutagen_generator_assignment":[1,0],"goal":0,"start":3,"action_noise":0.15,"location_history":"[3,2,3,4,2,1,3,4,2,1,3,4,2,3,4,2,3,2,1,3,2,3,2,3,4,0]","action_history":"[0,1,1,1,0,0,1,1,0,0,0,1,0,1,1,1,1,0,0,0,1,0,0,1,0]","mutagen_history":"[1,0,0,0,1,1,0,0,1,1,1,0,1,0,0,0,0,1,1,1,0,1,1,0,1]","location_rts":"[3128,1712,2336,780,691,3225,2972,1912,3282,648,3463,2568,3798,2208,493,410,537,463,391,416,626,973,678,1474,771]","trial_type":"fractal-mutation","trial_index":82,"time_elapsed":3270162,"internal_node_id":"0.0-5.0-28.0"},{"group":"hexagon_tri","fractal_assignment":["../images/pnk_blu.png","../images/gry_blk.png","../images/org_blu.png","../images/ylw_slt.png","../images/cyn_red.png","../images/blu_wht.png"],"mutagen_generator_assignment":[1,0],"goal":1,"start":0,"action_noise":0.15,"location_history":"[0,5,0,1]","action_history":"[0,1,0]","mutagen_history":"[1,0,1]","location_rts":"[16161,3621,2469]","trial_type":"fractal-mutation","trial_index":83,"time_elapsed":3300802,"internal_node_id":"0.0-5.0-29.0"},{"group":"hexagon_tri","fractal_assignment":["../images/pnk_blu.png","../images/gry_blk.png","../images/org_blu.png","../images/ylw_slt.png","../images/cyn_red.png","../images/blu_wht.png"],"mutagen_generator_assignment":[1,0],"goal":4,"start":1,"action_noise":0.15,"location_history":"[1,3,2,3,4]","action_history":"[0,0,1,1]","mutagen_history":"[1,1,0,0]","location_rts":"[7461,3379,590,487]","trial_type":"fractal-mutation","trial_index":84,"time_elapsed":3323590,"internal_node_id":"0.0-5.0-30.0"},{"group":"hexagon_tri","fractal_assignment":["../images/pnk_blu.png","../images/gry_blk.png","../images/org_blu.png","../images/ylw_slt.png","../images/cyn_red.png","../images/blu_wht.png"],"mutagen_generator_assignment":[1,0],"goal":5,"start":4,"action_noise":0.15,"location_history":"[4,0,1,5]","action_history":"[0,1,1]","mutagen_history":"[1,0,0]","location_rts":"[8832,1233,4779]","trial_type":"fractal-mutation","trial_index":85,"time_elapsed":3353249,"internal_node_id":"0.0-5.0-31.0"},{"group":"hexagon_tri","fractal_assignment":["../images/pnk_blu.png","../images/gry_blk.png","../images/org_blu.png","../images/ylw_slt.png","../images/cyn_red.png","../images/blu_wht.png"],"mutagen_generator_assignment":[1,0],"goal":0,"start":5,"action_noise":0.15,"location_history":"[5,0]","action_history":"[1]","mutagen_history":"[0]","location_rts":"[4748]","trial_type":"fractal-mutation","trial_index":86,"time_elapsed":3366571,"internal_node_id":"0.0-5.0-32.0"},{"group":"hexagon_tri","fractal_assignment":["../images/pnk_blu.png","../images/gry_blk.png","../images/org_blu.png","../images/ylw_slt.png","../images/cyn_red.png","../images/blu_wht.png"],"mutagen_generator_assignment":[1,0],"goal":3,"start":0,"action_noise":0.15,"location_history":"[0,5,4,0,1,5,0,1,5,4,0,5,4,2,1,5,0,1,5,0,1,3]","action_history":"[0,0,0,1,1,1,1,1,0,0,0,0,1,0,1,0,0,1,1,0,0]","mutagen_history":"[1,1,1,0,0,0,0,0,1,1,1,1,0,1,0,1,1,0,0,1,1]","location_rts":"[1657,2675,1021,1034,2571,1683,3863,1613,472,1118,5133,1966,2318,3614,717,2746,1866,1329,1222,346,439]","trial_type":"fractal-mutation","trial_index":87,"time_elapsed":3445073,"internal_node_id":"0.0-5.0-33.0"},{"group":"hexagon_tri","fractal_assignment":["../images/pnk_blu.png","../images/gry_blk.png","../images/org_blu.png","../images/ylw_slt.png","../images/cyn_red.png","../images/blu_wht.png"],"mutagen_generator_assignment":[1,0],"goal":1,"start":3,"action_noise":0.15,"location_history":"[3,2,1]","action_history":"[0,0]","mutagen_history":"[1,1]","location_rts":"[5738,4753]","trial_type":"fractal-mutation","trial_index":88,"time_elapsed":3461460,"internal_node_id":"0.0-5.0-34.0"},{"group":"hexagon_tri","fractal_assignment":["../images/pnk_blu.png","../images/gry_blk.png","../images/org_blu.png","../images/ylw_slt.png","../images/cyn_red.png","../images/blu_wht.png"],"mutagen_generator_assignment":[1,0],"goal":2,"start":1,"action_noise":0.15,"location_history":"[1,3,2]","action_history":"[0,1]","mutagen_history":"[1,0]","location_rts":"[4888,495]","trial_type":"fractal-mutation","trial_index":89,"time_elapsed":3472605,"internal_node_id":"0.0-5.0-35.0"},{"group":"hexagon_tri","fractal_assignment":["../images/pnk_blu.png","../images/gry_blk.png","../images/org_blu.png","../images/ylw_slt.png","../images/cyn_red.png","../images/blu_wht.png"],"mutagen_generator_assignment":[1,0],"goal":4,"start":2,"action_noise":0.15,"location_history":"[2,1,5,0,1,5,0,1,3,4]","action_history":"[0,1,1,1,0,1,1,1,1]","mutagen_history":"[1,0,0,0,1,0,0,0,0]","location_rts":"[7152,3481,4672,4737,7357,4813,568,378,572]","trial_type":"fractal-mutation","trial_index":90,"time_elapsed":3526350,"internal_node_id":"0.0-5.0-36.0"},{"group":"hexagon_tri","fractal_assignment":["../images/pnk_blu.png","../images/gry_blk.png","../images/org_blu.png","../images/ylw_slt.png","../images/cyn_red.png","../images/blu_wht.png"],"mutagen_generator_assignment":[1,0],"goal":5,"start":4,"action_noise":0.15,"location_history":"[4,0,1,5]","action_history":"[0,1,1]","mutagen_history":"[1,0,0]","location_rts":"[16249,2199,1350]","trial_type":"fractal-mutation","trial_index":91,"time_elapsed":3555016,"internal_node_id":"0.0-5.0-37.0"},{"group":"hexagon_tri","fractal_assignment":["../images/pnk_blu.png","../images/gry_blk.png","../images/org_blu.png","../images/ylw_slt.png","../images/cyn_red.png","../images/blu_wht.png"],"mutagen_generator_assignment":[1,0],"goal":1,"start":5,"action_noise":0.15,"location_history":"[5,4,2,3,2,1]","action_history":"[0,1,1,0,0]","mutagen_history":"[1,0,0,1,1]","location_rts":"[1519,2068,664,1618,11307]","trial_type":"fractal-mutation","trial_index":92,"time_elapsed":3585123,"internal_node_id":"0.0-5.0-38.0"},{"group":"hexagon_tri","fractal_assignment":["../images/pnk_blu.png","../images/gry_blk.png","../images/org_blu.png","../images/ylw_slt.png","../images/cyn_red.png","../images/blu_wht.png"],"mutagen_generator_assignment":[1,0],"goal":4,"start":1,"action_noise":0.15,"location_history":"[1,3,4]","action_history":"[0,1]","mutagen_history":"[1,0]","location_rts":"[19947,491]","trial_type":"fractal-mutation","trial_index":93,"time_elapsed":3612587,"internal_node_id":"0.0-5.0-39.0"},{"group":"hexagon_tri","fractal_assignment":["../images/pnk_blu.png","../images/gry_blk.png","../images/org_blu.png","../images/ylw_slt.png","../images/cyn_red.png","../images/blu_wht.png"],"mutagen_generator_assignment":[1,0],"goal":3,"start":4,"action_noise":0.15,"location_history":"[4,0,5,4,0,1,5,4,2,1,3]","action_history":"[0,0,0,0,1,1,0,1,0,0]","mutagen_history":"[1,1,1,1,0,0,1,0,1,1]","location_rts":"[883,1686,1128,737,1445,770,5714,6273,670,697]","trial_type":"fractal-mutation","trial_index":94,"time_elapsed":3653050,"internal_node_id":"0.0-5.0-40.0"},{"group":"hexagon_tri","fractal_assignment":["../images/pnk_blu.png","../images/gry_blk.png","../images/org_blu.png","../images/ylw_slt.png","../images/cyn_red.png","../images/blu_wht.png"],"mutagen_generator_assignment":[1,0],"goal":2,"start":3,"action_noise":0.15,"location_history":"[3,2]","action_history":"[0]","mutagen_history":"[1]","location_rts":"[1421]","trial_type":"fractal-mutation","trial_index":95,"time_elapsed":3662257,"internal_node_id":"0.0-5.0-41.0"},{"group":"hexagon_tri","fractal_assignment":["../images/pnk_blu.png","../images/gry_blk.png","../images/org_blu.png","../images/ylw_slt.png","../images/cyn_red.png","../images/blu_wht.png"],"mutagen_generator_assignment":[1,0],"goal":0,"start":2,"action_noise":0.15,"location_history":"[2,1,3,4,0]","action_history":"[0,1,1,0]","mutagen_history":"[1,0,0,1]","location_rts":"[6591,1312,764,4056]","trial_type":"fractal-mutation","trial_index":96,"time_elapsed":3687618,"internal_node_id":"0.0-5.0-42.0"},{"group":"hexagon_tri","fractal_assignment":["../images/pnk_blu.png","../images/gry_blk.png","../images/org_blu.png","../images/ylw_slt.png","../images/cyn_red.png","../images/blu_wht.png"],"mutagen_generator_assignment":[1,0],"goal":5,"start":0,"action_noise":0.15,"location_history":"[0,5]","action_history":"[0]","mutagen_history":"[1]","location_rts":"[5249]","trial_type":"fractal-mutation","trial_index":97,"time_elapsed":3697397,"internal_node_id":"0.0-5.0-43.0"},{"group":"hexagon_tri","fractal_assignment":["../images/pnk_blu.png","../images/gry_blk.png","../images/org_blu.png","../images/ylw_slt.png","../images/cyn_red.png","../images/blu_wht.png"],"mutagen_generator_assignment":[1,0],"goal":0,"start":5,"action_noise":0.15,"location_history":"[5,4,0]","action_history":"[0,0]","mutagen_history":"[1,1]","location_rts":"[1940,1631]","trial_type":"fractal-mutation","trial_index":98,"time_elapsed":3706806,"internal_node_id":"0.0-5.0-44.0"},{"group":"hexagon_tri","fractal_assignment":["../images/pnk_blu.png","../images/gry_blk.png","../images/org_blu.png","../images/ylw_slt.png","../images/cyn_red.png","../images/blu_wht.png"],"mutagen_generator_assignment":[1,0],"goal":2,"start":0,"action_noise":0.15,"location_history":"[0,1,5,0,1,3,2]","action_history":"[0,1,1,1,0,0]","mutagen_history":"[1,0,0,0,1,1]","location_rts":"[3180,1032,1556,4084,758,2643]","trial_type":"fractal-mutation","trial_index":99,"time_elapsed":3734062,"internal_node_id":"0.0-5.0-45.0"},{"group":"hexagon_tri","fractal_assignment":["../images/pnk_blu.png","../images/gry_blk.png","../images/org_blu.png","../images/ylw_slt.png","../images/cyn_red.png","../images/blu_wht.png"],"mutagen_generator_assignment":[1,0],"goal":4,"start":2,"action_noise":0.15,"location_history":"[2,1,3,2,3,4]","action_history":"[0,0,0,1,1]","mutagen_history":"[1,1,1,0,0]","location_rts":"[8158,8836,6763,2453,14406]","trial_type":"fractal-mutation","trial_index":100,"time_elapsed":3789340,"internal_node_id":"0.0-5.0-46.0"},{"group":"hexagon_tri","fractal_assignment":["../images/pnk_blu.png","../images/gry_blk.png","../images/org_blu.png","../images/ylw_slt.png","../images/cyn_red.png","../images/blu_wht.png"],"mutagen_generator_assignment":[1,0],"goal":1,"start":4,"action_noise":0.15,"location_history":"[4,0,1]","action_history":"[0,1]","mutagen_history":"[1,0]","location_rts":"[14276,1524]","trial_type":"fractal-mutation","trial_index":101,"time_elapsed":3814376,"internal_node_id":"0.0-5.0-47.0"},{"group":"hexagon_tri","fractal_assignment":["../images/pnk_blu.png","../images/gry_blk.png","../images/org_blu.png","../images/ylw_slt.png","../images/cyn_red.png","../images/blu_wht.png"],"mutagen_generator_assignment":[1,0],"goal":5,"start":1,"action_noise":0.15,"location_history":"[1,3,2,3,4,0,1,5]","action_history":"[0,0,1,1,0,1,1]","mutagen_history":"[1,1,0,0,1,0,0]","location_rts":"[28366,1199,376,3193,50143,2988,5434]","trial_type":"fractal-mutation","trial_index":102,"time_elapsed":3923093,"internal_node_id":"0.0-5.0-48.0"},{"group":"hexagon_tri","fractal_assignment":["../images/pnk_blu.png","../images/gry_blk.png","../images/org_blu.png","../images/ylw_slt.png","../images/cyn_red.png","../images/blu_wht.png"],"mutagen_generator_assignment":[1,0],"goal":3,"start":5,"action_noise":0.15,"location_history":"[5,0,5,4,2,3]","action_history":"[1,0,1,0,1]","mutagen_history":"[0,1,0,1,0]","location_rts":"[10625,632,4500,5638,1084]","trial_type":"fractal-mutation","trial_index":103,"time_elapsed":3955982,"internal_node_id":"0.0-5.0-49.0"},{"view_history":"[{\"page_index\":0,\"viewing_time\":15691}]","rt":15692,"trial_type":"instructions","trial_index":104,"time_elapsed":3973940,"internal_node_id":"0.0-6.0"},{"rt":14728,"responses":"{\"Q0\":\"This was a bit tedious but I enjoyed it.\"}","trial_type":"survey-text","trial_index":105,"time_elapsed":3990996,"internal_node_id":"0.0-7.0"}]