[{"view_history":"[{\"page_index\":0,\"viewing_time\":12096},{\"page_index\":1,\"viewing_time\":12110}]","rt":24207,"trial_type":"instructions","trial_index":0,"time_elapsed":24207,"internal_node_id":"0.0-0.0"},{"view_history":"[{\"page_index\":0,\"viewing_time\":2719},{\"page_index\":1,\"viewing_time\":13171}]","rt":15890,"trial_type":"instructions","trial_index":1,"time_elapsed":41100,"internal_node_id":"0.0-1.0"},{"group":"hexagon_tri","room_assignment":["green","purple","yellow","blue","red","grey"],"door_color_assignment":["black","white"],"door_generator_assignment":[1,0],"goal":3,"start":5,"action_noise":0.15,"location_history":"[5,4,2,1,3]","action_history":"[0,1,0,0]","door_history":"[1,0,1,1]","location_rts":"[3702,1639,1179,1677]","trial_type":"two-door-navigation","trial_index":2,"time_elapsed":57100,"internal_node_id":"0.0-2.0-0.0"},{"group":"hexagon_tri","room_assignment":["green","purple","yellow","blue","red","grey"],"door_color_assignment":["black","white"],"door_generator_assignment":[1,0],"goal":1,"start":3,"action_noise":0.15,"location_history":"[3,2,1]","action_history":"[0,0]","door_history":"[1,1]","location_rts":"[2331,340]","trial_type":"two-door-navigation","trial_index":3,"time_elapsed":65430,"internal_node_id":"0.0-2.0-1.0"},{"group":"hexagon_tri","room_assignment":["green","purple","yellow","blue","red","grey"],"door_color_assignment":["black","white"],"door_generator_assignment":[1,0],"goal":0,"start":1,"action_noise":0.15,"location_history":"[1,5,4,0]","action_history":"[0,0,0]","door_history":"[1,1,1]","location_rts":"[1351,606,399]","trial_type":"two-door-navigation","trial_index":4,"time_elapsed":74524,"internal_node_id":"0.0-2.0-2.0"},{"group":"hexagon_tri","room_assignment":["green","purple","yellow","blue","red","grey"],"door_color_assignment":["black","white"],"door_generator_assignment":[1,0],"goal":3,"start":0,"action_noise":0.15,"location_history":"[0,5,4,0,1,3]","action_history":"[0,0,0,0,0]","door_history":"[1,1,1,1,1]","location_rts":"[1498,1874,399,540,481]","trial_type":"two-door-navigation","trial_index":5,"time_elapsed":88178,"internal_node_id":"0.0-2.0-3.0"},{"group":"hexagon_tri","room_assignment":["green","purple","yellow","blue","red","grey"],"door_color_assignment":["black","white"],"door_generator_assignment":[1,0],"goal":4,"start":3,"action_noise":0.15,"location_history":"[3,4]","action_history":"[1]","door_history":"[0]","location_rts":"[2165]","trial_type":"two-door-navigation","trial_index":6,"time_elapsed":94932,"internal_node_id":"0.0-2.0-4.0"},{"group":"hexagon_tri","room_assignment":["green","purple","yellow","blue","red","grey"],"door_color_assignment":["black","white"],"door_generator_assignment":[1,0],"goal":2,"start":4,"action_noise":0.15,"location_history":"[4,0,5,4,2]","action_history":"[0,0,0,0]","door_history":"[1,1,1,1]","location_rts":"[1645,387,427,395]","trial_type":"two-door-navigation","trial_index":7,"time_elapsed":105590,"internal_node_id":"0.0-2.0-5.0"},{"group":"hexagon_tri","room_assignment":["green","purple","yellow","blue","red","grey"],"door_color_assignment":["black","white"],"door_generator_assignment":[1,0],"goal":1,"start":2,"action_noise":0.15,"location_history":"[2,1]","action_history":"[0]","door_history":"[1]","location_rts":"[7580]","trial_type":"two-door-navigation","trial_index":8,"time_elapsed":117747,"internal_node_id":"0.0-2.0-6.0"},{"group":"hexagon_tri","room_assignment":["green","purple","yellow","blue","red","grey"],"door_color_assignment":["black","white"],"door_generator_assignment":[1,0],"goal":5,"start":1,"action_noise":0.15,"location_history":"[1,5]","action_history":"[1]","door_history":"[0]","location_rts":"[2014]","trial_type":"two-door-navigation","trial_index":9,"time_elapsed":124341,"internal_node_id":"0.0-2.0-7.0"},{"group":"hexagon_tri","room_assignment":["green","purple","yellow","blue","red","grey"],"door_color_assignment":["black","white"],"door_generator_assignment":[1,0],"goal":4,"start":5,"action_noise":0.15,"location_history":"[5,4]","action_history":"[0]","door_history":"[1]","location_rts":"[1028]","trial_type":"two-door-navigation","trial_index":10,"time_elapsed":129947,"internal_node_id":"0.0-2.0-8.0"},{"group":"hexagon_tri","room_assignment":["green","purple","yellow","blue","red","grey"],"door_color_assignment":["black","white"],"door_generator_assignment":[1,0],"goal":2,"start":4,"action_noise":0.15,"location_history":"[4,0,1,5,0,5,4,0,5,0,1,5,0,1,3,4,2]","action_history":"[0,0,0,0,0,0,0,0,1,1,1,1,1,1,1,1]","door_history":"[1,1,1,1,1,1,1,1,0,0,0,0,0,0,0,0]","location_rts":"[7866,588,436,888,565,402,600,479,380,306,354,418,423,411,470,382]","trial_type":"two-door-navigation","trial_index":11,"time_elapsed":165630,"internal_node_id":"0.0-2.0-9.0"},{"group":"hexagon_tri","room_assignment":["green","purple","yellow","blue","red","grey"],"door_color_assignment":["black","white"],"door_generator_assignment":[1,0],"goal":0,"start":2,"action_noise":0.15,"location_history":"[2,1,3,2,1,3,4,0]","action_history":"[0,0,0,0,0,1,0]","door_history":"[1,1,1,1,1,0,1]","location_rts":"[1588,446,357,527,533,906,659]","trial_type":"two-door-navigation","trial_index":12,"time_elapsed":181677,"internal_node_id":"0.0-2.0-10.0"},{"group":"hexagon_tri","room_assignment":["green","purple","yellow","blue","red","grey"],"door_color_assignment":["black","white"],"door_generator_assignment":[1,0],"goal":1,"start":0,"action_noise":0.15,"location_history":"[0,5,0,5,4,0,1]","action_history":"[0,1,0,0,0,0]","door_history":"[1,0,1,1,1,1]","location_rts":"[1145,708,461,461,364,592]","trial_type":"two-door-navigation","trial_index":13,"time_elapsed":195364,"internal_node_id":"0.0-2.0-11.0"},{"group":"hexagon_tri","room_assignment":["green","purple","yellow","blue","red","grey"],"door_color_assignment":["black","white"],"door_generator_assignment":[1,0],"goal":3,"start":1,"action_noise":0.15,"location_history":"[1,5,0,5,4,0,1,5,0,1,5,0,5,4,0,5,4,0,5,0,5,0,5,0,1,5,4,2,1,5,0,5,0,5,4,0,5,4,0,1,5,0,5,4,2,1,5,0,1,5,0,5,4,0,5,4,0,5,4,0,5,4,2,3]","action_history":"[1,0,0,0,0,1,0,1,1,1,1,0,0,0,0,0,0,0,1,0,1,0,1,0,1,0,1,0,1,0,0,0,0,0,0,0,0,0,1,1,1,1,0,1,0,1,1,1,1,1,0,0,0,0,0,0,0,0,0,0,0,0,1]","door_history":"[0,1,1,1,1,0,1,0,0,0,0,1,1,1,1,1,1,1,0,1,0,1,0,1,0,1,0,1,0,1,1,1,1,1,1,1,1,1,0,0,0,0,1,0,1,0,0,0,0,0,1,1,1,1,1,1,1,1,1,1,1,1,0]","location_rts":"[1411,393,351,382,342,854,305,645,730,365,327,1147,407,447,454,483,427,563,378,859,396,818,292,494,484,612,709,588,356,542,357,285,321,254,397,630,606,343,795,282,484,314,651,369,384,533,118,235,274,368,597,328,176,984,156,1037,647,391,499,457,973,563,486]","trial_type":"two-door-navigation","trial_index":14,"time_elapsed":298312,"internal_node_id":"0.0-2.0-12.0"},{"group":"hexagon_tri","room_assignment":["green","purple","yellow","blue","red","grey"],"door_color_assignment":["black","white"],"door_generator_assignment":[1,0],"goal":5,"start":3,"action_noise":0.15,"location_history":"[3,2,1,3,4,0,5]","action_history":"[0,0,0,0,0,1]","door_history":"[1,1,1,1,1,0]","location_rts":"[1541,668,416,548,414,443]","trial_type":"two-door-navigation","trial_index":15,"time_elapsed":312299,"internal_node_id":"0.0-2.0-13.0"},{"group":"hexagon_tri","room_assignment":["green","purple","yellow","blue","red","grey"],"door_color_assignment":["black","white"],"door_generator_assignment":[1,0],"goal":4,"start":5,"action_noise":0.15,"location_history":"[5,0,5,4]","action_history":"[0,0,0]","door_history":"[1,1,1]","location_rts":"[4244,393,375]","trial_type":"two-door-navigation","trial_index":16,"time_elapsed":324012,"internal_node_id":"0.0-2.0-14.0"},{"group":"hexagon_tri","room_assignment":["green","purple","yellow","blue","red","grey"],"door_color_assignment":["black","white"],"door_generator_assignment":[1,0],"goal":0,"start":4,"action_noise":0.15,"location_history":"[4,0]","action_history":"[0]","door_history":"[1]","location_rts":"[2961]","trial_type":"two-door-navigation","trial_index":17,"time_elapsed":331562,"internal_node_id":"0.0-2.0-15.0"},{"group":"hexagon_tri","room_assignment":["green","purple","yellow","blue","red","grey"],"door_color_assignment":["black","white"],"door_generator_assignment":[1,0],"goal":3,"start":0,"action_noise":0.15,"location_history":"[0,1,5,0,5,4,0,5,4,0,1,3]","action_history":"[1,1,1,0,0,0,0,0,0,1,0]","door_history":"[0,0,0,1,1,1,1,1,1,0,1]","location_rts":"[1158,633,646,644,827,426,626,499,695,899,1059]","trial_type":"two-door-navigation","trial_index":18,"time_elapsed":354965,"internal_node_id":"0.0-2.0-16.0"},{"group":"hexagon_tri","room_assignment":["green","purple","yellow","blue","red","grey"],"door_color_assignment":["black","white"],"door_generator_assignment":[1,0],"goal":1,"start":3,"action_noise":0.15,"location_history":"[3,2,3,2,3,4,0,1]","action_history":"[0,1,0,1,0,0,0]","door_history":"[1,0,1,0,1,1,1]","location_rts":"[2611,658,717,879,573,388,392]","trial_type":"two-door-navigation","trial_index":19,"time_elapsed":372197,"internal_node_id":"0.0-2.0-17.0"},{"group":"hexagon_tri","room_assignment":["green","purple","yellow","blue","red","grey"],"door_color_assignment":["black","white"],"door_generator_assignment":[1,0],"goal":5,"start":1,"action_noise":0.15,"location_history":"[1,3,4,2,3,4,0,1,3,2,1,5]","action_history":"[0,1,1,1,1,0,1,0,0,0,1]","door_history":"[1,0,0,0,0,1,0,1,1,1,0]","location_rts":"[3887,815,439,401,530,459,360,981,414,5222,356]","trial_type":"two-door-navigation","trial_index":20,"time_elapsed":401415,"internal_node_id":"0.0-2.0-18.0"},{"group":"hexagon_tri","room_assignment":["green","purple","yellow","blue","red","grey"],"door_color_assignment":["black","white"],"door_generator_assignment":[1,0],"goal":2,"start":5,"action_noise":0.15,"location_history":"[5,4,0,1,5,4,2]","action_history":"[1,0,0,1,0,0]","door_history":"[0,1,1,0,1,1]","location_rts":"[1328,387,485,673,417,464]","trial_type":"two-door-navigation","trial_index":21,"time_elapsed":415115,"internal_node_id":"0.0-2.0-19.0"},{"group":"hexagon_tri","room_assignment":["green","purple","yellow","blue","red","grey"],"door_color_assignment":["black","white"],"door_generator_assignment":[1,0],"goal":4,"start":2,"action_noise":0.15,"location_history":"[2,1,3,2,1,3,4]","action_history":"[0,0,0,0,0,0]","door_history":"[1,1,1,1,1,1]","location_rts":"[1018,663,737,431,522,444]","trial_type":"two-door-navigation","trial_index":22,"time_elapsed":428896,"internal_node_id":"0.0-2.0-20.0"},{"group":"hexagon_tri","room_assignment":["green","purple","yellow","blue","red","grey"],"door_color_assignment":["black","white"],"door_generator_assignment":[1,0],"goal":1,"start":4,"action_noise":0.15,"location_history":"[4,2,1]","action_history":"[1,0]","door_history":"[0,1]","location_rts":"[2168,787]","trial_type":"two-door-navigation","trial_index":23,"time_elapsed":437505,"internal_node_id":"0.0-2.0-21.0"},{"group":"hexagon_tri","room_assignment":["green","purple","yellow","blue","red","grey"],"door_color_assignment":["black","white"],"door_generator_assignment":[1,0],"goal":3,"start":1,"action_noise":0.15,"location_history":"[1,3]","action_history":"[0]","door_history":"[1]","location_rts":"[3199]","trial_type":"two-door-navigation","trial_index":24,"time_elapsed":445282,"internal_node_id":"0.0-2.0-22.0"},{"group":"hexagon_tri","room_assignment":["green","purple","yellow","blue","red","grey"],"door_color_assignment":["black","white"],"door_generator_assignment":[1,0],"goal":2,"start":3,"action_noise":0.15,"location_history":"[3,4,2]","action_history":"[1,1]","door_history":"[0,0]","location_rts":"[4082,518]","trial_type":"two-door-navigation","trial_index":25,"time_elapsed":455551,"internal_node_id":"0.0-2.0-23.0"},{"group":"hexagon_tri","room_assignment":["green","purple","yellow","blue","red","grey"],"door_color_assignment":["black","white"],"door_generator_assignment":[1,0],"goal":0,"start":2,"action_noise":0.15,"location_history":"[2,1,3,2,1,3,4,0]","action_history":"[0,0,0,0,0,0,0]","door_history":"[1,1,1,1,1,1,1]","location_rts":"[2024,463,431,441,619,456,554]","trial_type":"two-door-navigation","trial_index":26,"time_elapsed":471567,"internal_node_id":"0.0-2.0-24.0"},{"group":"hexagon_tri","room_assignment":["green","purple","yellow","blue","red","grey"],"door_color_assignment":["black","white"],"door_generator_assignment":[1,0],"goal":5,"start":0,"action_noise":0.15,"location_history":"[0,1,3,2,3,2,3,4,0,1,5]","action_history":"[1,0,0,1,0,1,1,0,1,0]","door_history":"[0,1,1,0,1,0,0,1,0,1]","location_rts":"[1938,1492,768,453,1287,793,890,862,1005,661]","trial_type":"two-door-navigation","trial_index":27,"time_elapsed":495967,"internal_node_id":"0.0-2.0-25.0"},{"group":"hexagon_tri","room_assignment":["green","purple","yellow","blue","red","grey"],"door_color_assignment":["black","white"],"door_generator_assignment":[1,0],"goal":2,"start":5,"action_noise":0.15,"location_history":"[5,0,5,0,5,0,1,5,4,2]","action_history":"[1,0,1,0,1,1,0,0,1]","door_history":"[0,1,0,1,0,0,1,1,0]","location_rts":"[6479,746,813,817,695,455,450,474,960]","trial_type":"two-door-navigation","trial_index":28,"time_elapsed":521001,"internal_node_id":"0.0-2.0-26.0"},{"group":"hexagon_tri","room_assignment":["green","purple","yellow","blue","red","grey"],"door_color_assignment":["black","white"],"door_generator_assignment":[1,0],"goal":3,"start":2,"action_noise":0.15,"location_history":"[2,3]","action_history":"[1]","door_history":"[0]","location_rts":"[5495]","trial_type":"two-door-navigation","trial_index":29,"time_elapsed":531083,"internal_node_id":"0.0-2.0-27.0"},{"group":"hexagon_tri","room_assignment":["green","purple","yellow","blue","red","grey"],"door_color_assignment":["black","white"],"door_generator_assignment":[1,0],"goal":0,"start":3,"action_noise":0.15,"location_history":"[3,2,3,2,3,2,3,4,0]","action_history":"[0,1,0,1,0,1,1,0]","door_history":"[1,0,1,0,1,0,0,1]","location_rts":"[1520,977,843,772,735,666,464,744]","trial_type":"two-door-navigation","trial_index":30,"time_elapsed":549888,"internal_node_id":"0.0-2.0-28.0"},{"group":"hexagon_tri","room_assignment":["green","purple","yellow","blue","red","grey"],"door_color_assignment":["black","white"],"door_generator_assignment":[1,0],"goal":1,"start":0,"action_noise":0.15,"location_history":"[0,5,4,2,1]","action_history":"[0,1,1,0]","door_history":"[1,0,0,1]","location_rts":"[2383,970,473,800]","trial_type":"two-door-navigation","trial_index":31,"time_elapsed":562331,"internal_node_id":"0.0-2.0-29.0"},{"group":"hexagon_tri","room_assignment":["green","purple","yellow","blue","red","grey"],"door_color_assignment":["black","white"],"door_generator_assignment":[1,0],"goal":4,"start":1,"action_noise":0.15,"location_history":"[1,3,4]","action_history":"[0,1]","door_history":"[1,0]","location_rts":"[969,392]","trial_type":"two-door-navigation","trial_index":32,"time_elapsed":569355,"internal_node_id":"0.0-2.0-30.0"},{"group":"hexagon_tri","room_assignment":["green","purple","yellow","blue","red","grey"],"door_color_assignment":["black","white"],"door_generator_assignment":[1,0],"goal":5,"start":4,"action_noise":0.15,"location_history":"[4,0,5]","action_history":"[1,0]","door_history":"[0,1]","location_rts":"[5008,793]","trial_type":"two-door-navigation","trial_index":33,"time_elapsed":580806,"internal_node_id":"0.0-2.0-31.0"},{"group":"hexagon_tri","room_assignment":["green","purple","yellow","blue","red","grey"],"door_color_assignment":["black","white"],"door_generator_assignment":[1,0],"goal":0,"start":5,"action_noise":0.15,"location_history":"[5,0]","action_history":"[1]","door_history":"[0]","location_rts":"[3722]","trial_type":"two-door-navigation","trial_index":34,"time_elapsed":589106,"internal_node_id":"0.0-2.0-32.0"},{"group":"hexagon_tri","room_assignment":["green","purple","yellow","blue","red","grey"],"door_color_assignment":["black","white"],"door_generator_assignment":[1,0],"goal":3,"start":0,"action_noise":0.15,"location_history":"[0,5,0,5,4,2,3]","action_history":"[0,1,0,0,1,1]","door_history":"[1,0,1,1,0,0]","location_rts":"[1541,433,620,2694,1139,523]","trial_type":"two-door-navigation","trial_index":35,"time_elapsed":606025,"internal_node_id":"0.0-2.0-33.0"},{"group":"hexagon_tri","room_assignment":["green","purple","yellow","blue","red","grey"],"door_color_assignment":["black","white"],"door_generator_assignment":[1,0],"goal":1,"start":3,"action_noise":0.15,"location_history":"[3,4,0,1]","action_history":"[1,0,1]","door_history":"[0,1,0]","location_rts":"[2208,830,770]","trial_type":"two-door-navigation","trial_index":36,"time_elapsed":616553,"internal_node_id":"0.0-2.0-34.0"},{"group":"hexagon_tri","room_assignment":["green","purple","yellow","blue","red","grey"],"door_color_assignment":["black","white"],"door_generator_assignment":[1,0],"goal":2,"start":1,"action_noise":0.15,"location_history":"[1,3,4,2]","action_history":"[0,1,1]","door_history":"[1,0,0]","location_rts":"[2215,290,454]","trial_type":"two-door-navigation","trial_index":37,"time_elapsed":626212,"internal_node_id":"0.0-2.0-35.0"},{"group":"hexagon_tri","room_assignment":["green","purple","yellow","blue","red","grey"],"door_color_assignment":["black","white"],"door_generator_assignment":[1,0],"goal":4,"start":2,"action_noise":0.15,"location_history":"[2,1,5,0,5,0,1,3,2,1,3,4]","action_history":"[0,1,1,0,1,1,1,0,0,0,0]","door_history":"[1,0,0,1,0,0,0,1,1,1,1]","location_rts":"[2303,412,423,448,587,409,744,415,423,408,695]","trial_type":"two-door-navigation","trial_index":38,"time_elapsed":648811,"internal_node_id":"0.0-2.0-36.0"},{"group":"hexagon_tri","room_assignment":["green","purple","yellow","blue","red","grey"],"door_color_assignment":["black","white"],"door_generator_assignment":[1,0],"goal":5,"start":4,"action_noise":0.15,"location_history":"[4,2,3,2,3,4,0,5]","action_history":"[0,1,0,1,0,0,1]","door_history":"[1,0,1,0,1,1,0]","location_rts":"[3787,941,831,769,635,436,441]","trial_type":"two-door-navigation","trial_index":39,"time_elapsed":667678,"internal_node_id":"0.0-2.0-37.0"},{"group":"hexagon_tri","room_assignment":["green","purple","yellow","blue","red","grey"],"door_color_assignment":["black","white"],"door_generator_assignment":[1,0],"goal":1,"start":5,"action_noise":0.15,"location_history":"[5,4,0,1]","action_history":"[0,1,1]","door_history":"[1,0,0]","location_rts":"[867,365,375]","trial_type":"two-door-navigation","trial_index":40,"time_elapsed":676004,"internal_node_id":"0.0-2.0-38.0"},{"group":"hexagon_tri","room_assignment":["green","purple","yellow","blue","red","grey"],"door_color_assignment":["black","white"],"door_generator_assignment":[1,0],"goal":4,"start":1,"action_noise":0.15,"location_history":"[1,5,4]","action_history":"[1,0]","door_history":"[0,1]","location_rts":"[1039,395]","trial_type":"two-door-navigation","trial_index":41,"time_elapsed":683091,"internal_node_id":"0.0-2.0-39.0"},{"group":"hexagon_tri","room_assignment":["green","purple","yellow","blue","red","grey"],"door_color_assignment":["black","white"],"door_generator_assignment":[1,0],"goal":3,"start":4,"action_noise":0.15,"location_history":"[4,0,1,5,4,2,1,5,0,1,3]","action_history":"[0,1,1,0,1,0,1,1,0,0]","door_history":"[1,0,0,1,0,1,0,0,1,1]","location_rts":"[2396,403,524,424,388,487,459,840,526,422]","trial_type":"two-door-navigation","trial_index":42,"time_elapsed":704194,"internal_node_id":"0.0-2.0-40.0"},{"group":"hexagon_tri","room_assignment":["green","purple","yellow","blue","red","grey"],"door_color_assignment":["black","white"],"door_generator_assignment":[1,0],"goal":2,"start":3,"action_noise":0.15,"location_history":"[3,2]","action_history":"[1]","door_history":"[0]","location_rts":"[1827]","trial_type":"two-door-navigation","trial_index":43,"time_elapsed":710602,"internal_node_id":"0.0-2.0-41.0"},{"group":"hexagon_tri","room_assignment":["green","purple","yellow","blue","red","grey"],"door_color_assignment":["black","white"],"door_generator_assignment":[1,0],"goal":0,"start":2,"action_noise":0.15,"location_history":"[2,1,5,0]","action_history":"[0,1,1]","door_history":"[1,0,0]","location_rts":"[919,439,487]","trial_type":"two-door-navigation","trial_index":44,"time_elapsed":719180,"internal_node_id":"0.0-2.0-42.0"},{"group":"hexagon_tri","room_assignment":["green","purple","yellow","blue","red","grey"],"door_color_assignment":["black","white"],"door_generator_assignment":[1,0],"goal":5,"start":0,"action_noise":0.15,"location_history":"[0,1,3,4,2,1,3,4,2,3,2,3,4,0,1,5]","action_history":"[1,0,1,1,1,0,0,1,1,0,1,1,0,1,0]","door_history":"[0,1,0,0,0,1,1,0,0,1,0,0,1,0,1]","location_rts":"[2296,1321,398,447,421,348,425,675,228,674,393,411,412,1696,1006]","trial_type":"two-door-navigation","trial_index":45,"time_elapsed":749909,"internal_node_id":"0.0-2.0-43.0"},{"group":"hexagon_tri","room_assignment":["green","purple","yellow","blue","red","grey"],"door_color_assignment":["black","white"],"door_generator_assignment":[1,0],"goal":0,"start":5,"action_noise":0.15,"location_history":"[5,4,2,3,2,1,5,4,2,1,5,4,0]","action_history":"[0,1,1,0,0,1,0,1,0,1,0,0]","door_history":"[1,0,0,1,1,0,1,0,1,0,1,1]","location_rts":"[1176,419,471,1641,491,994,573,389,589,500,477,563]","trial_type":"two-door-navigation","trial_index":46,"time_elapsed":774597,"internal_node_id":"0.0-2.0-44.0"},{"group":"hexagon_tri","room_assignment":["green","purple","yellow","blue","red","grey"],"door_color_assignment":["black","white"],"door_generator_assignment":[1,0],"goal":2,"start":0,"action_noise":0.15,"location_history":"[0,5,0,5,0,5,0,5,4,2]","action_history":"[0,1,0,1,0,1,0,1,0]","door_history":"[1,0,1,0,1,0,1,0,1]","location_rts":"[1193,231,306,360,1652,395,284,345,370]","trial_type":"two-door-navigation","trial_index":47,"time_elapsed":792891,"internal_node_id":"0.0-2.0-45.0"},{"group":"hexagon_tri","room_assignment":["green","purple","yellow","blue","red","grey"],"door_color_assignment":["black","white"],"door_generator_assignment":[1,0],"goal":4,"start":2,"action_noise":0.15,"location_history":"[2,1,5,4]","action_history":"[0,1,0]","door_history":"[1,0,1]","location_rts":"[1551,463,396]","trial_type":"two-door-navigation","trial_index":48,"time_elapsed":802032,"internal_node_id":"0.0-2.0-46.0"},{"group":"hexagon_tri","room_assignment":["green","purple","yellow","blue","red","grey"],"door_color_assignment":["black","white"],"door_generator_assignment":[1,0],"goal":1,"start":4,"action_noise":0.15,"location_history":"[4,2,1]","action_history":"[1,0]","door_history":"[0,1]","location_rts":"[5250,418]","trial_type":"two-door-navigation","trial_index":49,"time_elapsed":813351,"internal_node_id":"0.0-2.0-47.0"},{"group":"hexagon_tri","room_assignment":["green","purple","yellow","blue","red","grey"],"door_color_assignment":["black","white"],"door_generator_assignment":[1,0],"goal":5,"start":1,"action_noise":0.15,"location_history":"[1,5]","action_history":"[0]","door_history":"[1]","location_rts":"[1621]","trial_type":"two-door-navigation","trial_index":50,"time_elapsed":819556,"internal_node_id":"0.0-2.0-48.0"},{"group":"hexagon_tri","room_assignment":["green","purple","yellow","blue","red","grey"],"door_color_assignment":["black","white"],"door_generator_assignment":[1,0],"goal":3,"start":5,"action_noise":0.15,"location_history":"[5,4,2,1,3]","action_history":"[0,1,0,0]","door_history":"[1,0,1,1]","location_rts":"[984,168,460,706]","trial_type":"two-door-navigation","trial_index":51,"time_elapsed":829666,"internal_node_id":"0.0-2.0-49.0"},{"view_history":"[{\"page_index\":0,\"viewing_time\":17262}]","rt":17263,"trial_type":"instructions","trial_index":52,"time_elapsed":847933,"internal_node_id":"0.0-3.0"},{"view_history":"[{\"page_index\":0,\"viewing_time\":2376},{\"page_index\":1,\"viewing_time\":15818}]","rt":18194,"trial_type":"instructions","trial_index":53,"time_elapsed":867129,"internal_node_id":"0.0-4.0"},{"group":"hexagon_tri","fractal_assignment":["../images/pnk_blu.png","../images/cyn_red.png","../images/blu_wht.png","../images/ylw_slt.png","../images/org_blu.png","../images/gry_blk.png"],"mutagen_generator_assignment":[0,1],"goal":3,"start":5,"action_noise":0.15,"location_history":"[5,0,1,5,0,1,3]","action_history":"[1,1,1,1,0,0]","mutagen_history":"[1,1,1,1,0,0]","location_rts":"[3551,865,819,831,932,707]","trial_type":"fractal-mutation","trial_index":54,"time_elapsed":884828,"internal_node_id":"0.0-5.0-0.0"},{"group":"hexagon_tri","fractal_assignment":["../images/pnk_blu.png","../images/cyn_red.png","../images/blu_wht.png","../images/ylw_slt.png","../images/org_blu.png","../images/gry_blk.png"],"mutagen_generator_assignment":[0,1],"goal":1,"start":3,"action_noise":0.15,"location_history":"[3,2,1]","action_history":"[0,0]","mutagen_history":"[0,0]","location_rts":"[1728,576]","trial_type":"fractal-mutation","trial_index":55,"time_elapsed":892785,"internal_node_id":"0.0-5.0-1.0"},{"group":"hexagon_tri","fractal_assignment":["../images/pnk_blu.png","../images/cyn_red.png","../images/blu_wht.png","../images/ylw_slt.png","../images/org_blu.png","../images/gry_blk.png"],"mutagen_generator_assignment":[0,1],"goal":0,"start":1,"action_noise":0.15,"location_history":"[1,5,0]","action_history":"[1,1]","mutagen_history":"[1,1]","location_rts":"[1490,337]","trial_type":"fractal-mutation","trial_index":56,"time_elapsed":900278,"internal_node_id":"0.0-5.0-2.0"},{"group":"hexagon_tri","fractal_assignment":["../images/pnk_blu.png","../images/cyn_red.png","../images/blu_wht.png","../images/ylw_slt.png","../images/org_blu.png","../images/gry_blk.png"],"mutagen_generator_assignment":[0,1],"goal":3,"start":0,"action_noise":0.15,"location_history":"[0,5,4,0,1,3]","action_history":"[0,1,0,0,0]","mutagen_history":"[0,1,0,0,0]","location_rts":"[1381,465,340,567,373]","trial_type":"fractal-mutation","trial_index":57,"time_elapsed":912328,"internal_node_id":"0.0-5.0-3.0"},{"group":"hexagon_tri","fractal_assignment":["../images/pnk_blu.png","../images/cyn_red.png","../images/blu_wht.png","../images/ylw_slt.png","../images/org_blu.png","../images/gry_blk.png"],"mutagen_generator_assignment":[0,1],"goal":4,"start":3,"action_noise":0.15,"location_history":"[3,4]","action_history":"[0]","mutagen_history":"[0]","location_rts":"[2142]","trial_type":"fractal-mutation","trial_index":58,"time_elapsed":919048,"internal_node_id":"0.0-5.0-4.0"},{"group":"hexagon_tri","fractal_assignment":["../images/pnk_blu.png","../images/cyn_red.png","../images/blu_wht.png","../images/ylw_slt.png","../images/org_blu.png","../images/gry_blk.png"],"mutagen_generator_assignment":[0,1],"goal":2,"start":4,"action_noise":0.15,"location_history":"[4,2]","action_history":"[1]","mutagen_history":"[1]","location_rts":"[2393]","trial_type":"fractal-mutation","trial_index":59,"time_elapsed":926036,"internal_node_id":"0.0-5.0-5.0"},{"group":"hexagon_tri","fractal_assignment":["../images/pnk_blu.png","../images/cyn_red.png","../images/blu_wht.png","../images/ylw_slt.png","../images/org_blu.png","../images/gry_blk.png"],"mutagen_generator_assignment":[0,1],"goal":1,"start":2,"action_noise":0.15,"location_history":"[2,1]","action_history":"[0]","mutagen_history":"[0]","location_rts":"[1753]","trial_type":"fractal-mutation","trial_index":60,"time_elapsed":932380,"internal_node_id":"0.0-5.0-6.0"},{"group":"hexagon_tri","fractal_assignment":["../images/pnk_blu.png","../images/cyn_red.png","../images/blu_wht.png","../images/ylw_slt.png","../images/org_blu.png","../images/gry_blk.png"],"mutagen_generator_assignment":[0,1],"goal":5,"start":1,"action_noise":0.15,"location_history":"[1,3,4,2,3,4,0,5]","action_history":"[0,1,1,1,1,0,1]","mutagen_history":"[0,1,1,1,1,0,1]","location_rts":"[640,538,401,414,357,664,418]","trial_type":"fractal-mutation","trial_index":61,"time_elapsed":946891,"internal_node_id":"0.0-5.0-7.0"},{"group":"hexagon_tri","fractal_assignment":["../images/pnk_blu.png","../images/cyn_red.png","../images/blu_wht.png","../images/ylw_slt.png","../images/org_blu.png","../images/gry_blk.png"],"mutagen_generator_assignment":[0,1],"goal":4,"start":5,"action_noise":0.15,"location_history":"[5,4]","action_history":"[0]","mutagen_history":"[0]","location_rts":"[958]","trial_type":"fractal-mutation","trial_index":62,"time_elapsed":952439,"internal_node_id":"0.0-5.0-8.0"},{"group":"hexagon_tri","fractal_assignment":["../images/pnk_blu.png","../images/cyn_red.png","../images/blu_wht.png","../images/ylw_slt.png","../images/org_blu.png","../images/gry_blk.png"],"mutagen_generator_assignment":[0,1],"goal":2,"start":4,"action_noise":0.15,"location_history":"[4,2]","action_history":"[1]","mutagen_history":"[1]","location_rts":"[1015]","trial_type":"fractal-mutation","trial_index":63,"time_elapsed":958046,"internal_node_id":"0.0-5.0-9.0"},{"group":"hexagon_tri","fractal_assignment":["../images/pnk_blu.png","../images/cyn_red.png","../images/blu_wht.png","../images/ylw_slt.png","../images/org_blu.png","../images/gry_blk.png"],"mutagen_generator_assignment":[0,1],"goal":0,"start":2,"action_noise":0.15,"location_history":"[2,3,4,2,3,4,2,3,2,1,3,2,1,3,2,1,5,0]","action_history":"[1,1,1,1,1,1,1,0,0,0,0,0,0,0,0,1,1]","mutagen_history":"[1,1,1,1,1,1,1,0,0,0,0,0,0,0,0,1,1]","location_rts":"[1093,382,406,514,437,413,570,483,478,415,444,354,373,470,370,534,403]","trial_type":"fractal-mutation","trial_index":64,"time_elapsed":988035,"internal_node_id":"0.0-5.0-10.0"},{"group":"hexagon_tri","fractal_assignment":["../images/pnk_blu.png","../images/cyn_red.png","../images/blu_wht.png","../images/ylw_slt.png","../images/org_blu.png","../images/gry_blk.png"],"mutagen_generator_assignment":[0,1],"goal":1,"start":0,"action_noise":0.15,"location_history":"[0,5,0,5,4,2,3,2,1]","action_history":"[0,1,0,0,0,0,0,0]","mutagen_history":"[0,1,0,0,0,0,0,0]","location_rts":"[1469,633,371,378,330,363,380,386]","trial_type":"fractal-mutation","trial_index":65,"time_elapsed":1004490,"internal_node_id":"0.0-5.0-11.0"},{"group":"hexagon_tri","fractal_assignment":["../images/pnk_blu.png","../images/cyn_red.png","../images/blu_wht.png","../images/ylw_slt.png","../images/org_blu.png","../images/gry_blk.png"],"mutagen_generator_assignment":[0,1],"goal":3,"start":1,"action_noise":0.15,"location_history":"[1,5,0,1,5,0,5,0,1,3]","action_history":"[1,1,1,1,1,1,1,1,0]","mutagen_history":"[1,1,1,1,1,1,1,1,0]","location_rts":"[895,384,349,343,560,406,373,368,377]","trial_type":"fractal-mutation","trial_index":66,"time_elapsed":1021800,"internal_node_id":"0.0-5.0-12.0"},{"group":"hexagon_tri","fractal_assignment":["../images/pnk_blu.png","../images/cyn_red.png","../images/blu_wht.png","../images/ylw_slt.png","../images/org_blu.png","../images/gry_blk.png"],"mutagen_generator_assignment":[0,1],"goal":5,"start":3,"action_noise":0.15,"location_history":"[3,4,2,3,4,2,3,4,2,3,4,2,3,2,1,3,2,1,5]","action_history":"[1,1,1,1,1,1,1,1,1,1,1,1,0,0,0,0,0,1]","mutagen_history":"[1,1,1,1,1,1,1,1,1,1,1,1,0,0,0,0,0,1]","location_rts":"[778,366,382,371,367,402,356,615,622,372,378,309,175,326,602,392,412,411]","trial_type":"fractal-mutation","trial_index":67,"time_elapsed":1052382,"internal_node_id":"0.0-5.0-13.0"},{"group":"hexagon_tri","fractal_assignment":["../images/pnk_blu.png","../images/cyn_red.png","../images/blu_wht.png","../images/ylw_slt.png","../images/org_blu.png","../images/gry_blk.png"],"mutagen_generator_assignment":[0,1],"goal":4,"start":5,"action_noise":0.15,"location_history":"[5,4]","action_history":"[0]","mutagen_history":"[0]","location_rts":"[1866]","trial_type":"fractal-mutation","trial_index":68,"time_elapsed":1058827,"internal_node_id":"0.0-5.0-14.0"},{"group":"hexagon_tri","fractal_assignment":["../images/pnk_blu.png","../images/cyn_red.png","../images/blu_wht.png","../images/ylw_slt.png","../images/org_blu.png","../images/gry_blk.png"],"mutagen_generator_assignment":[0,1],"goal":0,"start":4,"action_noise":0.15,"location_history":"[4,2,3,4,2,3,2,3,2,1,3,2,3,2,3,2,3,2,3,2,3,2,1,5,0]","action_history":"[1,1,1,1,1,1,1,0,0,0,0,0,1,0,1,1,0,1,0,1,1,0,1,1]","mutagen_history":"[1,1,1,1,1,1,1,0,0,0,0,0,1,0,1,1,0,1,0,1,1,0,1,1]","location_rts":"[1044,512,438,387,636,384,337,307,446,392,382,505,290,473,264,349,258,320,342,698,356,329,760,309]","trial_type":"fractal-mutation","trial_index":69,"time_elapsed":1098806,"internal_node_id":"0.0-5.0-15.0"},{"group":"hexagon_tri","fractal_assignment":["../images/pnk_blu.png","../images/cyn_red.png","../images/blu_wht.png","../images/ylw_slt.png","../images/org_blu.png","../images/gry_blk.png"],"mutagen_generator_assignment":[0,1],"goal":3,"start":0,"action_noise":0.15,"location_history":"[0,5,0,1,5,4,0,5,0,5,0,1,5,0,1,3]","action_history":"[0,1,1,1,1,1,0,0,0,1,1,1,1,0,1]","mutagen_history":"[0,1,1,1,1,1,0,0,0,1,1,1,1,0,1]","location_rts":"[718,550,453,355,327,347,574,327,337,230,219,305,346,282,284]","trial_type":"fractal-mutation","trial_index":70,"time_elapsed":1124220,"internal_node_id":"0.0-5.0-16.0"},{"group":"hexagon_tri","fractal_assignment":["../images/pnk_blu.png","../images/cyn_red.png","../images/blu_wht.png","../images/ylw_slt.png","../images/org_blu.png","../images/gry_blk.png"],"mutagen_generator_assignment":[0,1],"goal":1,"start":3,"action_noise":0.15,"location_history":"[3,2,1]","action_history":"[0,0]","mutagen_history":"[0,0]","location_rts":"[1742,280]","trial_type":"fractal-mutation","trial_index":71,"time_elapsed":1131890,"internal_node_id":"0.0-5.0-17.0"},{"group":"hexagon_tri","fractal_assignment":["../images/pnk_blu.png","../images/cyn_red.png","../images/blu_wht.png","../images/ylw_slt.png","../images/org_blu.png","../images/gry_blk.png"],"mutagen_generator_assignment":[0,1],"goal":5,"start":1,"action_noise":0.15,"location_history":"[1,5]","action_history":"[1]","mutagen_history":"[1]","location_rts":"[1324]","trial_type":"fractal-mutation","trial_index":72,"time_elapsed":1137798,"internal_node_id":"0.0-5.0-18.0"},{"group":"hexagon_tri","fractal_assignment":["../images/pnk_blu.png","../images/cyn_red.png","../images/blu_wht.png","../images/ylw_slt.png","../images/org_blu.png","../images/gry_blk.png"],"mutagen_generator_assignment":[0,1],"goal":2,"start":5,"action_noise":0.15,"location_history":"[5,0,1,5,0,5,0,1,5,0,1,3,4,0,5,4,0,5,4,0,5,0,1,5,0,5,0,1,5,4,2]","action_history":"[1,1,1,1,1,1,1,1,1,1,1,1,1,0,0,0,0,0,0,0,1,1,1,1,0,1,1,1,0,1]","mutagen_history":"[1,1,1,1,1,1,1,1,1,1,1,1,1,0,0,0,0,0,0,0,1,1,1,1,0,1,1,1,0,1]","location_rts":"[1159,371,401,353,1206,332,420,314,264,130,297,219,320,356,335,341,465,369,661,419,297,417,352,336,367,308,253,327,414,388]","trial_type":"fractal-mutation","trial_index":73,"time_elapsed":1185968,"internal_node_id":"0.0-5.0-19.0"},{"group":"hexagon_tri","fractal_assignment":["../images/pnk_blu.png","../images/cyn_red.png","../images/blu_wht.png","../images/ylw_slt.png","../images/org_blu.png","../images/gry_blk.png"],"mutagen_generator_assignment":[0,1],"goal":4,"start":2,"action_noise":0.15,"location_history":"[2,1,3,4]","action_history":"[0,0,1]","mutagen_history":"[0,0,1]","location_rts":"[1676,543,462]","trial_type":"fractal-mutation","trial_index":74,"time_elapsed":1195403,"internal_node_id":"0.0-5.0-20.0"},{"group":"hexagon_tri","fractal_assignment":["../images/pnk_blu.png","../images/cyn_red.png","../images/blu_wht.png","../images/ylw_slt.png","../images/org_blu.png","../images/gry_blk.png"],"mutagen_generator_assignment":[0,1],"goal":1,"start":4,"action_noise":0.15,"location_history":"[4,2,3,4,0,1]","action_history":"[0,1,1,0,1]","mutagen_history":"[0,1,1,0,1]","location_rts":"[1212,404,324,394,435]","trial_type":"fractal-mutation","trial_index":75,"time_elapsed":1206928,"internal_node_id":"0.0-5.0-21.0"},{"group":"hexagon_tri","fractal_assignment":["../images/pnk_blu.png","../images/cyn_red.png","../images/blu_wht.png","../images/ylw_slt.png","../images/org_blu.png","../images/gry_blk.png"],"mutagen_generator_assignment":[0,1],"goal":3,"start":1,"action_noise":0.15,"location_history":"[1,5,4,2,1,3]","action_history":"[1,0,0,0,0]","mutagen_history":"[1,0,0,0,0]","location_rts":"[1163,425,358,381,396]","trial_type":"fractal-mutation","trial_index":76,"time_elapsed":1218509,"internal_node_id":"0.0-5.0-22.0"},{"group":"hexagon_tri","fractal_assignment":["../images/pnk_blu.png","../images/cyn_red.png","../images/blu_wht.png","../images/ylw_slt.png","../images/org_blu.png","../images/gry_blk.png"],"mutagen_generator_assignment":[0,1],"goal":2,"start":3,"action_noise":0.15,"location_history":"[3,2]","action_history":"[1]","mutagen_history":"[1]","location_rts":"[812]","trial_type":"fractal-mutation","trial_index":77,"time_elapsed":1223913,"internal_node_id":"0.0-5.0-23.0"},{"group":"hexagon_tri","fractal_assignment":["../images/pnk_blu.png","../images/cyn_red.png","../images/blu_wht.png","../images/ylw_slt.png","../images/org_blu.png","../images/gry_blk.png"],"mutagen_generator_assignment":[0,1],"goal":0,"start":2,"action_noise":0.15,"location_history":"[2,1,5,0]","action_history":"[1,1,1]","mutagen_history":"[1,1,1]","location_rts":"[816,266,279]","trial_type":"fractal-mutation","trial_index":78,"time_elapsed":1232027,"internal_node_id":"0.0-5.0-24.0"},{"group":"hexagon_tri","fractal_assignment":["../images/pnk_blu.png","../images/cyn_red.png","../images/blu_wht.png","../images/ylw_slt.png","../images/org_blu.png","../images/gry_blk.png"],"mutagen_generator_assignment":[0,1],"goal":5,"start":0,"action_noise":0.15,"location_history":"[0,5]","action_history":"[0]","mutagen_history":"[0]","location_rts":"[968]","trial_type":"fractal-mutation","trial_index":79,"time_elapsed":1237587,"internal_node_id":"0.0-5.0-25.0"},{"group":"hexagon_tri","fractal_assignment":["../images/pnk_blu.png","../images/cyn_red.png","../images/blu_wht.png","../images/ylw_slt.png","../images/org_blu.png","../images/gry_blk.png"],"mutagen_generator_assignment":[0,1],"goal":2,"start":5,"action_noise":0.15,"location_history":"[5,4,0,5,4,0,5,4,2]","action_history":"[0,0,0,0,0,0,0,0]","mutagen_history":"[0,0,0,0,0,0,0,0]","location_rts":"[1302,340,429,358,399,535,339,393]","trial_type":"fractal-mutation","trial_index":80,"time_elapsed":1253817,"internal_node_id":"0.0-5.0-26.0"},{"group":"hexagon_tri","fractal_assignment":["../images/pnk_blu.png","../images/cyn_red.png","../images/blu_wht.png","../images/ylw_slt.png","../images/org_blu.png","../images/gry_blk.png"],"mutagen_generator_assignment":[0,1],"goal":3,"start":2,"action_noise":0.15,"location_history":"[2,1,3]","action_history":"[0,0]","mutagen_history":"[0,0]","location_rts":"[1455,371]","trial_type":"fractal-mutation","trial_index":81,"time_elapsed":1261291,"internal_node_id":"0.0-5.0-27.0"},{"group":"hexagon_tri","fractal_assignment":["../images/pnk_blu.png","../images/cyn_red.png","../images/blu_wht.png","../images/ylw_slt.png","../images/org_blu.png","../images/gry_blk.png"],"mutagen_generator_assignment":[0,1],"goal":0,"start":3,"action_noise":0.15,"location_history":"[3,4,2,3,4,0]","action_history":"[1,1,1,1,1]","mutagen_history":"[1,1,1,1,1]","location_rts":"[1261,398,761,517,361]","trial_type":"fractal-mutation","trial_index":82,"time_elapsed":1273503,"internal_node_id":"0.0-5.0-28.0"},{"group":"hexagon_tri","fractal_assignment":["../images/pnk_blu.png","../images/cyn_red.png","../images/blu_wht.png","../images/ylw_slt.png","../images/org_blu.png","../images/gry_blk.png"],"mutagen_generator_assignment":[0,1],"goal":1,"start":0,"action_noise":0.15,"location_history":"[0,5,4,0,5,0,1]","action_history":"[0,0,0,1,1,1]","mutagen_history":"[0,0,0,1,1,1]","location_rts":"[3005,384,341,314,398,388]","trial_type":"fractal-mutation","trial_index":83,"time_elapsed":1288328,"internal_node_id":"0.0-5.0-29.0"},{"group":"hexagon_tri","fractal_assignment":["../images/pnk_blu.png","../images/cyn_red.png","../images/blu_wht.png","../images/ylw_slt.png","../images/org_blu.png","../images/gry_blk.png"],"mutagen_generator_assignment":[0,1],"goal":4,"start":1,"action_noise":0.15,"location_history":"[1,3,4]","action_history":"[0,1]","mutagen_history":"[0,1]","location_rts":"[1955,280]","trial_type":"fractal-mutation","trial_index":84,"time_elapsed":1296239,"internal_node_id":"0.0-5.0-30.0"},{"group":"hexagon_tri","fractal_assignment":["../images/pnk_blu.png","../images/cyn_red.png","../images/blu_wht.png","../images/ylw_slt.png","../images/org_blu.png","../images/gry_blk.png"],"mutagen_generator_assignment":[0,1],"goal":5,"start":4,"action_noise":0.15,"location_history":"[4,2,3,4,0,1,5]","action_history":"[1,0,1,0,1,1]","mutagen_history":"[1,0,1,0,1,1]","location_rts":"[1139,449,302,387,336,244]","trial_type":"fractal-mutation","trial_index":85,"time_elapsed":1309100,"internal_node_id":"0.0-5.0-31.0"},{"group":"hexagon_tri","fractal_assignment":["../images/pnk_blu.png","../images/cyn_red.png","../images/blu_wht.png","../images/ylw_slt.png","../images/org_blu.png","../images/gry_blk.png"],"mutagen_generator_assignment":[0,1],"goal":0,"start":5,"action_noise":0.15,"location_history":"[5,0]","action_history":"[1]","mutagen_history":"[1]","location_rts":"[953]","trial_type":"fractal-mutation","trial_index":86,"time_elapsed":1314650,"internal_node_id":"0.0-5.0-32.0"},{"group":"hexagon_tri","fractal_assignment":["../images/pnk_blu.png","../images/cyn_red.png","../images/blu_wht.png","../images/ylw_slt.png","../images/org_blu.png","../images/gry_blk.png"],"mutagen_generator_assignment":[0,1],"goal":3,"start":0,"action_noise":0.15,"location_history":"[0,1,3]","action_history":"[1,0]","mutagen_history":"[1,0]","location_rts":"[587,268]","trial_type":"fractal-mutation","trial_index":87,"time_elapsed":1321168,"internal_node_id":"0.0-5.0-33.0"},{"group":"hexagon_tri","fractal_assignment":["../images/pnk_blu.png","../images/cyn_red.png","../images/blu_wht.png","../images/ylw_slt.png","../images/org_blu.png","../images/gry_blk.png"],"mutagen_generator_assignment":[0,1],"goal":1,"start":3,"action_noise":0.15,"location_history":"[3,2,3,2,3,2,1]","action_history":"[0,0,0,0,0,0]","mutagen_history":"[0,0,0,0,0,0]","location_rts":"[1340,480,325,342,110,137]","trial_type":"fractal-mutation","trial_index":88,"time_elapsed":1333872,"internal_node_id":"0.0-5.0-34.0"},{"group":"hexagon_tri","fractal_assignment":["../images/pnk_blu.png","../images/cyn_red.png","../images/blu_wht.png","../images/ylw_slt.png","../images/org_blu.png","../images/gry_blk.png"],"mutagen_generator_assignment":[0,1],"goal":2,"start":1,"action_noise":0.15,"location_history":"[1,5,0,1,5,0,5,4,2]","action_history":"[1,1,1,1,1,0,0,0]","mutagen_history":"[1,1,1,1,1,0,0,0]","location_rts":"[1496,395,631,370,159,1191,333,374]","trial_type":"fractal-mutation","trial_index":89,"time_elapsed":1350978,"internal_node_id":"0.0-5.0-35.0"},{"group":"hexagon_tri","fractal_assignment":["../images/pnk_blu.png","../images/cyn_red.png","../images/blu_wht.png","../images/ylw_slt.png","../images/org_blu.png","../images/gry_blk.png"],"mutagen_generator_assignment":[0,1],"goal":4,"start":2,"action_noise":0.15,"location_history":"[2,3,2,1,5,4]","action_history":"[1,0,0,1,0]","mutagen_history":"[1,0,0,1,0]","location_rts":"[1159,309,317,326,374]","trial_type":"fractal-mutation","trial_index":90,"time_elapsed":1362383,"internal_node_id":"0.0-5.0-36.0"},{"group":"hexagon_tri","fractal_assignment":["../images/pnk_blu.png","../images/cyn_red.png","../images/blu_wht.png","../images/ylw_slt.png","../images/org_blu.png","../images/gry_blk.png"],"mutagen_generator_assignment":[0,1],"goal":5,"start":4,"action_noise":0.15,"location_history":"[4,2,1,5]","action_history":"[1,1,1]","mutagen_history":"[1,1,1]","location_rts":"[953,395,345]","trial_type":"fractal-mutation","trial_index":91,"time_elapsed":1370811,"internal_node_id":"0.0-5.0-37.0"},{"group":"hexagon_tri","fractal_assignment":["../images/pnk_blu.png","../images/cyn_red.png","../images/blu_wht.png","../images/ylw_slt.png","../images/org_blu.png","../images/gry_blk.png"],"mutagen_generator_assignment":[0,1],"goal":1,"start":5,"action_noise":0.15,"location_history":"[5,0,1]","action_history":"[1,1]","mutagen_history":"[1,1]","location_rts":"[753,348]","trial_type":"fractal-mutation","trial_index":92,"time_elapsed":1377590,"internal_node_id":"0.0-5.0-38.0"},{"group":"hexagon_tri","fractal_assignment":["../images/pnk_blu.png","../images/cyn_red.png","../images/blu_wht.png","../images/ylw_slt.png","../images/org_blu.png","../images/gry_blk.png"],"mutagen_generator_assignment":[0,1],"goal":4,"start":1,"action_noise":0.15,"location_history":"[1,5,0,5,0,5,0,5,4]","action_history":"[0,1,0,1,0,1,1,0]","mutagen_history":"[0,1,0,1,0,1,1,0]","location_rts":"[1240,762,424,337,494,349,202,348]","trial_type":"fractal-mutation","trial_index":93,"time_elapsed":1393917,"internal_node_id":"0.0-5.0-39.0"},{"group":"hexagon_tri","fractal_assignment":["../images/pnk_blu.png","../images/cyn_red.png","../images/blu_wht.png","../images/ylw_slt.png","../images/org_blu.png","../images/gry_blk.png"],"mutagen_generator_assignment":[0,1],"goal":3,"start":4,"action_noise":0.15,"location_history":"[4,2,3]","action_history":"[1,1]","mutagen_history":"[1,1]","location_rts":"[866,438]","trial_type":"fractal-mutation","trial_index":94,"time_elapsed":1400889,"internal_node_id":"0.0-5.0-40.0"},{"group":"hexagon_tri","fractal_assignment":["../images/pnk_blu.png","../images/cyn_red.png","../images/blu_wht.png","../images/ylw_slt.png","../images/org_blu.png","../images/gry_blk.png"],"mutagen_generator_assignment":[0,1],"goal":2,"start":3,"action_noise":0.15,"location_history":"[3,4,0,5,0,1,5,4,2]","action_history":"[1,0,0,1,1,1,0,0]","mutagen_history":"[1,0,0,1,1,1,0,0]","location_rts":"[1093,456,413,530,333,345,334,366]","trial_type":"fractal-mutation","trial_index":95,"time_elapsed":1416915,"internal_node_id":"0.0-5.0-41.0"},{"group":"hexagon_tri","fractal_assignment":["../images/pnk_blu.png","../images/cyn_red.png","../images/blu_wht.png","../images/ylw_slt.png","../images/org_blu.png","../images/gry_blk.png"],"mutagen_generator_assignment":[0,1],"goal":0,"start":2,"action_noise":0.15,"location_history":"[2,3,4,0]","action_history":"[1,1,0]","mutagen_history":"[1,1,0]","location_rts":"[759,345,572]","trial_type":"fractal-mutation","trial_index":96,"time_elapsed":1425349,"internal_node_id":"0.0-5.0-42.0"},{"group":"hexagon_tri","fractal_assignment":["../images/pnk_blu.png","../images/cyn_red.png","../images/blu_wht.png","../images/ylw_slt.png","../images/org_blu.png","../images/gry_blk.png"],"mutagen_generator_assignment":[0,1],"goal":5,"start":0,"action_noise":0.15,"location_history":"[0,5]","action_history":"[1]","mutagen_history":"[1]","location_rts":"[1033]","trial_type":"fractal-mutation","trial_index":97,"time_elapsed":1430959,"internal_node_id":"0.0-5.0-43.0"},{"group":"hexagon_tri","fractal_assignment":["../images/pnk_blu.png","../images/cyn_red.png","../images/blu_wht.png","../images/ylw_slt.png","../images/org_blu.png","../images/gry_blk.png"],"mutagen_generator_assignment":[0,1],"goal":0,"start":5,"action_noise":0.15,"location_history":"[5,0]","action_history":"[1]","mutagen_history":"[1]","location_rts":"[958]","trial_type":"fractal-mutation","trial_index":98,"time_elapsed":1436508,"internal_node_id":"0.0-5.0-44.0"},{"group":"hexagon_tri","fractal_assignment":["../images/pnk_blu.png","../images/cyn_red.png","../images/blu_wht.png","../images/ylw_slt.png","../images/org_blu.png","../images/gry_blk.png"],"mutagen_generator_assignment":[0,1],"goal":2,"start":0,"action_noise":0.15,"location_history":"[0,5,4,2]","action_history":"[0,1,1]","mutagen_history":"[0,1,1]","location_rts":"[869,361,363]","trial_type":"fractal-mutation","trial_index":99,"time_elapsed":1444836,"internal_node_id":"0.0-5.0-45.0"},{"group":"hexagon_tri","fractal_assignment":["../images/pnk_blu.png","../images/cyn_red.png","../images/blu_wht.png","../images/ylw_slt.png","../images/org_blu.png","../images/gry_blk.png"],"mutagen_generator_assignment":[0,1],"goal":4,"start":2,"action_noise":0.15,"location_history":"[2,1,5,4]","action_history":"[0,1,1]","mutagen_history":"[0,1,1]","location_rts":"[1603,1059,601]","trial_type":"fractal-mutation","trial_index":100,"time_elapsed":1454842,"internal_node_id":"0.0-5.0-46.0"},{"group":"hexagon_tri","fractal_assignment":["../images/pnk_blu.png","../images/cyn_red.png","../images/blu_wht.png","../images/ylw_slt.png","../images/org_blu.png","../images/gry_blk.png"],"mutagen_generator_assignment":[0,1],"goal":1,"start":4,"action_noise":0.15,"location_history":"[4,2,1]","action_history":"[1,0]","mutagen_history":"[1,0]","location_rts":"[743,635]","trial_type":"fractal-mutation","trial_index":101,"time_elapsed":1461897,"internal_node_id":"0.0-5.0-47.0"},{"group":"hexagon_tri","fractal_assignment":["../images/pnk_blu.png","../images/cyn_red.png","../images/blu_wht.png","../images/ylw_slt.png","../images/org_blu.png","../images/gry_blk.png"],"mutagen_generator_assignment":[0,1],"goal":5,"start":1,"action_noise":0.15,"location_history":"[1,5]","action_history":"[1]","mutagen_history":"[1]","location_rts":"[1429]","trial_type":"fractal-mutation","trial_index":102,"time_elapsed":1467914,"internal_node_id":"0.0-5.0-48.0"},{"group":"hexagon_tri","fractal_assignment":["../images/pnk_blu.png","../images/cyn_red.png","../images/blu_wht.png","../images/ylw_slt.png","../images/org_blu.png","../images/gry_blk.png"],"mutagen_generator_assignment":[0,1],"goal":3,"start":5,"action_noise":0.15,"location_history":"[5,0,1,5,4,2,3]","action_history":"[1,1,1,0,1,1]","mutagen_history":"[1,1,1,0,1,1]","location_rts":"[1209,493,684,593,335,451]","trial_type":"fractal-mutation","trial_index":103,"time_elapsed":1481687,"internal_node_id":"0.0-5.0-49.0"},{"view_history":"[{\"page_index\":0,\"viewing_time\":8160}]","rt":8161,"trial_type":"instructions","trial_index":104,"time_elapsed":1490852,"internal_node_id":"0.0-6.0"},{"rt":1373,"responses":"{\"Q0\":\"\"}","trial_type":"survey-text","trial_index":105,"time_elapsed":1493233,"internal_node_id":"0.0-7.0"}]