[{"view_history":"[{\"page_index\":0,\"viewing_time\":1976},{\"page_index\":1,\"viewing_time\":27475}]","rt":29451,"trial_type":"instructions","trial_index":0,"time_elapsed":29453,"internal_node_id":"0.0-0.0"},{"view_history":"[{\"page_index\":0,\"viewing_time\":4831},{\"page_index\":1,\"viewing_time\":20954}]","rt":25786,"trial_type":"instructions","trial_index":1,"time_elapsed":56240,"internal_node_id":"0.0-1.0"},{"group":"hexagon_bi","room_assignment":["red","blue","green","purple","grey","yellow"],"door_color_assignment":["white","black"],"door_generator_assignment":[1,0],"goal":3,"start":5,"action_noise":0.15,"location_history":"[5,4,3]","action_history":"[1,0]","door_history":"[0,1]","location_rts":"[3122,2065]","trial_type":"two-door-navigation","trial_index":2,"time_elapsed":66999,"internal_node_id":"0.0-2.0-0.0"},{"group":"hexagon_bi","room_assignment":["red","blue","green","purple","grey","yellow"],"door_color_assignment":["white","black"],"door_generator_assignment":[1,0],"goal":1,"start":3,"action_noise":0.15,"location_history":"[3,2,3,4,5,4,5,4,5,0,5,4,5,4,5,4,3,4,5,0,1]","action_history":"[1,1,0,1,0,1,1,0,0,0,1,1,1,1,1,0,0,1,0,1]","door_history":"[0,0,1,0,1,0,0,1,1,1,0,0,0,0,0,1,1,0,1,0]","location_rts":"[4313,1082,1170,823,2591,726,702,534,788,1509,1099,722,539,489,390,1114,1139,953,1320,1192]","trial_type":"two-door-navigation","trial_index":3,"time_elapsed":114228,"internal_node_id":"0.0-2.0-1.0"},{"group":"hexagon_bi","room_assignment":["red","blue","green","purple","grey","yellow"],"door_color_assignment":["white","black"],"door_generator_assignment":[1,0],"goal":0,"start":1,"action_noise":0.15,"location_history":"[1,0]","action_history":"[1]","door_history":"[0]","location_rts":"[2696]","trial_type":"two-door-navigation","trial_index":4,"time_elapsed":121453,"internal_node_id":"0.0-2.0-2.0"},{"group":"hexagon_bi","room_assignment":["red","blue","green","purple","grey","yellow"],"door_color_assignment":["white","black"],"door_generator_assignment":[1,0],"goal":3,"start":0,"action_noise":0.15,"location_history":"[0,5,4,3]","action_history":"[0,1,0]","door_history":"[1,0,1]","location_rts":"[5125,993,3421]","trial_type":"two-door-navigation","trial_index":5,"time_elapsed":137570,"internal_node_id":"0.0-2.0-3.0"},{"group":"hexagon_bi","room_assignment":["red","blue","green","purple","grey","yellow"],"door_color_assignment":["white","black"],"door_generator_assignment":[1,0],"goal":4,"start":3,"action_noise":0.15,"location_history":"[3,4]","action_history":"[0]","door_history":"[1]","location_rts":"[5204]","trial_type":"two-door-navigation","trial_index":6,"time_elapsed":147308,"internal_node_id":"0.0-2.0-4.0"},{"group":"hexagon_bi","room_assignment":["red","blue","green","purple","grey","yellow"],"door_color_assignment":["white","black"],"door_generator_assignment":[1,0],"goal":2,"start":4,"action_noise":0.15,"location_history":"[4,5,0,1,2]","action_history":"[1,0,1,0]","door_history":"[0,1,0,1]","location_rts":"[4835,1620,832,1919]","trial_type":"two-door-navigation","trial_index":7,"time_elapsed":164117,"internal_node_id":"0.0-2.0-5.0"},{"group":"hexagon_bi","room_assignment":["red","blue","green","purple","grey","yellow"],"door_color_assignment":["white","black"],"door_generator_assignment":[1,0],"goal":1,"start":2,"action_noise":0.15,"location_history":"[2,3,2,1]","action_history":"[1,1,0]","door_history":"[0,0,1]","location_rts":"[9139,2126,1415]","trial_type":"two-door-navigation","trial_index":8,"time_elapsed":183370,"internal_node_id":"0.0-2.0-6.0"},{"group":"hexagon_bi","room_assignment":["red","blue","green","purple","grey","yellow"],"door_color_assignment":["white","black"],"door_generator_assignment":[1,0],"goal":5,"start":1,"action_noise":0.15,"location_history":"[1,0,5]","action_history":"[1,0]","door_history":"[0,1]","location_rts":"[3264,1251]","trial_type":"two-door-navigation","trial_index":9,"time_elapsed":193443,"internal_node_id":"0.0-2.0-7.0"},{"group":"hexagon_bi","room_assignment":["red","blue","green","purple","grey","yellow"],"door_color_assignment":["white","black"],"door_generator_assignment":[1,0],"goal":4,"start":5,"action_noise":0.15,"location_history":"[5,4]","action_history":"[1]","door_history":"[0]","location_rts":"[5583]","trial_type":"two-door-navigation","trial_index":10,"time_elapsed":203554,"internal_node_id":"0.0-2.0-8.0"},{"group":"hexagon_bi","room_assignment":["red","blue","green","purple","grey","yellow"],"door_color_assignment":["white","black"],"door_generator_assignment":[1,0],"goal":2,"start":4,"action_noise":0.15,"location_history":"[4,5,0,1,2]","action_history":"[1,0,1,0]","door_history":"[0,1,0,1]","location_rts":"[3475,978,798,1122]","trial_type":"two-door-navigation","trial_index":11,"time_elapsed":217526,"internal_node_id":"0.0-2.0-9.0"},{"group":"hexagon_bi","room_assignment":["red","blue","green","purple","grey","yellow"],"door_color_assignment":["white","black"],"door_generator_assignment":[1,0],"goal":0,"start":2,"action_noise":0.15,"location_history":"[2,1,0]","action_history":"[0,1]","door_history":"[1,0]","location_rts":"[4699,754]","trial_type":"two-door-navigation","trial_index":12,"time_elapsed":228524,"internal_node_id":"0.0-2.0-10.0"},{"group":"hexagon_bi","room_assignment":["red","blue","green","purple","grey","yellow"],"door_color_assignment":["white","black"],"door_generator_assignment":[1,0],"goal":1,"start":0,"action_noise":0.15,"location_history":"[0,1]","action_history":"[1]","door_history":"[0]","location_rts":"[7912]","trial_type":"two-door-navigation","trial_index":13,"time_elapsed":240967,"internal_node_id":"0.0-2.0-11.0"},{"group":"hexagon_bi","room_assignment":["red","blue","green","purple","grey","yellow"],"door_color_assignment":["white","black"],"door_generator_assignment":[1,0],"goal":3,"start":1,"action_noise":0.15,"location_history":"[1,0,1,2,3]","action_history":"[1,0,0,1]","door_history":"[0,1,1,0]","location_rts":"[6236,754,1319,1326]","trial_type":"two-door-navigation","trial_index":14,"time_elapsed":258209,"internal_node_id":"0.0-2.0-12.0"},{"group":"hexagon_bi","room_assignment":["red","blue","green","purple","grey","yellow"],"door_color_assignment":["white","black"],"door_generator_assignment":[1,0],"goal":5,"start":3,"action_noise":0.15,"location_history":"[3,2,1,0,5]","action_history":"[1,0,1,0]","door_history":"[0,1,0,1]","location_rts":"[6092,1441,881,1091]","trial_type":"two-door-navigation","trial_index":15,"time_elapsed":275322,"internal_node_id":"0.0-2.0-13.0"},{"group":"hexagon_bi","room_assignment":["red","blue","green","purple","grey","yellow"],"door_color_assignment":["white","black"],"door_generator_assignment":[1,0],"goal":4,"start":5,"action_noise":0.15,"location_history":"[5,0,1,0,5,0,1,0,5,0,5,4]","action_history":"[0,1,1,0,0,1,1,0,0,0,1]","door_history":"[1,0,0,1,1,0,0,1,1,1,0]","location_rts":"[7582,725,1284,915,3630,942,962,695,775,1103,957]","trial_type":"two-door-navigation","trial_index":16,"time_elapsed":309666,"internal_node_id":"0.0-2.0-14.0"},{"group":"hexagon_bi","room_assignment":["red","blue","green","purple","grey","yellow"],"door_color_assignment":["white","black"],"door_generator_assignment":[1,0],"goal":0,"start":4,"action_noise":0.15,"location_history":"[4,5,0]","action_history":"[1,0]","door_history":"[0,1]","location_rts":"[2867,1860]","trial_type":"two-door-navigation","trial_index":17,"time_elapsed":319947,"internal_node_id":"0.0-2.0-15.0"},{"group":"hexagon_bi","room_assignment":["red","blue","green","purple","grey","yellow"],"door_color_assignment":["white","black"],"door_generator_assignment":[1,0],"goal":3,"start":0,"action_noise":0.15,"location_history":"[0,5,0,5,0,5,0,1,0,1,2,1,2,3]","action_history":"[0,1,1,0,0,0,0,1,0,0,0,0,1]","door_history":"[1,0,0,1,1,1,1,0,1,1,1,1,0]","location_rts":"[7490,1071,684,770,1136,915,1023,2486,1096,730,1218,672,1350]","trial_type":"two-door-navigation","trial_index":18,"time_elapsed":357441,"internal_node_id":"0.0-2.0-16.0"},{"group":"hexagon_bi","room_assignment":["red","blue","green","purple","grey","yellow"],"door_color_assignment":["white","black"],"door_generator_assignment":[1,0],"goal":1,"start":3,"action_noise":0.15,"location_history":"[3,2,1]","action_history":"[1,0]","door_history":"[0,1]","location_rts":"[3708,2695]","trial_type":"two-door-navigation","trial_index":19,"time_elapsed":369403,"internal_node_id":"0.0-2.0-17.0"},{"group":"hexagon_bi","room_assignment":["red","blue","green","purple","grey","yellow"],"door_color_assignment":["white","black"],"door_generator_assignment":[1,0],"goal":5,"start":1,"action_noise":0.15,"location_history":"[1,0,5]","action_history":"[1,0]","door_history":"[0,1]","location_rts":"[8315,1131]","trial_type":"two-door-navigation","trial_index":20,"time_elapsed":384400,"internal_node_id":"0.0-2.0-18.0"},{"group":"hexagon_bi","room_assignment":["red","blue","green","purple","grey","yellow"],"door_color_assignment":["white","black"],"door_generator_assignment":[1,0],"goal":2,"start":5,"action_noise":0.15,"location_history":"[5,4,5,0,1,2]","action_history":"[1,1,0,1,0]","door_history":"[0,0,1,0,1]","location_rts":"[5560,1820,1104,3259,1822]","trial_type":"two-door-navigation","trial_index":21,"time_elapsed":406581,"internal_node_id":"0.0-2.0-19.0"},{"group":"hexagon_bi","room_assignment":["red","blue","green","purple","grey","yellow"],"door_color_assignment":["white","black"],"door_generator_assignment":[1,0],"goal":4,"start":2,"action_noise":0.15,"location_history":"[2,1,2,3,4]","action_history":"[0,1,1,0]","door_history":"[1,0,0,1]","location_rts":"[3135,808,967,2225]","trial_type":"two-door-navigation","trial_index":22,"time_elapsed":421325,"internal_node_id":"0.0-2.0-20.0"},{"group":"hexagon_bi","room_assignment":["red","blue","green","purple","grey","yellow"],"door_color_assignment":["white","black"],"door_generator_assignment":[1,0],"goal":1,"start":4,"action_noise":0.15,"location_history":"[4,3,2,1]","action_history":"[0,1,1]","door_history":"[1,0,0]","location_rts":"[7739,2794,2995]","trial_type":"two-door-navigation","trial_index":23,"time_elapsed":441429,"internal_node_id":"0.0-2.0-21.0"},{"group":"hexagon_bi","room_assignment":["red","blue","green","purple","grey","yellow"],"door_color_assignment":["white","black"],"door_generator_assignment":[1,0],"goal":3,"start":1,"action_noise":0.15,"location_history":"[1,0,5,4,3]","action_history":"[1,0,1,0]","door_history":"[0,1,0,1]","location_rts":"[3352,2441,1232,3522]","trial_type":"two-door-navigation","trial_index":24,"time_elapsed":459578,"internal_node_id":"0.0-2.0-22.0"},{"group":"hexagon_bi","room_assignment":["red","blue","green","purple","grey","yellow"],"door_color_assignment":["white","black"],"door_generator_assignment":[1,0],"goal":2,"start":3,"action_noise":0.15,"location_history":"[3,2]","action_history":"[1]","door_history":"[0]","location_rts":"[3100]","trial_type":"two-door-navigation","trial_index":25,"time_elapsed":467211,"internal_node_id":"0.0-2.0-23.0"},{"group":"hexagon_bi","room_assignment":["red","blue","green","purple","grey","yellow"],"door_color_assignment":["white","black"],"door_generator_assignment":[1,0],"goal":0,"start":2,"action_noise":0.15,"location_history":"[2,3,2,3,2,3,4,3,2,1,2,1,2,1,0]","action_history":"[1,1,0,1,0,0,0,1,0,1,0,0,0,1]","door_history":"[0,0,1,0,1,1,1,0,1,0,1,1,1,0]","location_rts":"[3235,2353,797,4752,1781,987,1067,1346,1924,1157,886,491,1124,854]","trial_type":"two-door-navigation","trial_index":26,"time_elapsed":507794,"internal_node_id":"0.0-2.0-24.0"},{"group":"hexagon_bi","room_assignment":["red","blue","green","purple","grey","yellow"],"door_color_assignment":["white","black"],"door_generator_assignment":[1,0],"goal":5,"start":0,"action_noise":0.15,"location_history":"[0,1,2,1,2,1,2,3,4,3,2,3,2,3,4,3,2,3,4,5]","action_history":"[1,0,0,0,0,1,1,1,0,1,1,1,1,0,0,0,1,0,1]","door_history":"[0,1,1,1,1,0,0,0,1,0,0,0,0,1,1,1,0,1,0]","location_rts":"[10724,875,764,903,656,716,773,1542,1372,1159,1418,448,429,696,667,469,1719,943,5080]","trial_type":"two-door-navigation","trial_index":27,"time_elapsed":562139,"internal_node_id":"0.0-2.0-25.0"},{"group":"hexagon_bi","room_assignment":["red","blue","green","purple","grey","yellow"],"door_color_assignment":["white","black"],"door_generator_assignment":[1,0],"goal":2,"start":5,"action_noise":0.15,"location_history":"[5,4,3,2]","action_history":"[0,0,1]","door_history":"[1,1,0]","location_rts":"[2822,1461,1258]","trial_type":"two-door-navigation","trial_index":28,"time_elapsed":574259,"internal_node_id":"0.0-2.0-26.0"},{"group":"hexagon_bi","room_assignment":["red","blue","green","purple","grey","yellow"],"door_color_assignment":["white","black"],"door_generator_assignment":[1,0],"goal":3,"start":2,"action_noise":0.15,"location_history":"[2,3]","action_history":"[1]","door_history":"[0]","location_rts":"[3386]","trial_type":"two-door-navigation","trial_index":29,"time_elapsed":582175,"internal_node_id":"0.0-2.0-27.0"},{"group":"hexagon_bi","room_assignment":["red","blue","green","purple","grey","yellow"],"door_color_assignment":["white","black"],"door_generator_assignment":[1,0],"goal":0,"start":3,"action_noise":0.15,"location_history":"[3,4,3,4,5,4,3,4,3,2,1,2,3,4,5,4,3,2,3,2,3,2,1,2,1,2,1,0]","action_history":"[0,1,0,0,1,0,0,0,1,0,1,0,0,1,1,0,1,1,1,1,1,0,0,0,0,0,1]","door_history":"[1,0,1,1,0,1,1,1,0,1,0,1,1,0,0,1,0,0,0,0,0,1,1,1,1,1,0]","location_rts":"[2747,2407,1001,694,1527,929,795,563,788,1682,964,759,555,240,1208,1019,1066,810,573,470,698,288,421,461,897,916,2069]","trial_type":"two-door-navigation","trial_index":30,"time_elapsed":639936,"internal_node_id":"0.0-2.0-28.0"},{"group":"hexagon_bi","room_assignment":["red","blue","green","purple","grey","yellow"],"door_color_assignment":["white","black"],"door_generator_assignment":[1,0],"goal":1,"start":0,"action_noise":0.15,"location_history":"[0,1]","action_history":"[1]","door_history":"[0]","location_rts":"[2184]","trial_type":"two-door-navigation","trial_index":31,"time_elapsed":646646,"internal_node_id":"0.0-2.0-29.0"},{"group":"hexagon_bi","room_assignment":["red","blue","green","purple","grey","yellow"],"door_color_assignment":["white","black"],"door_generator_assignment":[1,0],"goal":4,"start":1,"action_noise":0.15,"location_history":"[1,2,3,2,1,0,5,0,5,4]","action_history":"[0,1,1,0,1,0,0,1,1]","door_history":"[1,0,0,1,0,1,1,0,0]","location_rts":"[5644,2518,1550,1136,845,2880,677,1047,796]","trial_type":"two-door-navigation","trial_index":32,"time_elapsed":676479,"internal_node_id":"0.0-2.0-30.0"},{"group":"hexagon_bi","room_assignment":["red","blue","green","purple","grey","yellow"],"door_color_assignment":["white","black"],"door_generator_assignment":[1,0],"goal":5,"start":4,"action_noise":0.15,"location_history":"[4,5]","action_history":"[1]","door_history":"[0]","location_rts":"[2541]","trial_type":"two-door-navigation","trial_index":33,"time_elapsed":683550,"internal_node_id":"0.0-2.0-31.0"},{"group":"hexagon_bi","room_assignment":["red","blue","green","purple","grey","yellow"],"door_color_assignment":["white","black"],"door_generator_assignment":[1,0],"goal":0,"start":5,"action_noise":0.15,"location_history":"[5,4,3,2,1,0]","action_history":"[0,0,1,0,1]","door_history":"[1,1,0,1,0]","location_rts":"[2353,2718,1332,3402,1449]","trial_type":"two-door-navigation","trial_index":34,"time_elapsed":703427,"internal_node_id":"0.0-2.0-32.0"},{"group":"hexagon_bi","room_assignment":["red","blue","green","purple","grey","yellow"],"door_color_assignment":["white","black"],"door_generator_assignment":[1,0],"goal":3,"start":0,"action_noise":0.15,"location_history":"[0,5,4,5,0,1,2,1,0,1,2,1,0,5,4,3]","action_history":"[0,1,1,0,1,0,0,1,0,0,1,1,0,0,1]","door_history":"[1,0,0,1,0,1,1,0,1,1,0,0,1,1,0]","location_rts":"[3279,695,1119,1016,1866,850,456,1317,1049,696,582,1036,673,567,2003]","trial_type":"two-door-navigation","trial_index":35,"time_elapsed":739547,"internal_node_id":"0.0-2.0-33.0"},{"group":"hexagon_bi","room_assignment":["red","blue","green","purple","grey","yellow"],"door_color_assignment":["white","black"],"door_generator_assignment":[1,0],"goal":1,"start":3,"action_noise":0.15,"location_history":"[3,2,1]","action_history":"[1,0]","door_history":"[0,1]","location_rts":"[3767,1136]","trial_type":"two-door-navigation","trial_index":36,"time_elapsed":750002,"internal_node_id":"0.0-2.0-34.0"},{"group":"hexagon_bi","room_assignment":["red","blue","green","purple","grey","yellow"],"door_color_assignment":["white","black"],"door_generator_assignment":[1,0],"goal":2,"start":1,"action_noise":0.15,"location_history":"[1,2]","action_history":"[0]","door_history":"[1]","location_rts":"[3208]","trial_type":"two-door-navigation","trial_index":37,"time_elapsed":757739,"internal_node_id":"0.0-2.0-35.0"},{"group":"hexagon_bi","room_assignment":["red","blue","green","purple","grey","yellow"],"door_color_assignment":["white","black"],"door_generator_assignment":[1,0],"goal":4,"start":2,"action_noise":0.15,"location_history":"[2,3,2,3,4]","action_history":"[0,1,1,0]","door_history":"[1,0,0,1]","location_rts":"[2141,1842,2806,719]","trial_type":"two-door-navigation","trial_index":38,"time_elapsed":772849,"internal_node_id":"0.0-2.0-36.0"},{"group":"hexagon_bi","room_assignment":["red","blue","green","purple","grey","yellow"],"door_color_assignment":["white","black"],"door_generator_assignment":[1,0],"goal":5,"start":4,"action_noise":0.15,"location_history":"[4,5]","action_history":"[1]","door_history":"[0]","location_rts":"[4584]","trial_type":"two-door-navigation","trial_index":39,"time_elapsed":781963,"internal_node_id":"0.0-2.0-37.0"},{"group":"hexagon_bi","room_assignment":["red","blue","green","purple","grey","yellow"],"door_color_assignment":["white","black"],"door_generator_assignment":[1,0],"goal":1,"start":5,"action_noise":0.15,"location_history":"[5,0,1]","action_history":"[0,1]","door_history":"[1,0]","location_rts":"[4875,2658]","trial_type":"two-door-navigation","trial_index":40,"time_elapsed":795046,"internal_node_id":"0.0-2.0-38.0"},{"group":"hexagon_bi","room_assignment":["red","blue","green","purple","grey","yellow"],"door_color_assignment":["white","black"],"door_generator_assignment":[1,0],"goal":4,"start":1,"action_noise":0.15,"location_history":"[1,2,3,2,3,4]","action_history":"[0,1,1,1,0]","door_history":"[1,0,0,0,1]","location_rts":"[3335,3373,1210,1520,542]","trial_type":"two-door-navigation","trial_index":41,"time_elapsed":813646,"internal_node_id":"0.0-2.0-39.0"},{"group":"hexagon_bi","room_assignment":["red","blue","green","purple","grey","yellow"],"door_color_assignment":["white","black"],"door_generator_assignment":[1,0],"goal":3,"start":4,"action_noise":0.15,"location_history":"[4,3]","action_history":"[0]","door_history":"[1]","location_rts":"[2328]","trial_type":"two-door-navigation","trial_index":42,"time_elapsed":820501,"internal_node_id":"0.0-2.0-40.0"},{"group":"hexagon_bi","room_assignment":["red","blue","green","purple","grey","yellow"],"door_color_assignment":["white","black"],"door_generator_assignment":[1,0],"goal":2,"start":3,"action_noise":0.15,"location_history":"[3,4,5,0,5,0,1,2]","action_history":"[0,1,0,0,1,1,1]","door_history":"[1,0,1,1,0,0,0]","location_rts":"[2181,2263,1910,1060,795,648,925]","trial_type":"two-door-navigation","trial_index":43,"time_elapsed":840979,"internal_node_id":"0.0-2.0-41.0"},{"group":"hexagon_bi","room_assignment":["red","blue","green","purple","grey","yellow"],"door_color_assignment":["white","black"],"door_generator_assignment":[1,0],"goal":0,"start":2,"action_noise":0.15,"location_history":"[2,3,4,3,2,3,2,1,2,1,0]","action_history":"[1,0,0,0,1,1,0,0,0,1]","door_history":"[0,1,1,1,0,0,1,1,1,0]","location_rts":"[2227,1150,1176,1067,5071,1364,526,1261,2046,778]","trial_type":"two-door-navigation","trial_index":44,"time_elapsed":871396,"internal_node_id":"0.0-2.0-42.0"},{"group":"hexagon_bi","room_assignment":["red","blue","green","purple","grey","yellow"],"door_color_assignment":["white","black"],"door_generator_assignment":[1,0],"goal":5,"start":0,"action_noise":0.15,"location_history":"[0,5]","action_history":"[0]","door_history":"[1]","location_rts":"[4270]","trial_type":"two-door-navigation","trial_index":45,"time_elapsed":880201,"internal_node_id":"0.0-2.0-43.0"},{"group":"hexagon_bi","room_assignment":["red","blue","green","purple","grey","yellow"],"door_color_assignment":["white","black"],"door_generator_assignment":[1,0],"goal":0,"start":5,"action_noise":0.15,"location_history":"[5,0]","action_history":"[0]","door_history":"[1]","location_rts":"[2317]","trial_type":"two-door-navigation","trial_index":46,"time_elapsed":887048,"internal_node_id":"0.0-2.0-44.0"},{"group":"hexagon_bi","room_assignment":["red","blue","green","purple","grey","yellow"],"door_color_assignment":["white","black"],"door_generator_assignment":[1,0],"goal":2,"start":0,"action_noise":0.15,"location_history":"[0,1,0,5,4,5,4,3,4,3,2]","action_history":"[1,0,0,0,1,1,0,0,0,1]","door_history":"[0,1,1,1,0,0,1,1,1,0]","location_rts":"[3616,4541,3681,3473,2269,1645,1505,5130,1694,433]","trial_type":"two-door-navigation","trial_index":47,"time_elapsed":928770,"internal_node_id":"0.0-2.0-45.0"},{"group":"hexagon_bi","room_assignment":["red","blue","green","purple","grey","yellow"],"door_color_assignment":["white","black"],"door_generator_assignment":[1,0],"goal":4,"start":2,"action_noise":0.15,"location_history":"[2,3,4]","action_history":"[1,0]","door_history":"[0,1]","location_rts":"[3797,5062]","trial_type":"two-door-navigation","trial_index":48,"time_elapsed":943180,"internal_node_id":"0.0-2.0-46.0"},{"group":"hexagon_bi","room_assignment":["red","blue","green","purple","grey","yellow"],"door_color_assignment":["white","black"],"door_generator_assignment":[1,0],"goal":1,"start":4,"action_noise":0.15,"location_history":"[4,5,0,1]","action_history":"[1,0,1]","door_history":"[0,1,0]","location_rts":"[3058,5141,6367]","trial_type":"two-door-navigation","trial_index":49,"time_elapsed":964326,"internal_node_id":"0.0-2.0-47.0"},{"group":"hexagon_bi","room_assignment":["red","blue","green","purple","grey","yellow"],"door_color_assignment":["white","black"],"door_generator_assignment":[1,0],"goal":5,"start":1,"action_noise":0.15,"location_history":"[1,2,3,4,3,2,3,2,1,0,5]","action_history":"[0,1,1,0,1,1,1,0,1,1]","door_history":"[1,0,0,1,0,0,0,1,0,0]","location_rts":"[3328,3455,2547,1455,2561,1554,1290,2722,2648,1520]","trial_type":"two-door-navigation","trial_index":50,"time_elapsed":1001156,"internal_node_id":"0.0-2.0-48.0"},{"group":"hexagon_bi","room_assignment":["red","blue","green","purple","grey","yellow"],"door_color_assignment":["white","black"],"door_generator_assignment":[1,0],"goal":3,"start":5,"action_noise":0.15,"location_history":"[5,0,5,4,5,0,5,0,1,0,5,0,1,0,1,0,1,2,3]","action_history":"[0,1,1,1,1,0,0,1,1,0,0,1,1,1,0,0,1,1]","door_history":"[1,0,0,0,0,1,1,0,0,1,1,0,0,0,1,1,0,0]","location_rts":"[3453,2151,1102,1119,1109,552,2337,908,2030,655,1301,1129,592,665,1888,1838,582,4056]","trial_type":"two-door-navigation","trial_index":51,"time_elapsed":1050583,"internal_node_id":"0.0-2.0-49.0"},{"view_history":"[{\"page_index\":0,\"viewing_time\":2858}]","rt":2858,"trial_type":"instructions","trial_index":52,"time_elapsed":1054442,"internal_node_id":"0.0-3.0"},{"view_history":"[{\"page_index\":0,\"viewing_time\":2849},{\"page_index\":1,\"viewing_time\":22266}]","rt":25115,"trial_type":"instructions","trial_index":53,"time_elapsed":1080559,"internal_node_id":"0.0-4.0"},{"group":"hexagon_tri","fractal_assignment":["../images/cyn_red.png","../images/org_blu.png","../images/ylw_slt.png","../images/pnk_blu.png","../images/gry_blk.png","../images/blu_wht.png"],"mutagen_generator_assignment":[0,1],"goal":3,"start":5,"action_noise":0.15,"location_history":"[5,0,1,3]","action_history":"[1,1,0]","mutagen_history":"[1,1,0]","location_rts":"[5271,2024,1010]","trial_type":"fractal-mutation","trial_index":54,"time_elapsed":1095547,"internal_node_id":"0.0-5.0-0.0"},{"group":"hexagon_tri","fractal_assignment":["../images/cyn_red.png","../images/org_blu.png","../images/ylw_slt.png","../images/pnk_blu.png","../images/gry_blk.png","../images/blu_wht.png"],"mutagen_generator_assignment":[0,1],"goal":1,"start":3,"action_noise":0.15,"location_history":"[3,2,3,2,1]","action_history":"[1,0,0,0]","mutagen_history":"[1,0,0,0]","location_rts":"[6447,780,986,2330]","trial_type":"fractal-mutation","trial_index":55,"time_elapsed":1113784,"internal_node_id":"0.0-5.0-1.0"},{"group":"hexagon_tri","fractal_assignment":["../images/cyn_red.png","../images/org_blu.png","../images/ylw_slt.png","../images/pnk_blu.png","../images/gry_blk.png","../images/blu_wht.png"],"mutagen_generator_assignment":[0,1],"goal":0,"start":1,"action_noise":0.15,"location_history":"[1,3,2,3,2,3,4,2,1,5,4,0]","action_history":"[1,0,0,0,1,1,1,0,1,1,0]","mutagen_history":"[1,0,0,0,1,1,1,0,1,1,0]","location_rts":"[3399,1705,1155,1512,617,557,651,681,1303,2406,672]","trial_type":"fractal-mutation","trial_index":56,"time_elapsed":1143434,"internal_node_id":"0.0-5.0-2.0"},{"group":"hexagon_tri","fractal_assignment":["../images/cyn_red.png","../images/org_blu.png","../images/ylw_slt.png","../images/pnk_blu.png","../images/gry_blk.png","../images/blu_wht.png"],"mutagen_generator_assignment":[0,1],"goal":3,"start":0,"action_noise":0.15,"location_history":"[0,5,4,0,1,5,0,5,4,2,3]","action_history":"[1,0,0,1,1,1,0,0,1,1]","mutagen_history":"[1,0,0,1,1,1,0,0,1,1]","location_rts":"[3359,619,1784,464,884,1163,866,532,409,509]","trial_type":"fractal-mutation","trial_index":57,"time_elapsed":1167948,"internal_node_id":"0.0-5.0-3.0"},{"group":"hexagon_tri","fractal_assignment":["../images/cyn_red.png","../images/org_blu.png","../images/ylw_slt.png","../images/pnk_blu.png","../images/gry_blk.png","../images/blu_wht.png"],"mutagen_generator_assignment":[0,1],"goal":4,"start":3,"action_noise":0.15,"location_history":"[3,2,1,5,4]","action_history":"[0,0,1,0]","mutagen_history":"[0,0,1,0]","location_rts":"[2029,1278,420,1089]","trial_type":"fractal-mutation","trial_index":58,"time_elapsed":1180405,"internal_node_id":"0.0-5.0-4.0"},{"group":"hexagon_tri","fractal_assignment":["../images/cyn_red.png","../images/org_blu.png","../images/ylw_slt.png","../images/pnk_blu.png","../images/gry_blk.png","../images/blu_wht.png"],"mutagen_generator_assignment":[0,1],"goal":2,"start":4,"action_noise":0.15,"location_history":"[4,2]","action_history":"[1]","mutagen_history":"[1]","location_rts":"[2878]","trial_type":"fractal-mutation","trial_index":59,"time_elapsed":1187824,"internal_node_id":"0.0-5.0-5.0"},{"group":"hexagon_tri","fractal_assignment":["../images/cyn_red.png","../images/org_blu.png","../images/ylw_slt.png","../images/pnk_blu.png","../images/gry_blk.png","../images/blu_wht.png"],"mutagen_generator_assignment":[0,1],"goal":1,"start":2,"action_noise":0.15,"location_history":"[2,1]","action_history":"[0]","mutagen_history":"[0]","location_rts":"[2162]","trial_type":"fractal-mutation","trial_index":60,"time_elapsed":1194525,"internal_node_id":"0.0-5.0-6.0"},{"group":"hexagon_tri","fractal_assignment":["../images/cyn_red.png","../images/org_blu.png","../images/ylw_slt.png","../images/pnk_blu.png","../images/gry_blk.png","../images/blu_wht.png"],"mutagen_generator_assignment":[0,1],"goal":5,"start":1,"action_noise":0.15,"location_history":"[1,5]","action_history":"[0]","mutagen_history":"[0]","location_rts":"[4253]","trial_type":"fractal-mutation","trial_index":61,"time_elapsed":1203316,"internal_node_id":"0.0-5.0-7.0"},{"group":"hexagon_tri","fractal_assignment":["../images/cyn_red.png","../images/org_blu.png","../images/ylw_slt.png","../images/pnk_blu.png","../images/gry_blk.png","../images/blu_wht.png"],"mutagen_generator_assignment":[0,1],"goal":4,"start":5,"action_noise":0.15,"location_history":"[5,4]","action_history":"[0]","mutagen_history":"[0]","location_rts":"[2872]","trial_type":"fractal-mutation","trial_index":62,"time_elapsed":1210727,"internal_node_id":"0.0-5.0-8.0"},{"group":"hexagon_tri","fractal_assignment":["../images/cyn_red.png","../images/org_blu.png","../images/ylw_slt.png","../images/pnk_blu.png","../images/gry_blk.png","../images/blu_wht.png"],"mutagen_generator_assignment":[0,1],"goal":2,"start":4,"action_noise":0.15,"location_history":"[4,2]","action_history":"[1]","mutagen_history":"[1]","location_rts":"[2962]","trial_type":"fractal-mutation","trial_index":63,"time_elapsed":1218247,"internal_node_id":"0.0-5.0-9.0"},{"group":"hexagon_tri","fractal_assignment":["../images/cyn_red.png","../images/org_blu.png","../images/ylw_slt.png","../images/pnk_blu.png","../images/gry_blk.png","../images/blu_wht.png"],"mutagen_generator_assignment":[0,1],"goal":0,"start":2,"action_noise":0.15,"location_history":"[2,3,4,0]","action_history":"[1,1,0]","mutagen_history":"[1,1,0]","location_rts":"[2203,1764,668]","trial_type":"fractal-mutation","trial_index":64,"time_elapsed":1229511,"internal_node_id":"0.0-5.0-10.0"},{"group":"hexagon_tri","fractal_assignment":["../images/cyn_red.png","../images/org_blu.png","../images/ylw_slt.png","../images/pnk_blu.png","../images/gry_blk.png","../images/blu_wht.png"],"mutagen_generator_assignment":[0,1],"goal":1,"start":0,"action_noise":0.15,"location_history":"[0,5,0,1]","action_history":"[0,1,1]","mutagen_history":"[0,1,1]","location_rts":"[4648,815,682]","trial_type":"fractal-mutation","trial_index":65,"time_elapsed":1242295,"internal_node_id":"0.0-5.0-11.0"},{"group":"hexagon_tri","fractal_assignment":["../images/cyn_red.png","../images/org_blu.png","../images/ylw_slt.png","../images/pnk_blu.png","../images/gry_blk.png","../images/blu_wht.png"],"mutagen_generator_assignment":[0,1],"goal":3,"start":1,"action_noise":0.15,"location_history":"[1,5,0,5,0,5,0,5,0,1,5,0,5,4,2,1,5,0,1,3]","action_history":"[1,1,0,0,0,0,0,1,1,1,1,0,0,1,0,1,1,1,0]","mutagen_history":"[1,1,0,0,0,0,0,1,1,1,1,0,0,1,0,1,1,1,0]","location_rts":"[2227,1112,544,741,736,931,774,736,916,524,1645,719,492,340,624,431,556,517,307]","trial_type":"fractal-mutation","trial_index":66,"time_elapsed":1280468,"internal_node_id":"0.0-5.0-12.0"},{"group":"hexagon_tri","fractal_assignment":["../images/cyn_red.png","../images/org_blu.png","../images/ylw_slt.png","../images/pnk_blu.png","../images/gry_blk.png","../images/blu_wht.png"],"mutagen_generator_assignment":[0,1],"goal":5,"start":3,"action_noise":0.15,"location_history":"[3,2,3,2,1,5]","action_history":"[0,1,0,0,1]","mutagen_history":"[0,1,0,0,1]","location_rts":"[2189,810,921,636,584]","trial_type":"fractal-mutation","trial_index":67,"time_elapsed":1294315,"internal_node_id":"0.0-5.0-13.0"},{"group":"hexagon_tri","fractal_assignment":["../images/cyn_red.png","../images/org_blu.png","../images/ylw_slt.png","../images/pnk_blu.png","../images/gry_blk.png","../images/blu_wht.png"],"mutagen_generator_assignment":[0,1],"goal":4,"start":5,"action_noise":0.15,"location_history":"[5,0,1,5,4]","action_history":"[0,1,1,1]","mutagen_history":"[0,1,1,1]","location_rts":"[2165,730,892,1523]","trial_type":"fractal-mutation","trial_index":68,"time_elapsed":1307294,"internal_node_id":"0.0-5.0-14.0"},{"group":"hexagon_tri","fractal_assignment":["../images/cyn_red.png","../images/org_blu.png","../images/ylw_slt.png","../images/pnk_blu.png","../images/gry_blk.png","../images/blu_wht.png"],"mutagen_generator_assignment":[0,1],"goal":0,"start":4,"action_noise":0.15,"location_history":"[4,0]","action_history":"[0]","mutagen_history":"[0]","location_rts":"[2175]","trial_type":"fractal-mutation","trial_index":69,"time_elapsed":1314005,"internal_node_id":"0.0-5.0-15.0"},{"group":"hexagon_tri","fractal_assignment":["../images/cyn_red.png","../images/org_blu.png","../images/ylw_slt.png","../images/pnk_blu.png","../images/gry_blk.png","../images/blu_wht.png"],"mutagen_generator_assignment":[0,1],"goal":3,"start":0,"action_noise":0.15,"location_history":"[0,1,3]","action_history":"[1,0]","mutagen_history":"[1,0]","location_rts":"[2053,465]","trial_type":"fractal-mutation","trial_index":70,"time_elapsed":1322111,"internal_node_id":"0.0-5.0-16.0"},{"group":"hexagon_tri","fractal_assignment":["../images/cyn_red.png","../images/org_blu.png","../images/ylw_slt.png","../images/pnk_blu.png","../images/gry_blk.png","../images/blu_wht.png"],"mutagen_generator_assignment":[0,1],"goal":1,"start":3,"action_noise":0.15,"location_history":"[3,2,3,2,3,4,0,5,4,2,1]","action_history":"[1,1,0,1,1,0,0,1,1,0]","mutagen_history":"[1,1,0,1,1,0,0,1,1,0]","location_rts":"[1764,1590,1360,1047,421,826,2324,476,1345,897]","trial_type":"fractal-mutation","trial_index":71,"time_elapsed":1348082,"internal_node_id":"0.0-5.0-17.0"},{"group":"hexagon_tri","fractal_assignment":["../images/cyn_red.png","../images/org_blu.png","../images/ylw_slt.png","../images/pnk_blu.png","../images/gry_blk.png","../images/blu_wht.png"],"mutagen_generator_assignment":[0,1],"goal":5,"start":1,"action_noise":0.15,"location_history":"[1,5]","action_history":"[1]","mutagen_history":"[1]","location_rts":"[995]","trial_type":"fractal-mutation","trial_index":72,"time_elapsed":1353634,"internal_node_id":"0.0-5.0-18.0"},{"group":"hexagon_tri","fractal_assignment":["../images/cyn_red.png","../images/org_blu.png","../images/ylw_slt.png","../images/pnk_blu.png","../images/gry_blk.png","../images/blu_wht.png"],"mutagen_generator_assignment":[0,1],"goal":2,"start":5,"action_noise":0.15,"location_history":"[5,4,2]","action_history":"[0,1]","mutagen_history":"[0,1]","location_rts":"[2060,1486]","trial_type":"fractal-mutation","trial_index":73,"time_elapsed":1362774,"internal_node_id":"0.0-5.0-19.0"},{"group":"hexagon_tri","fractal_assignment":["../images/cyn_red.png","../images/org_blu.png","../images/ylw_slt.png","../images/pnk_blu.png","../images/gry_blk.png","../images/blu_wht.png"],"mutagen_generator_assignment":[0,1],"goal":4,"start":2,"action_noise":0.15,"location_history":"[2,1,3,2,1,5,4]","action_history":"[0,0,1,1,1,1]","mutagen_history":"[0,0,1,1,1,1]","location_rts":"[1230,1088,851,810,661,810]","trial_type":"fractal-mutation","trial_index":74,"time_elapsed":1377966,"internal_node_id":"0.0-5.0-20.0"},{"group":"hexagon_tri","fractal_assignment":["../images/cyn_red.png","../images/org_blu.png","../images/ylw_slt.png","../images/pnk_blu.png","../images/gry_blk.png","../images/blu_wht.png"],"mutagen_generator_assignment":[0,1],"goal":1,"start":4,"action_noise":0.15,"location_history":"[4,0,1]","action_history":"[0,0]","mutagen_history":"[0,0]","location_rts":"[1241,919]","trial_type":"fractal-mutation","trial_index":75,"time_elapsed":1385699,"internal_node_id":"0.0-5.0-21.0"},{"group":"hexagon_tri","fractal_assignment":["../images/cyn_red.png","../images/org_blu.png","../images/ylw_slt.png","../images/pnk_blu.png","../images/gry_blk.png","../images/blu_wht.png"],"mutagen_generator_assignment":[0,1],"goal":3,"start":1,"action_noise":0.15,"location_history":"[1,5,0,5,0,5,0,1,5,4,2,1,3]","action_history":"[1,0,0,1,0,1,1,1,0,1,0,0]","mutagen_history":"[1,0,0,1,0,1,1,1,0,1,0,0]","location_rts":"[2212,462,501,398,694,687,401,458,902,1199,1037,542]","trial_type":"fractal-mutation","trial_index":76,"time_elapsed":1411180,"internal_node_id":"0.0-5.0-22.0"},{"group":"hexagon_tri","fractal_assignment":["../images/cyn_red.png","../images/org_blu.png","../images/ylw_slt.png","../images/pnk_blu.png","../images/gry_blk.png","../images/blu_wht.png"],"mutagen_generator_assignment":[0,1],"goal":2,"start":3,"action_noise":0.15,"location_history":"[3,2]","action_history":"[0]","mutagen_history":"[0]","location_rts":"[4121]","trial_type":"fractal-mutation","trial_index":77,"time_elapsed":1419841,"internal_node_id":"0.0-5.0-23.0"},{"group":"hexagon_tri","fractal_assignment":["../images/cyn_red.png","../images/org_blu.png","../images/ylw_slt.png","../images/pnk_blu.png","../images/gry_blk.png","../images/blu_wht.png"],"mutagen_generator_assignment":[0,1],"goal":0,"start":2,"action_noise":0.15,"location_history":"[2,1,5,0]","action_history":"[0,1,1]","mutagen_history":"[0,1,1]","location_rts":"[3824,1269,1252]","trial_type":"fractal-mutation","trial_index":78,"time_elapsed":1432829,"internal_node_id":"0.0-5.0-24.0"},{"group":"hexagon_tri","fractal_assignment":["../images/cyn_red.png","../images/org_blu.png","../images/ylw_slt.png","../images/pnk_blu.png","../images/gry_blk.png","../images/blu_wht.png"],"mutagen_generator_assignment":[0,1],"goal":5,"start":0,"action_noise":0.15,"location_history":"[0,5]","action_history":"[0]","mutagen_history":"[0]","location_rts":"[2273]","trial_type":"fractal-mutation","trial_index":79,"time_elapsed":1439640,"internal_node_id":"0.0-5.0-25.0"},{"group":"hexagon_tri","fractal_assignment":["../images/cyn_red.png","../images/org_blu.png","../images/ylw_slt.png","../images/pnk_blu.png","../images/gry_blk.png","../images/blu_wht.png"],"mutagen_generator_assignment":[0,1],"goal":2,"start":5,"action_noise":0.15,"location_history":"[5,4,0,1,5,4,0,1,5,0,5,4,0,5,0,1,3,4,2]","action_history":"[0,0,1,1,1,0,0,1,1,0,0,0,0,1,1,0,1,1]","mutagen_history":"[0,0,1,1,1,0,0,1,1,0,0,0,0,1,1,0,1,1]","location_rts":"[6039,1380,500,489,1524,579,1207,454,983,400,675,1048,737,708,459,2833,2027,914]","trial_type":"fractal-mutation","trial_index":80,"time_elapsed":1484820,"internal_node_id":"0.0-5.0-26.0"},{"group":"hexagon_tri","fractal_assignment":["../images/cyn_red.png","../images/org_blu.png","../images/ylw_slt.png","../images/pnk_blu.png","../images/gry_blk.png","../images/blu_wht.png"],"mutagen_generator_assignment":[0,1],"goal":3,"start":2,"action_noise":0.15,"location_history":"[2,1,5,4,0,1,3]","action_history":"[0,1,0,0,1,0]","mutagen_history":"[0,1,0,0,1,0]","location_rts":"[2628,3450,2378,3132,765,1211]","trial_type":"fractal-mutation","trial_index":81,"time_elapsed":1508089,"internal_node_id":"0.0-5.0-27.0"},{"group":"hexagon_tri","fractal_assignment":["../images/cyn_red.png","../images/org_blu.png","../images/ylw_slt.png","../images/pnk_blu.png","../images/gry_blk.png","../images/blu_wht.png"],"mutagen_generator_assignment":[0,1],"goal":0,"start":3,"action_noise":0.15,"location_history":"[3,4,2,1,3,2,3,2,1,3,4,2,3,4,2,1,5,0]","action_history":"[1,1,0,0,0,1,0,0,0,1,1,1,1,1,0,1,1]","mutagen_history":"[1,1,0,0,0,1,0,0,0,1,1,1,1,1,0,1,1]","location_rts":"[1484,5778,506,1429,927,1559,1393,593,1331,1598,589,716,751,525,721,1380,1929]","trial_type":"fractal-mutation","trial_index":82,"time_elapsed":1552471,"internal_node_id":"0.0-5.0-28.0"},{"group":"hexagon_tri","fractal_assignment":["../images/cyn_red.png","../images/org_blu.png","../images/ylw_slt.png","../images/pnk_blu.png","../images/gry_blk.png","../images/blu_wht.png"],"mutagen_generator_assignment":[0,1],"goal":1,"start":0,"action_noise":0.15,"location_history":"[0,5,4,2,1]","action_history":"[0,0,1,0]","mutagen_history":"[0,0,1,0]","location_rts":"[1781,2121,1067,879]","trial_type":"fractal-mutation","trial_index":83,"time_elapsed":1565985,"internal_node_id":"0.0-5.0-29.0"},{"group":"hexagon_tri","fractal_assignment":["../images/cyn_red.png","../images/org_blu.png","../images/ylw_slt.png","../images/pnk_blu.png","../images/gry_blk.png","../images/blu_wht.png"],"mutagen_generator_assignment":[0,1],"goal":4,"start":1,"action_noise":0.15,"location_history":"[1,5,4]","action_history":"[1,0]","mutagen_history":"[1,0]","location_rts":"[1543,1064]","trial_type":"fractal-mutation","trial_index":84,"time_elapsed":1574182,"internal_node_id":"0.0-5.0-30.0"},{"group":"hexagon_tri","fractal_assignment":["../images/cyn_red.png","../images/org_blu.png","../images/ylw_slt.png","../images/pnk_blu.png","../images/gry_blk.png","../images/blu_wht.png"],"mutagen_generator_assignment":[0,1],"goal":5,"start":4,"action_noise":0.15,"location_history":"[4,0,1,3,2,3,2,1,3,4,2,1,3,4,2,3,4,2,3,4,0,1,3,4,0,5]","action_history":"[1,1,0,0,1,0,0,1,1,1,0,0,0,1,1,1,1,1,1,0,1,0,1,1,0]","mutagen_history":"[1,1,0,0,1,0,0,1,1,1,0,0,0,1,1,1,1,1,1,0,1,0,1,1,0]","location_rts":"[3350,1499,1637,2813,2590,1433,894,1108,1624,1150,774,1533,794,1179,540,492,891,562,710,483,4621,1132,838,615,596]","trial_type":"fractal-mutation","trial_index":85,"time_elapsed":1637594,"internal_node_id":"0.0-5.0-31.0"},{"group":"hexagon_tri","fractal_assignment":["../images/cyn_red.png","../images/org_blu.png","../images/ylw_slt.png","../images/pnk_blu.png","../images/gry_blk.png","../images/blu_wht.png"],"mutagen_generator_assignment":[0,1],"goal":0,"start":5,"action_noise":0.15,"location_history":"[5,0]","action_history":"[1]","mutagen_history":"[1]","location_rts":"[1514]","trial_type":"fractal-mutation","trial_index":86,"time_elapsed":1643659,"internal_node_id":"0.0-5.0-32.0"},{"group":"hexagon_tri","fractal_assignment":["../images/cyn_red.png","../images/org_blu.png","../images/ylw_slt.png","../images/pnk_blu.png","../images/gry_blk.png","../images/blu_wht.png"],"mutagen_generator_assignment":[0,1],"goal":3,"start":0,"action_noise":0.15,"location_history":"[0,5,0,5,4,0,1,5,4,0,5,0,1,3]","action_history":"[1,0,0,0,1,1,1,0,0,0,1,1,0]","mutagen_history":"[1,0,0,0,1,1,1,0,0,0,1,1,0]","location_rts":"[4098,3406,1085,926,3125,1519,1443,1106,1305,819,313,370,444]","trial_type":"fractal-mutation","trial_index":87,"time_elapsed":1680643,"internal_node_id":"0.0-5.0-33.0"},{"group":"hexagon_tri","fractal_assignment":["../images/cyn_red.png","../images/org_blu.png","../images/ylw_slt.png","../images/pnk_blu.png","../images/gry_blk.png","../images/blu_wht.png"],"mutagen_generator_assignment":[0,1],"goal":1,"start":3,"action_noise":0.15,"location_history":"[3,2,3,4,2,3,4,2,3,2,3,2,3,4,2,1]","action_history":"[0,1,1,1,0,1,1,0,0,0,1,1,1,1,0]","mutagen_history":"[0,1,1,1,0,1,1,0,0,0,1,1,1,1,0]","location_rts":"[2440,954,1641,2106,911,1552,528,468,495,530,612,826,408,447,595]","trial_type":"fractal-mutation","trial_index":88,"time_elapsed":1714308,"internal_node_id":"0.0-5.0-34.0"},{"group":"hexagon_tri","fractal_assignment":["../images/cyn_red.png","../images/org_blu.png","../images/ylw_slt.png","../images/pnk_blu.png","../images/gry_blk.png","../images/blu_wht.png"],"mutagen_generator_assignment":[0,1],"goal":2,"start":1,"action_noise":0.15,"location_history":"[1,5,4,0,1,5,0,5,0,1,5,4,0,5,4,2]","action_history":"[1,0,0,1,1,1,0,1,1,0,0,0,0,0,1]","mutagen_history":"[1,0,0,1,1,1,0,1,1,0,0,0,0,0,1]","location_rts":"[1876,1240,1724,624,588,474,419,452,730,579,391,528,523,474,1245]","trial_type":"fractal-mutation","trial_index":89,"time_elapsed":1745257,"internal_node_id":"0.0-5.0-35.0"},{"group":"hexagon_tri","fractal_assignment":["../images/cyn_red.png","../images/org_blu.png","../images/ylw_slt.png","../images/pnk_blu.png","../images/gry_blk.png","../images/blu_wht.png"],"mutagen_generator_assignment":[0,1],"goal":4,"start":2,"action_noise":0.15,"location_history":"[2,3,2,3,2,1,5,4]","action_history":"[1,0,0,0,0,1,0]","mutagen_history":"[1,0,0,0,0,1,0]","location_rts":"[1848,659,725,592,828,1094,1037]","trial_type":"fractal-mutation","trial_index":90,"time_elapsed":1762789,"internal_node_id":"0.0-5.0-36.0"},{"group":"hexagon_tri","fractal_assignment":["../images/cyn_red.png","../images/org_blu.png","../images/ylw_slt.png","../images/pnk_blu.png","../images/gry_blk.png","../images/blu_wht.png"],"mutagen_generator_assignment":[0,1],"goal":5,"start":4,"action_noise":0.15,"location_history":"[4,0,1,3,4,0,5]","action_history":"[0,1,0,0,0,1]","mutagen_history":"[0,1,0,0,0,1]","location_rts":"[2495,1374,937,618,547,382]","trial_type":"fractal-mutation","trial_index":91,"time_elapsed":1778866,"internal_node_id":"0.0-5.0-37.0"},{"group":"hexagon_tri","fractal_assignment":["../images/cyn_red.png","../images/org_blu.png","../images/ylw_slt.png","../images/pnk_blu.png","../images/gry_blk.png","../images/blu_wht.png"],"mutagen_generator_assignment":[0,1],"goal":1,"start":5,"action_noise":0.15,"location_history":"[5,4,2,1]","action_history":"[0,1,0]","mutagen_history":"[0,1,0]","location_rts":"[1359,1066,729]","trial_type":"fractal-mutation","trial_index":92,"time_elapsed":1788639,"internal_node_id":"0.0-5.0-38.0"},{"group":"hexagon_tri","fractal_assignment":["../images/cyn_red.png","../images/org_blu.png","../images/ylw_slt.png","../images/pnk_blu.png","../images/gry_blk.png","../images/blu_wht.png"],"mutagen_generator_assignment":[0,1],"goal":4,"start":1,"action_noise":0.15,"location_history":"[1,3,4]","action_history":"[0,1]","mutagen_history":"[0,1]","location_rts":"[2698,672]","trial_type":"fractal-mutation","trial_index":93,"time_elapsed":1797600,"internal_node_id":"0.0-5.0-39.0"},{"group":"hexagon_tri","fractal_assignment":["../images/cyn_red.png","../images/org_blu.png","../images/ylw_slt.png","../images/pnk_blu.png","../images/gry_blk.png","../images/blu_wht.png"],"mutagen_generator_assignment":[0,1],"goal":3,"start":4,"action_noise":0.15,"location_history":"[4,0,5,0,5,4,2,3]","action_history":"[1,0,1,0,0,1,1]","mutagen_history":"[1,0,1,0,0,1,1]","location_rts":"[1910,1245,2195,811,458,1054,1153]","trial_type":"fractal-mutation","trial_index":94,"time_elapsed":1817219,"internal_node_id":"0.0-5.0-40.0"},{"group":"hexagon_tri","fractal_assignment":["../images/cyn_red.png","../images/org_blu.png","../images/ylw_slt.png","../images/pnk_blu.png","../images/gry_blk.png","../images/blu_wht.png"],"mutagen_generator_assignment":[0,1],"goal":2,"start":3,"action_noise":0.15,"location_history":"[3,2]","action_history":"[0]","mutagen_history":"[0]","location_rts":"[5280]","trial_type":"fractal-mutation","trial_index":95,"time_elapsed":1827040,"internal_node_id":"0.0-5.0-41.0"},{"group":"hexagon_tri","fractal_assignment":["../images/cyn_red.png","../images/org_blu.png","../images/ylw_slt.png","../images/pnk_blu.png","../images/gry_blk.png","../images/blu_wht.png"],"mutagen_generator_assignment":[0,1],"goal":0,"start":2,"action_noise":0.15,"location_history":"[2,1,5,4,2,3,2,1,5,0]","action_history":"[0,1,0,1,1,0,0,0,1]","mutagen_history":"[0,1,0,1,1,0,0,0,1]","location_rts":"[1721,1050,2011,952,416,1082,1208,1028,801]","trial_type":"fractal-mutation","trial_index":96,"time_elapsed":1850163,"internal_node_id":"0.0-5.0-42.0"},{"group":"hexagon_tri","fractal_assignment":["../images/cyn_red.png","../images/org_blu.png","../images/ylw_slt.png","../images/pnk_blu.png","../images/gry_blk.png","../images/blu_wht.png"],"mutagen_generator_assignment":[0,1],"goal":5,"start":0,"action_noise":0.15,"location_history":"[0,5]","action_history":"[0]","mutagen_history":"[0]","location_rts":"[1750]","trial_type":"fractal-mutation","trial_index":97,"time_elapsed":1856453,"internal_node_id":"0.0-5.0-43.0"},{"group":"hexagon_tri","fractal_assignment":["../images/cyn_red.png","../images/org_blu.png","../images/ylw_slt.png","../images/pnk_blu.png","../images/gry_blk.png","../images/blu_wht.png"],"mutagen_generator_assignment":[0,1],"goal":0,"start":5,"action_noise":0.15,"location_history":"[5,0]","action_history":"[1]","mutagen_history":"[1]","location_rts":"[1171]","trial_type":"fractal-mutation","trial_index":98,"time_elapsed":1862173,"internal_node_id":"0.0-5.0-44.0"},{"group":"hexagon_tri","fractal_assignment":["../images/cyn_red.png","../images/org_blu.png","../images/ylw_slt.png","../images/pnk_blu.png","../images/gry_blk.png","../images/blu_wht.png"],"mutagen_generator_assignment":[0,1],"goal":2,"start":0,"action_noise":0.15,"location_history":"[0,1,3,4,2]","action_history":"[1,0,1,1]","mutagen_history":"[1,0,1,1]","location_rts":"[1857,1035,1037,1429]","trial_type":"fractal-mutation","trial_index":99,"time_elapsed":1875222,"internal_node_id":"0.0-5.0-45.0"},{"group":"hexagon_tri","fractal_assignment":["../images/cyn_red.png","../images/org_blu.png","../images/ylw_slt.png","../images/pnk_blu.png","../images/gry_blk.png","../images/blu_wht.png"],"mutagen_generator_assignment":[0,1],"goal":4,"start":2,"action_noise":0.15,"location_history":"[2,3,4]","action_history":"[0,1]","mutagen_history":"[0,1]","location_rts":"[1727,1025]","trial_type":"fractal-mutation","trial_index":100,"time_elapsed":1883564,"internal_node_id":"0.0-5.0-46.0"},{"group":"hexagon_tri","fractal_assignment":["../images/cyn_red.png","../images/org_blu.png","../images/ylw_slt.png","../images/pnk_blu.png","../images/gry_blk.png","../images/blu_wht.png"],"mutagen_generator_assignment":[0,1],"goal":1,"start":4,"action_noise":0.15,"location_history":"[4,0,1]","action_history":"[0,1]","mutagen_history":"[0,1]","location_rts":"[2507,777]","trial_type":"fractal-mutation","trial_index":101,"time_elapsed":1892432,"internal_node_id":"0.0-5.0-47.0"},{"group":"hexagon_tri","fractal_assignment":["../images/cyn_red.png","../images/org_blu.png","../images/ylw_slt.png","../images/pnk_blu.png","../images/gry_blk.png","../images/blu_wht.png"],"mutagen_generator_assignment":[0,1],"goal":5,"start":1,"action_noise":0.15,"location_history":"[1,3,2,1,5]","action_history":"[1,0,0,1]","mutagen_history":"[1,0,0,1]","location_rts":"[4480,1257,1727,746]","trial_type":"fractal-mutation","trial_index":102,"time_elapsed":1908298,"internal_node_id":"0.0-5.0-48.0"},{"group":"hexagon_tri","fractal_assignment":["../images/cyn_red.png","../images/org_blu.png","../images/ylw_slt.png","../images/pnk_blu.png","../images/gry_blk.png","../images/blu_wht.png"],"mutagen_generator_assignment":[0,1],"goal":3,"start":5,"action_noise":0.15,"location_history":"[5,0,5,0,5,0,5,4,0,1,5,0,1,3]","action_history":"[1,0,0,0,1,0,0,0,1,1,1,1,0]","mutagen_history":"[1,0,0,0,1,0,0,0,1,1,1,1,0]","location_rts":"[3929,1744,849,648,1286,473,514,897,513,668,633,574,3262]","trial_type":"fractal-mutation","trial_index":103,"time_elapsed":1941288,"internal_node_id":"0.0-5.0-49.0"},{"view_history":"[{\"page_index\":0,\"viewing_time\":7940}]","rt":7941,"trial_type":"instructions","trial_index":104,"time_elapsed":1950230,"internal_node_id":"0.0-6.0"},{"rt":209046,"responses":"{\"Q0\":\"First of all, thanks for rebooting the HIT for me, much appreciated. I've been told that I have above average spatial intelligence, however, I feel like it was easier for me to figure out the patterns of the 'fractals' rather the the 'doors in the haunted house'. Both of them require finding patterns, but the fractal exercise felt more like building a key in my head, rather than any sort of spatial orientation, which was easier for me (except when I got lost!)\"}","trial_type":"survey-text","trial_index":105,"time_elapsed":2160279,"internal_node_id":"0.0-7.0"}]