[{"view_history":"[{\"page_index\":0,\"viewing_time\":14844},{\"page_index\":1,\"viewing_time\":6657}]","rt":21502,"trial_type":"instructions","trial_index":0,"time_elapsed":21503,"internal_node_id":"0.0-0.0"},{"view_history":"[{\"page_index\":0,\"viewing_time\":1255},{\"page_index\":1,\"viewing_time\":1744}]","rt":2999,"trial_type":"instructions","trial_index":1,"time_elapsed":25505,"internal_node_id":"0.0-1.0"},{"group":"hexagon_bi","room_assignment":["red","grey","yellow","green","blue","purple"],"door_color_assignment":["black","white"],"door_generator_assignment":[0,1],"goal":3,"start":5,"action_noise":0.15,"location_history":"[5,0,5,4,3]","action_history":"[0,0,1,1]","door_history":"[0,0,1,1]","location_rts":"[1581,2621,111,5601]","trial_type":"two-door-navigation","trial_index":2,"time_elapsed":43001,"internal_node_id":"0.0-2.0-0.0"},{"group":"hexagon_bi","room_assignment":["red","grey","yellow","green","blue","purple"],"door_color_assignment":["black","white"],"door_generator_assignment":[0,1],"goal":1,"start":3,"action_noise":0.15,"location_history":"[3,2,3,4,3,2,3,4,5,4,3,4,3,2,1]","action_history":"[1,1,0,0,1,1,0,1,1,0,0,1,1,0]","door_history":"[1,1,0,0,1,1,0,1,1,0,0,1,1,0]","location_rts":"[439,544,378,1753,381,183,524,445,611,791,854,327,329,300]","trial_type":"two-door-navigation","trial_index":3,"time_elapsed":68589,"internal_node_id":"0.0-2.0-1.0"},{"group":"hexagon_bi","room_assignment":["red","grey","yellow","green","blue","purple"],"door_color_assignment":["black","white"],"door_generator_assignment":[0,1],"goal":0,"start":1,"action_noise":0.15,"location_history":"[1,2,3,4,3,4,3,2,3,2,1,0]","action_history":"[0,1,1,0,0,0,1,1,1,0,1]","door_history":"[0,1,1,0,0,0,1,1,1,0,1]","location_rts":"[303,982,368,706,834,434,393,464,1381,1824,1200]","trial_type":"two-door-navigation","trial_index":4,"time_elapsed":92135,"internal_node_id":"0.0-2.0-2.0"},{"group":"hexagon_bi","room_assignment":["red","grey","yellow","green","blue","purple"],"door_color_assignment":["black","white"],"door_generator_assignment":[0,1],"goal":3,"start":0,"action_noise":0.15,"location_history":"[0,1,2,1,0,1,0,5,0,5,4,5,0,5,4,3]","action_history":"[1,0,0,0,1,1,0,0,0,1,1,0,0,1,0]","door_history":"[1,0,0,0,1,1,0,0,0,1,1,0,0,1,0]","location_rts":"[1677,2679,955,677,267,629,651,535,1622,356,515,600,903,310,436]","trial_type":"two-door-navigation","trial_index":5,"time_elapsed":123684,"internal_node_id":"0.0-2.0-3.0"},{"group":"hexagon_bi","room_assignment":["red","grey","yellow","green","blue","purple"],"door_color_assignment":["black","white"],"door_generator_assignment":[0,1],"goal":4,"start":3,"action_noise":0.15,"location_history":"[3,4]","action_history":"[0]","door_history":"[0]","location_rts":"[4343]","trial_type":"two-door-navigation","trial_index":6,"time_elapsed":132548,"internal_node_id":"0.0-2.0-4.0"},{"group":"hexagon_bi","room_assignment":["red","grey","yellow","green","blue","purple"],"door_color_assignment":["black","white"],"door_generator_assignment":[0,1],"goal":2,"start":4,"action_noise":0.15,"location_history":"[4,3,2]","action_history":"[0,1]","door_history":"[0,1]","location_rts":"[1046,593]","trial_type":"two-door-navigation","trial_index":7,"time_elapsed":139720,"internal_node_id":"0.0-2.0-5.0"},{"group":"hexagon_bi","room_assignment":["red","grey","yellow","green","blue","purple"],"door_color_assignment":["black","white"],"door_generator_assignment":[0,1],"goal":1,"start":2,"action_noise":0.15,"location_history":"[2,3,4,3,4,3,2,3,4,3,4,5,0,1]","action_history":"[1,0,1,0,0,1,1,0,0,0,1,0,1]","door_history":"[1,0,1,0,0,1,1,0,0,0,1,0,1]","location_rts":"[2121,694,1591,939,534,399,821,465,526,628,215,1452,974]","trial_type":"two-door-navigation","trial_index":8,"time_elapsed":167775,"internal_node_id":"0.0-2.0-6.0"},{"group":"hexagon_bi","room_assignment":["red","grey","yellow","green","blue","purple"],"door_color_assignment":["black","white"],"door_generator_assignment":[0,1],"goal":5,"start":1,"action_noise":0.15,"location_history":"[1,2,1,0,5]","action_history":"[0,1,1,0]","door_history":"[0,1,1,0]","location_rts":"[2577,794,942,417]","trial_type":"two-door-navigation","trial_index":9,"time_elapsed":180069,"internal_node_id":"0.0-2.0-7.0"},{"group":"hexagon_bi","room_assignment":["red","grey","yellow","green","blue","purple"],"door_color_assignment":["black","white"],"door_generator_assignment":[0,1],"goal":4,"start":5,"action_noise":0.15,"location_history":"[5,0,1,2,1,2,1,0,1,0,5,4]","action_history":"[0,1,0,0,1,0,0,1,1,0,1]","door_history":"[0,1,0,0,1,0,0,1,1,0,1]","location_rts":"[1414,1283,856,447,721,882,707,729,756,416,908]","trial_type":"two-door-navigation","trial_index":10,"time_elapsed":203851,"internal_node_id":"0.0-2.0-8.0"},{"group":"hexagon_bi","room_assignment":["red","grey","yellow","green","blue","purple"],"door_color_assignment":["black","white"],"door_generator_assignment":[0,1],"goal":2,"start":4,"action_noise":0.15,"location_history":"[4,5,4,3,2]","action_history":"[1,1,0,0]","door_history":"[1,1,0,0]","location_rts":"[1422,923,111,345]","trial_type":"two-door-navigation","trial_index":11,"time_elapsed":214224,"internal_node_id":"0.0-2.0-9.0"},{"group":"hexagon_bi","room_assignment":["red","grey","yellow","green","blue","purple"],"door_color_assignment":["black","white"],"door_generator_assignment":[0,1],"goal":0,"start":2,"action_noise":0.15,"location_history":"[2,1,0]","action_history":"[0,1]","door_history":"[0,1]","location_rts":"[1791,1550]","trial_type":"two-door-navigation","trial_index":12,"time_elapsed":223095,"internal_node_id":"0.0-2.0-10.0"},{"group":"hexagon_bi","room_assignment":["red","grey","yellow","green","blue","purple"],"door_color_assignment":["black","white"],"door_generator_assignment":[0,1],"goal":1,"start":0,"action_noise":0.15,"location_history":"[0,5,4,5,0,5,4,5,0,1]","action_history":"[0,1,1,0,0,1,1,0,0]","door_history":"[0,1,1,0,0,1,1,0,0]","location_rts":"[799,2505,679,681,586,450,538,476,440]","trial_type":"two-door-navigation","trial_index":13,"time_elapsed":242895,"internal_node_id":"0.0-2.0-11.0"},{"group":"hexagon_bi","room_assignment":["red","grey","yellow","green","blue","purple"],"door_color_assignment":["black","white"],"door_generator_assignment":[0,1],"goal":3,"start":1,"action_noise":0.15,"location_history":"[1,0,5,4,5,4,5,4,3]","action_history":"[1,0,0,1,1,1,1,0]","door_history":"[1,0,0,1,1,1,1,0]","location_rts":"[3029,601,578,303,429,20969,432,407]","trial_type":"two-door-navigation","trial_index":14,"time_elapsed":281256,"internal_node_id":"0.0-2.0-12.0"},{"group":"hexagon_bi","room_assignment":["red","grey","yellow","green","blue","purple"],"door_color_assignment":["black","white"],"door_generator_assignment":[0,1],"goal":5,"start":3,"action_noise":0.15,"location_history":"[3,4,5]","action_history":"[0,1]","door_history":"[0,1]","location_rts":"[664,2975]","trial_type":"two-door-navigation","trial_index":15,"time_elapsed":290432,"internal_node_id":"0.0-2.0-13.0"},{"group":"hexagon_bi","room_assignment":["red","grey","yellow","green","blue","purple"],"door_color_assignment":["black","white"],"door_generator_assignment":[0,1],"goal":4,"start":5,"action_noise":0.15,"location_history":"[5,4]","action_history":"[1]","door_history":"[1]","location_rts":"[582]","trial_type":"two-door-navigation","trial_index":16,"time_elapsed":295532,"internal_node_id":"0.0-2.0-14.0"},{"group":"hexagon_bi","room_assignment":["red","grey","yellow","green","blue","purple"],"door_color_assignment":["black","white"],"door_generator_assignment":[0,1],"goal":0,"start":4,"action_noise":0.15,"location_history":"[4,5,0]","action_history":"[1,0]","door_history":"[1,0]","location_rts":"[1187,356]","trial_type":"two-door-navigation","trial_index":17,"time_elapsed":302609,"internal_node_id":"0.0-2.0-15.0"},{"group":"hexagon_bi","room_assignment":["red","grey","yellow","green","blue","purple"],"door_color_assignment":["black","white"],"door_generator_assignment":[0,1],"goal":3,"start":0,"action_noise":0.15,"location_history":"[0,5,4,5,4,3]","action_history":"[0,1,1,1,0]","door_history":"[0,1,1,1,0]","location_rts":"[659,322,437,772,357]","trial_type":"two-door-navigation","trial_index":18,"time_elapsed":313737,"internal_node_id":"0.0-2.0-16.0"},{"group":"hexagon_bi","room_assignment":["red","grey","yellow","green","blue","purple"],"door_color_assignment":["black","white"],"door_generator_assignment":[0,1],"goal":1,"start":3,"action_noise":0.15,"location_history":"[3,4,5,0,1]","action_history":"[1,1,0,1]","door_history":"[1,1,0,1]","location_rts":"[2016,1496,1249,3728]","trial_type":"two-door-navigation","trial_index":19,"time_elapsed":329791,"internal_node_id":"0.0-2.0-17.0"},{"group":"hexagon_bi","room_assignment":["red","grey","yellow","green","blue","purple"],"door_color_assignment":["black","white"],"door_generator_assignment":[0,1],"goal":5,"start":1,"action_noise":0.15,"location_history":"[1,0,5]","action_history":"[1,0]","door_history":"[1,0]","location_rts":"[1569,2574]","trial_type":"two-door-navigation","trial_index":20,"time_elapsed":339472,"internal_node_id":"0.0-2.0-18.0"},{"group":"hexagon_bi","room_assignment":["red","grey","yellow","green","blue","purple"],"door_color_assignment":["black","white"],"door_generator_assignment":[0,1],"goal":2,"start":5,"action_noise":0.15,"location_history":"[5,0,5,0,5,0,5,0,1,2]","action_history":"[0,1,1,0,0,0,0,1,0]","door_history":"[0,1,1,0,0,0,0,1,0]","location_rts":"[1154,393,987,315,675,436,320,2106,1118]","trial_type":"two-door-navigation","trial_index":21,"time_elapsed":359615,"internal_node_id":"0.0-2.0-19.0"},{"group":"hexagon_bi","room_assignment":["red","grey","yellow","green","blue","purple"],"door_color_assignment":["black","white"],"door_generator_assignment":[0,1],"goal":4,"start":2,"action_noise":0.15,"location_history":"[2,1,0,1,0,1,2,3,4]","action_history":"[0,1,1,0,1,0,1,0]","door_history":"[0,1,1,0,1,0,1,0]","location_rts":"[798,348,601,73,1038,1340,773,818]","trial_type":"two-door-navigation","trial_index":22,"time_elapsed":377027,"internal_node_id":"0.0-2.0-20.0"},{"group":"hexagon_bi","room_assignment":["red","grey","yellow","green","blue","purple"],"door_color_assignment":["black","white"],"door_generator_assignment":[0,1],"goal":1,"start":4,"action_noise":0.15,"location_history":"[4,3,2,1]","action_history":"[0,1,0]","door_history":"[0,1,0]","location_rts":"[1067,317,362]","trial_type":"two-door-navigation","trial_index":23,"time_elapsed":385319,"internal_node_id":"0.0-2.0-21.0"},{"group":"hexagon_bi","room_assignment":["red","grey","yellow","green","blue","purple"],"door_color_assignment":["black","white"],"door_generator_assignment":[0,1],"goal":3,"start":1,"action_noise":0.15,"location_history":"[1,2,3]","action_history":"[0,1]","door_history":"[0,1]","location_rts":"[982,324]","trial_type":"two-door-navigation","trial_index":24,"time_elapsed":392159,"internal_node_id":"0.0-2.0-22.0"},{"group":"hexagon_bi","room_assignment":["red","grey","yellow","green","blue","purple"],"door_color_assignment":["black","white"],"door_generator_assignment":[0,1],"goal":2,"start":3,"action_noise":0.15,"location_history":"[3,4,3,2]","action_history":"[0,0,1]","door_history":"[0,0,1]","location_rts":"[840,475,330]","trial_type":"two-door-navigation","trial_index":25,"time_elapsed":400356,"internal_node_id":"0.0-2.0-23.0"},{"group":"hexagon_bi","room_assignment":["red","grey","yellow","green","blue","purple"],"door_color_assignment":["black","white"],"door_generator_assignment":[0,1],"goal":0,"start":2,"action_noise":0.15,"location_history":"[2,3,4,5,0]","action_history":"[1,0,1,0]","door_history":"[1,0,1,0]","location_rts":"[2021,332,340,322]","trial_type":"two-door-navigation","trial_index":26,"time_elapsed":410934,"internal_node_id":"0.0-2.0-24.0"},{"group":"hexagon_bi","room_assignment":["red","grey","yellow","green","blue","purple"],"door_color_assignment":["black","white"],"door_generator_assignment":[0,1],"goal":5,"start":0,"action_noise":0.15,"location_history":"[0,1,2,3,4,5]","action_history":"[1,0,1,0,1]","door_history":"[1,0,1,0,1]","location_rts":"[1758,437,284,350,444]","trial_type":"two-door-navigation","trial_index":27,"time_elapsed":422787,"internal_node_id":"0.0-2.0-25.0"},{"group":"hexagon_bi","room_assignment":["red","grey","yellow","green","blue","purple"],"door_color_assignment":["black","white"],"door_generator_assignment":[0,1],"goal":2,"start":5,"action_noise":0.15,"location_history":"[5,4,3,2]","action_history":"[1,0,1]","door_history":"[1,0,1]","location_rts":"[5814,272,267]","trial_type":"two-door-navigation","trial_index":28,"time_elapsed":435688,"internal_node_id":"0.0-2.0-26.0"},{"group":"hexagon_bi","room_assignment":["red","grey","yellow","green","blue","purple"],"door_color_assignment":["black","white"],"door_generator_assignment":[0,1],"goal":3,"start":2,"action_noise":0.15,"location_history":"[2,3]","action_history":"[1]","door_history":"[1]","location_rts":"[2079]","trial_type":"two-door-navigation","trial_index":29,"time_elapsed":442290,"internal_node_id":"0.0-2.0-27.0"},{"group":"hexagon_bi","room_assignment":["red","grey","yellow","green","blue","purple"],"door_color_assignment":["black","white"],"door_generator_assignment":[0,1],"goal":0,"start":3,"action_noise":0.15,"location_history":"[3,4,3,4,3,2,1,0]","action_history":"[0,1,0,0,1,0,1]","door_history":"[0,1,0,0,1,0,1]","location_rts":"[834,286,393,593,254,859,377]","trial_type":"two-door-navigation","trial_index":30,"time_elapsed":456501,"internal_node_id":"0.0-2.0-28.0"},{"group":"hexagon_bi","room_assignment":["red","grey","yellow","green","blue","purple"],"door_color_assignment":["black","white"],"door_generator_assignment":[0,1],"goal":1,"start":0,"action_noise":0.15,"location_history":"[0,5,4,3,2,3,2,3,2,1]","action_history":"[0,1,0,1,0,1,1,1,0]","door_history":"[0,1,0,1,0,1,1,1,0]","location_rts":"[778,747,467,429,373,372,481,668,252]","trial_type":"two-door-navigation","trial_index":31,"time_elapsed":473701,"internal_node_id":"0.0-2.0-29.0"},{"group":"hexagon_bi","room_assignment":["red","grey","yellow","green","blue","purple"],"door_color_assignment":["black","white"],"door_generator_assignment":[0,1],"goal":4,"start":1,"action_noise":0.15,"location_history":"[1,0,5,4]","action_history":"[1,0,1]","door_history":"[1,0,1]","location_rts":"[3300,272,390]","trial_type":"two-door-navigation","trial_index":32,"time_elapsed":484213,"internal_node_id":"0.0-2.0-30.0"},{"group":"hexagon_bi","room_assignment":["red","grey","yellow","green","blue","purple"],"door_color_assignment":["black","white"],"door_generator_assignment":[0,1],"goal":5,"start":4,"action_noise":0.15,"location_history":"[4,5]","action_history":"[1]","door_history":"[1]","location_rts":"[1269]","trial_type":"two-door-navigation","trial_index":33,"time_elapsed":490004,"internal_node_id":"0.0-2.0-31.0"},{"group":"hexagon_bi","room_assignment":["red","grey","yellow","green","blue","purple"],"door_color_assignment":["black","white"],"door_generator_assignment":[0,1],"goal":0,"start":5,"action_noise":0.15,"location_history":"[5,4,3,2,1,0]","action_history":"[1,0,1,0,1]","door_history":"[1,0,1,0,1]","location_rts":"[964,360,1184,339,404]","trial_type":"two-door-navigation","trial_index":34,"time_elapsed":501832,"internal_node_id":"0.0-2.0-32.0"},{"group":"hexagon_bi","room_assignment":["red","grey","yellow","green","blue","purple"],"door_color_assignment":["black","white"],"door_generator_assignment":[0,1],"goal":3,"start":0,"action_noise":0.15,"location_history":"[0,1,2,1,2,3]","action_history":"[1,0,1,0,1]","door_history":"[1,0,1,0,1]","location_rts":"[1119,2229,874,318,355]","trial_type":"two-door-navigation","trial_index":35,"time_elapsed":515308,"internal_node_id":"0.0-2.0-33.0"},{"group":"hexagon_bi","room_assignment":["red","grey","yellow","green","blue","purple"],"door_color_assignment":["black","white"],"door_generator_assignment":[0,1],"goal":1,"start":3,"action_noise":0.15,"location_history":"[3,2,1]","action_history":"[1,0]","door_history":"[1,0]","location_rts":"[1088,318]","trial_type":"two-door-navigation","trial_index":36,"time_elapsed":522249,"internal_node_id":"0.0-2.0-34.0"},{"group":"hexagon_bi","room_assignment":["red","grey","yellow","green","blue","purple"],"door_color_assignment":["black","white"],"door_generator_assignment":[0,1],"goal":2,"start":1,"action_noise":0.15,"location_history":"[1,0,1,2]","action_history":"[1,1,0]","door_history":"[1,1,0]","location_rts":"[2707,605,322]","trial_type":"two-door-navigation","trial_index":37,"time_elapsed":532436,"internal_node_id":"0.0-2.0-35.0"},{"group":"hexagon_bi","room_assignment":["red","grey","yellow","green","blue","purple"],"door_color_assignment":["black","white"],"door_generator_assignment":[0,1],"goal":4,"start":2,"action_noise":0.15,"location_history":"[2,1,0,1,2,3,4]","action_history":"[1,0,1,0,1,0]","door_history":"[1,0,1,0,1,0]","location_rts":"[4376,324,320,310,624,437]","trial_type":"two-door-navigation","trial_index":38,"time_elapsed":548423,"internal_node_id":"0.0-2.0-36.0"},{"group":"hexagon_bi","room_assignment":["red","grey","yellow","green","blue","purple"],"door_color_assignment":["black","white"],"door_generator_assignment":[0,1],"goal":5,"start":4,"action_noise":0.15,"location_history":"[4,3,2,3,2,1,2,1,2,1,0,5]","action_history":"[0,1,0,1,0,1,0,0,1,1,0]","door_history":"[0,1,0,1,0,1,0,0,1,1,0]","location_rts":"[904,297,333,2024,303,424,336,596,490,668,556]","trial_type":"two-door-navigation","trial_index":39,"time_elapsed":570026,"internal_node_id":"0.0-2.0-37.0"},{"group":"hexagon_bi","room_assignment":["red","grey","yellow","green","blue","purple"],"door_color_assignment":["black","white"],"door_generator_assignment":[0,1],"goal":1,"start":5,"action_noise":0.15,"location_history":"[5,4,5,4,5,0,1]","action_history":"[1,0,1,0,0,1]","door_history":"[1,0,1,0,0,1]","location_rts":"[3436,295,441,333,836,205]","trial_type":"two-door-navigation","trial_index":40,"time_elapsed":585163,"internal_node_id":"0.0-2.0-38.0"},{"group":"hexagon_bi","room_assignment":["red","grey","yellow","green","blue","purple"],"door_color_assignment":["black","white"],"door_generator_assignment":[0,1],"goal":4,"start":1,"action_noise":0.15,"location_history":"[1,2,3,4]","action_history":"[0,1,0]","door_history":"[0,1,0]","location_rts":"[834,133,618]","trial_type":"two-door-navigation","trial_index":41,"time_elapsed":593294,"internal_node_id":"0.0-2.0-39.0"},{"group":"hexagon_bi","room_assignment":["red","grey","yellow","green","blue","purple"],"door_color_assignment":["black","white"],"door_generator_assignment":[0,1],"goal":3,"start":4,"action_noise":0.15,"location_history":"[4,3]","action_history":"[0]","door_history":"[0]","location_rts":"[1121]","trial_type":"two-door-navigation","trial_index":42,"time_elapsed":598935,"internal_node_id":"0.0-2.0-40.0"},{"group":"hexagon_bi","room_assignment":["red","grey","yellow","green","blue","purple"],"door_color_assignment":["black","white"],"door_generator_assignment":[0,1],"goal":2,"start":3,"action_noise":0.15,"location_history":"[3,2]","action_history":"[0]","door_history":"[0]","location_rts":"[1145]","trial_type":"two-door-navigation","trial_index":43,"time_elapsed":604599,"internal_node_id":"0.0-2.0-41.0"},{"group":"hexagon_bi","room_assignment":["red","grey","yellow","green","blue","purple"],"door_color_assignment":["black","white"],"door_generator_assignment":[0,1],"goal":0,"start":2,"action_noise":0.15,"location_history":"[2,1,0]","action_history":"[0,1]","door_history":"[0,1]","location_rts":"[1112,371]","trial_type":"two-door-navigation","trial_index":44,"time_elapsed":611619,"internal_node_id":"0.0-2.0-42.0"},{"group":"hexagon_bi","room_assignment":["red","grey","yellow","green","blue","purple"],"door_color_assignment":["black","white"],"door_generator_assignment":[0,1],"goal":5,"start":0,"action_noise":0.15,"location_history":"[0,1,2,3,2,1,2,1,0,5]","action_history":"[1,0,1,0,1,0,0,1,0]","door_history":"[1,0,1,0,1,0,0,1,0]","location_rts":"[953,402,323,395,1797,388,534,285,389]","trial_type":"two-door-navigation","trial_index":45,"time_elapsed":629731,"internal_node_id":"0.0-2.0-43.0"},{"group":"hexagon_bi","room_assignment":["red","grey","yellow","green","blue","purple"],"door_color_assignment":["black","white"],"door_generator_assignment":[0,1],"goal":0,"start":5,"action_noise":0.15,"location_history":"[5,4,5,4,3,2,1,0]","action_history":"[1,0,1,0,1,0,1]","door_history":"[1,0,1,0,1,0,1]","location_rts":"[976,351,356,371,832,346,360]","trial_type":"two-door-navigation","trial_index":46,"time_elapsed":643933,"internal_node_id":"0.0-2.0-44.0"},{"group":"hexagon_bi","room_assignment":["red","grey","yellow","green","blue","purple"],"door_color_assignment":["black","white"],"door_generator_assignment":[0,1],"goal":2,"start":0,"action_noise":0.15,"location_history":"[0,1,2]","action_history":"[1,0]","door_history":"[1,0]","location_rts":"[1215,378]","trial_type":"two-door-navigation","trial_index":47,"time_elapsed":651061,"internal_node_id":"0.0-2.0-45.0"},{"group":"hexagon_bi","room_assignment":["red","grey","yellow","green","blue","purple"],"door_color_assignment":["black","white"],"door_generator_assignment":[0,1],"goal":4,"start":2,"action_noise":0.15,"location_history":"[2,3,4]","action_history":"[1,0]","door_history":"[1,0]","location_rts":"[1444,312]","trial_type":"two-door-navigation","trial_index":48,"time_elapsed":658351,"internal_node_id":"0.0-2.0-46.0"},{"group":"hexagon_bi","room_assignment":["red","grey","yellow","green","blue","purple"],"door_color_assignment":["black","white"],"door_generator_assignment":[0,1],"goal":1,"start":4,"action_noise":0.15,"location_history":"[4,3,2,1]","action_history":"[0,1,0]","door_history":"[0,1,0]","location_rts":"[975,268,318]","trial_type":"two-door-navigation","trial_index":49,"time_elapsed":666463,"internal_node_id":"0.0-2.0-47.0"},{"group":"hexagon_bi","room_assignment":["red","grey","yellow","green","blue","purple"],"door_color_assignment":["black","white"],"door_generator_assignment":[0,1],"goal":5,"start":1,"action_noise":0.15,"location_history":"[1,0,5]","action_history":"[1,0]","door_history":"[1,0]","location_rts":"[1320,200]","trial_type":"two-door-navigation","trial_index":50,"time_elapsed":673520,"internal_node_id":"0.0-2.0-48.0"},{"group":"hexagon_bi","room_assignment":["red","grey","yellow","green","blue","purple"],"door_color_assignment":["black","white"],"door_generator_assignment":[0,1],"goal":3,"start":5,"action_noise":0.15,"location_history":"[5,4,5,0,5,0,5,4,3]","action_history":"[0,1,0,1,0,0,1,0]","door_history":"[0,1,0,1,0,0,1,0]","location_rts":"[1112,190,367,1452,328,623,204,617]","trial_type":"two-door-navigation","trial_index":51,"time_elapsed":690042,"internal_node_id":"0.0-2.0-49.0"},{"view_history":"[{\"page_index\":0,\"viewing_time\":1660}]","rt":1660,"trial_type":"instructions","trial_index":52,"time_elapsed":692704,"internal_node_id":"0.0-3.0"},{"view_history":"[{\"page_index\":0,\"viewing_time\":1191},{\"page_index\":1,\"viewing_time\":3426}]","rt":4617,"trial_type":"instructions","trial_index":53,"time_elapsed":698322,"internal_node_id":"0.0-4.0"},{"group":"hexagon_tri","fractal_assignment":["../images/blu_wht.png","../images/ylw_slt.png","../images/pnk_blu.png","../images/cyn_red.png","../images/org_blu.png","../images/gry_blk.png"],"mutagen_generator_assignment":[0,1],"goal":3,"start":5,"action_noise":0.15,"location_history":"[5,4,0,1,5,0,5,4,2,3]","action_history":"[0,1,1,1,0,0,0,1,1]","mutagen_history":"[0,1,1,1,0,0,0,1,1]","location_rts":"[1677,1214,2962,533,738,449,666,455,327]","trial_type":"fractal-mutation","trial_index":54,"time_elapsed":720244,"internal_node_id":"0.0-5.0-0.0"},{"group":"hexagon_tri","fractal_assignment":["../images/blu_wht.png","../images/ylw_slt.png","../images/pnk_blu.png","../images/cyn_red.png","../images/org_blu.png","../images/gry_blk.png"],"mutagen_generator_assignment":[0,1],"goal":1,"start":3,"action_noise":0.15,"location_history":"[3,4,0,5,4,0,1]","action_history":"[1,1,0,0,0,1]","mutagen_history":"[1,1,0,0,0,1]","location_rts":"[695,485,578,184,570,3529]","trial_type":"fractal-mutation","trial_index":55,"time_elapsed":736069,"internal_node_id":"0.0-5.0-1.0"},{"group":"hexagon_tri","fractal_assignment":["../images/blu_wht.png","../images/ylw_slt.png","../images/pnk_blu.png","../images/cyn_red.png","../images/org_blu.png","../images/gry_blk.png"],"mutagen_generator_assignment":[0,1],"goal":0,"start":1,"action_noise":0.15,"location_history":"[1,5,4,0]","action_history":"[0,0,0]","mutagen_history":"[0,0,0]","location_rts":"[2490,402,433]","trial_type":"fractal-mutation","trial_index":56,"time_elapsed":745991,"internal_node_id":"0.0-5.0-2.0"},{"group":"hexagon_tri","fractal_assignment":["../images/blu_wht.png","../images/ylw_slt.png","../images/pnk_blu.png","../images/cyn_red.png","../images/org_blu.png","../images/gry_blk.png"],"mutagen_generator_assignment":[0,1],"goal":3,"start":0,"action_noise":0.15,"location_history":"[0,5,0,1,5,0,1,5,0,1,3]","action_history":"[0,1,0,1,0,1,1,1,1,0]","mutagen_history":"[0,1,0,1,0,1,1,1,1,0]","location_rts":"[976,328,398,607,453,402,512,534,422,726]","trial_type":"fractal-mutation","trial_index":57,"time_elapsed":765212,"internal_node_id":"0.0-5.0-3.0"},{"group":"hexagon_tri","fractal_assignment":["../images/blu_wht.png","../images/ylw_slt.png","../images/pnk_blu.png","../images/cyn_red.png","../images/org_blu.png","../images/gry_blk.png"],"mutagen_generator_assignment":[0,1],"goal":4,"start":3,"action_noise":0.15,"location_history":"[3,2,1,3,2,3,2,1,3,2,3,4]","action_history":"[0,0,0,0,1,0,0,0,0,1,1]","mutagen_history":"[0,0,0,0,1,0,0,0,0,1,1]","location_rts":"[1441,439,498,756,431,531,403,538,930,414,418]","trial_type":"fractal-mutation","trial_index":58,"time_elapsed":786862,"internal_node_id":"0.0-5.0-4.0"},{"group":"hexagon_tri","fractal_assignment":["../images/blu_wht.png","../images/ylw_slt.png","../images/pnk_blu.png","../images/cyn_red.png","../images/org_blu.png","../images/gry_blk.png"],"mutagen_generator_assignment":[0,1],"goal":2,"start":4,"action_noise":0.15,"location_history":"[4,2]","action_history":"[1]","mutagen_history":"[1]","location_rts":"[1411]","trial_type":"fractal-mutation","trial_index":59,"time_elapsed":792818,"internal_node_id":"0.0-5.0-5.0"},{"group":"hexagon_tri","fractal_assignment":["../images/blu_wht.png","../images/ylw_slt.png","../images/pnk_blu.png","../images/cyn_red.png","../images/org_blu.png","../images/gry_blk.png"],"mutagen_generator_assignment":[0,1],"goal":1,"start":2,"action_noise":0.15,"location_history":"[2,1]","action_history":"[1]","mutagen_history":"[1]","location_rts":"[413]","trial_type":"fractal-mutation","trial_index":60,"time_elapsed":797773,"internal_node_id":"0.0-5.0-6.0"},{"group":"hexagon_tri","fractal_assignment":["../images/blu_wht.png","../images/ylw_slt.png","../images/pnk_blu.png","../images/cyn_red.png","../images/org_blu.png","../images/gry_blk.png"],"mutagen_generator_assignment":[0,1],"goal":5,"start":1,"action_noise":0.15,"location_history":"[1,3,4,2,3,2,1,3,2,3,2,1,5]","action_history":"[0,1,1,1,0,0,0,0,1,1,0,1]","mutagen_history":"[0,1,1,1,0,0,0,0,1,1,0,1]","location_rts":"[1128,3038,495,555,390,437,409,679,373,314,687,374]","trial_type":"fractal-mutation","trial_index":61,"time_elapsed":822561,"internal_node_id":"0.0-5.0-7.0"},{"group":"hexagon_tri","fractal_assignment":["../images/blu_wht.png","../images/ylw_slt.png","../images/pnk_blu.png","../images/cyn_red.png","../images/org_blu.png","../images/gry_blk.png"],"mutagen_generator_assignment":[0,1],"goal":4,"start":5,"action_noise":0.15,"location_history":"[5,0,5,0,1,3,2,3,4]","action_history":"[1,0,1,1,0,0,1,1]","mutagen_history":"[1,0,1,1,0,0,1,1]","location_rts":"[963,398,387,287,524,412,738,931]","trial_type":"fractal-mutation","trial_index":62,"time_elapsed":838999,"internal_node_id":"0.0-5.0-8.0"},{"group":"hexagon_tri","fractal_assignment":["../images/blu_wht.png","../images/ylw_slt.png","../images/pnk_blu.png","../images/cyn_red.png","../images/org_blu.png","../images/gry_blk.png"],"mutagen_generator_assignment":[0,1],"goal":2,"start":4,"action_noise":0.15,"location_history":"[4,2]","action_history":"[1]","mutagen_history":"[1]","location_rts":"[1154]","trial_type":"fractal-mutation","trial_index":63,"time_elapsed":844711,"internal_node_id":"0.0-5.0-9.0"},{"group":"hexagon_tri","fractal_assignment":["../images/blu_wht.png","../images/ylw_slt.png","../images/pnk_blu.png","../images/cyn_red.png","../images/org_blu.png","../images/gry_blk.png"],"mutagen_generator_assignment":[0,1],"goal":0,"start":2,"action_noise":0.15,"location_history":"[2,3,4,2,3,4,0]","action_history":"[1,1,1,1,1,0]","mutagen_history":"[1,1,1,1,1,0]","location_rts":"[2253,288,458,536,300,3228]","trial_type":"fractal-mutation","trial_index":64,"time_elapsed":861551,"internal_node_id":"0.0-5.0-10.0"},{"group":"hexagon_tri","fractal_assignment":["../images/blu_wht.png","../images/ylw_slt.png","../images/pnk_blu.png","../images/cyn_red.png","../images/org_blu.png","../images/gry_blk.png"],"mutagen_generator_assignment":[0,1],"goal":1,"start":0,"action_noise":0.15,"location_history":"[0,1]","action_history":"[1]","mutagen_history":"[1]","location_rts":"[944]","trial_type":"fractal-mutation","trial_index":65,"time_elapsed":867046,"internal_node_id":"0.0-5.0-11.0"},{"group":"hexagon_tri","fractal_assignment":["../images/blu_wht.png","../images/ylw_slt.png","../images/pnk_blu.png","../images/cyn_red.png","../images/org_blu.png","../images/gry_blk.png"],"mutagen_generator_assignment":[0,1],"goal":3,"start":1,"action_noise":0.15,"location_history":"[1,5,0,5,4,2,1,5,0,5,0,5,4,0,5,4,2,3]","action_history":"[1,1,1,0,0,0,1,1,0,1,0,0,0,0,0,1,1]","mutagen_history":"[1,1,1,0,0,0,1,1,0,1,0,0,0,0,0,1,1]","location_rts":"[1008,378,361,575,382,401,1044,596,674,545,971,320,2283,654,416,300,389]","trial_type":"fractal-mutation","trial_index":66,"time_elapsed":899430,"internal_node_id":"0.0-5.0-12.0"},{"group":"hexagon_tri","fractal_assignment":["../images/blu_wht.png","../images/ylw_slt.png","../images/pnk_blu.png","../images/cyn_red.png","../images/org_blu.png","../images/gry_blk.png"],"mutagen_generator_assignment":[0,1],"goal":5,"start":3,"action_noise":0.15,"location_history":"[3,2,1,5]","action_history":"[0,0,1]","mutagen_history":"[0,0,1]","location_rts":"[1366,383,475]","trial_type":"fractal-mutation","trial_index":67,"time_elapsed":908266,"internal_node_id":"0.0-5.0-13.0"},{"group":"hexagon_tri","fractal_assignment":["../images/blu_wht.png","../images/ylw_slt.png","../images/pnk_blu.png","../images/cyn_red.png","../images/org_blu.png","../images/gry_blk.png"],"mutagen_generator_assignment":[0,1],"goal":4,"start":5,"action_noise":0.15,"location_history":"[5,4]","action_history":"[0]","mutagen_history":"[0]","location_rts":"[1714]","trial_type":"fractal-mutation","trial_index":68,"time_elapsed":914514,"internal_node_id":"0.0-5.0-14.0"},{"group":"hexagon_tri","fractal_assignment":["../images/blu_wht.png","../images/ylw_slt.png","../images/pnk_blu.png","../images/cyn_red.png","../images/org_blu.png","../images/gry_blk.png"],"mutagen_generator_assignment":[0,1],"goal":0,"start":4,"action_noise":0.15,"location_history":"[4,0]","action_history":"[0]","mutagen_history":"[0]","location_rts":"[1034]","trial_type":"fractal-mutation","trial_index":69,"time_elapsed":920084,"internal_node_id":"0.0-5.0-15.0"},{"group":"hexagon_tri","fractal_assignment":["../images/blu_wht.png","../images/ylw_slt.png","../images/pnk_blu.png","../images/cyn_red.png","../images/org_blu.png","../images/gry_blk.png"],"mutagen_generator_assignment":[0,1],"goal":3,"start":0,"action_noise":0.15,"location_history":"[0,5,4,0,1,3]","action_history":"[0,0,1,1,0]","mutagen_history":"[0,0,1,1,0]","location_rts":"[1032,394,440,3356,785]","trial_type":"fractal-mutation","trial_index":70,"time_elapsed":934764,"internal_node_id":"0.0-5.0-16.0"},{"group":"hexagon_tri","fractal_assignment":["../images/blu_wht.png","../images/ylw_slt.png","../images/pnk_blu.png","../images/cyn_red.png","../images/org_blu.png","../images/gry_blk.png"],"mutagen_generator_assignment":[0,1],"goal":1,"start":3,"action_noise":0.15,"location_history":"[3,4,0,5,0,1]","action_history":"[0,0,0,1,1]","mutagen_history":"[0,0,0,1,1]","location_rts":"[1431,744,357,338,368]","trial_type":"fractal-mutation","trial_index":71,"time_elapsed":946674,"internal_node_id":"0.0-5.0-17.0"},{"group":"hexagon_tri","fractal_assignment":["../images/blu_wht.png","../images/ylw_slt.png","../images/pnk_blu.png","../images/cyn_red.png","../images/org_blu.png","../images/gry_blk.png"],"mutagen_generator_assignment":[0,1],"goal":5,"start":1,"action_noise":0.15,"location_history":"[1,5]","action_history":"[1]","mutagen_history":"[1]","location_rts":"[1633]","trial_type":"fractal-mutation","trial_index":72,"time_elapsed":952854,"internal_node_id":"0.0-5.0-18.0"},{"group":"hexagon_tri","fractal_assignment":["../images/blu_wht.png","../images/ylw_slt.png","../images/pnk_blu.png","../images/cyn_red.png","../images/org_blu.png","../images/gry_blk.png"],"mutagen_generator_assignment":[0,1],"goal":2,"start":5,"action_noise":0.15,"location_history":"[5,0,5,0,1,5,0,5,0,1,5,0,5,4,0,5,0,5,4,2]","action_history":"[1,0,1,1,1,1,1,1,0,1,1,0,0,0,0,0,0,0,1]","mutagen_history":"[1,0,1,1,1,1,1,1,0,1,1,0,0,0,0,0,0,0,1]","location_rts":"[894,634,530,3378,327,660,668,873,2933,788,407,747,291,276,439,305,637,489,633]","trial_type":"fractal-mutation","trial_index":73,"time_elapsed":991928,"internal_node_id":"0.0-5.0-19.0"},{"group":"hexagon_tri","fractal_assignment":["../images/blu_wht.png","../images/ylw_slt.png","../images/pnk_blu.png","../images/cyn_red.png","../images/org_blu.png","../images/gry_blk.png"],"mutagen_generator_assignment":[0,1],"goal":4,"start":2,"action_noise":0.15,"location_history":"[2,1,3,4]","action_history":"[0,0,1]","mutagen_history":"[0,0,1]","location_rts":"[1591,378,682]","trial_type":"fractal-mutation","trial_index":74,"time_elapsed":1001183,"internal_node_id":"0.0-5.0-20.0"},{"group":"hexagon_tri","fractal_assignment":["../images/blu_wht.png","../images/ylw_slt.png","../images/pnk_blu.png","../images/cyn_red.png","../images/org_blu.png","../images/gry_blk.png"],"mutagen_generator_assignment":[0,1],"goal":1,"start":4,"action_noise":0.15,"location_history":"[4,0,1]","action_history":"[1,1]","mutagen_history":"[1,1]","location_rts":"[1256,340]","trial_type":"fractal-mutation","trial_index":75,"time_elapsed":1008362,"internal_node_id":"0.0-5.0-21.0"},{"group":"hexagon_tri","fractal_assignment":["../images/blu_wht.png","../images/ylw_slt.png","../images/pnk_blu.png","../images/cyn_red.png","../images/org_blu.png","../images/gry_blk.png"],"mutagen_generator_assignment":[0,1],"goal":3,"start":1,"action_noise":0.15,"location_history":"[1,5,0,1,3]","action_history":"[1,1,1,0]","mutagen_history":"[1,1,1,0]","location_rts":"[959,341,1091,533]","trial_type":"fractal-mutation","trial_index":76,"time_elapsed":1018935,"internal_node_id":"0.0-5.0-22.0"},{"group":"hexagon_tri","fractal_assignment":["../images/blu_wht.png","../images/ylw_slt.png","../images/pnk_blu.png","../images/cyn_red.png","../images/org_blu.png","../images/gry_blk.png"],"mutagen_generator_assignment":[0,1],"goal":2,"start":3,"action_noise":0.15,"location_history":"[3,4,2]","action_history":"[1,1]","mutagen_history":"[1,1]","location_rts":"[828,413]","trial_type":"fractal-mutation","trial_index":77,"time_elapsed":1025765,"internal_node_id":"0.0-5.0-23.0"},{"group":"hexagon_tri","fractal_assignment":["../images/blu_wht.png","../images/ylw_slt.png","../images/pnk_blu.png","../images/cyn_red.png","../images/org_blu.png","../images/gry_blk.png"],"mutagen_generator_assignment":[0,1],"goal":0,"start":2,"action_noise":0.15,"location_history":"[2,1,5,0]","action_history":"[0,0,1]","mutagen_history":"[0,0,1]","location_rts":"[1855,399,416]","trial_type":"fractal-mutation","trial_index":78,"time_elapsed":1035041,"internal_node_id":"0.0-5.0-24.0"},{"group":"hexagon_tri","fractal_assignment":["../images/blu_wht.png","../images/ylw_slt.png","../images/pnk_blu.png","../images/cyn_red.png","../images/org_blu.png","../images/gry_blk.png"],"mutagen_generator_assignment":[0,1],"goal":5,"start":0,"action_noise":0.15,"location_history":"[0,1,5]","action_history":"[1,1]","mutagen_history":"[1,1]","location_rts":"[3896,365]","trial_type":"fractal-mutation","trial_index":79,"time_elapsed":1044893,"internal_node_id":"0.0-5.0-25.0"},{"group":"hexagon_tri","fractal_assignment":["../images/blu_wht.png","../images/ylw_slt.png","../images/pnk_blu.png","../images/cyn_red.png","../images/org_blu.png","../images/gry_blk.png"],"mutagen_generator_assignment":[0,1],"goal":2,"start":5,"action_noise":0.15,"location_history":"[5,0,5,0,5,4,2]","action_history":"[1,1,0,0,0,1]","mutagen_history":"[1,1,0,0,0,1]","location_rts":"[1014,427,887,1231,631,503]","trial_type":"fractal-mutation","trial_index":80,"time_elapsed":1059298,"internal_node_id":"0.0-5.0-26.0"},{"group":"hexagon_tri","fractal_assignment":["../images/blu_wht.png","../images/ylw_slt.png","../images/pnk_blu.png","../images/cyn_red.png","../images/org_blu.png","../images/gry_blk.png"],"mutagen_generator_assignment":[0,1],"goal":3,"start":2,"action_noise":0.15,"location_history":"[2,1,3]","action_history":"[1,0]","mutagen_history":"[1,0]","location_rts":"[4085,539]","trial_type":"fractal-mutation","trial_index":81,"time_elapsed":1069497,"internal_node_id":"0.0-5.0-27.0"},{"group":"hexagon_tri","fractal_assignment":["../images/blu_wht.png","../images/ylw_slt.png","../images/pnk_blu.png","../images/cyn_red.png","../images/org_blu.png","../images/gry_blk.png"],"mutagen_generator_assignment":[0,1],"goal":0,"start":3,"action_noise":0.15,"location_history":"[3,2,1,5,0]","action_history":"[0,0,1,1]","mutagen_history":"[0,0,1,1]","location_rts":"[1281,490,620,391]","trial_type":"fractal-mutation","trial_index":82,"time_elapsed":1079922,"internal_node_id":"0.0-5.0-28.0"},{"group":"hexagon_tri","fractal_assignment":["../images/blu_wht.png","../images/ylw_slt.png","../images/pnk_blu.png","../images/cyn_red.png","../images/org_blu.png","../images/gry_blk.png"],"mutagen_generator_assignment":[0,1],"goal":1,"start":0,"action_noise":0.15,"location_history":"[0,1]","action_history":"[1]","mutagen_history":"[1]","location_rts":"[901]","trial_type":"fractal-mutation","trial_index":83,"time_elapsed":1085367,"internal_node_id":"0.0-5.0-29.0"},{"group":"hexagon_tri","fractal_assignment":["../images/blu_wht.png","../images/ylw_slt.png","../images/pnk_blu.png","../images/cyn_red.png","../images/org_blu.png","../images/gry_blk.png"],"mutagen_generator_assignment":[0,1],"goal":4,"start":1,"action_noise":0.15,"location_history":"[1,3,4]","action_history":"[0,0]","mutagen_history":"[0,0]","location_rts":"[1715,282]","trial_type":"fractal-mutation","trial_index":84,"time_elapsed":1092933,"internal_node_id":"0.0-5.0-30.0"},{"group":"hexagon_tri","fractal_assignment":["../images/blu_wht.png","../images/ylw_slt.png","../images/pnk_blu.png","../images/cyn_red.png","../images/org_blu.png","../images/gry_blk.png"],"mutagen_generator_assignment":[0,1],"goal":5,"start":4,"action_noise":0.15,"location_history":"[4,2,3,2,1,5]","action_history":"[1,1,0,1,1]","mutagen_history":"[1,1,0,1,1]","location_rts":"[4894,340,591,467,425]","trial_type":"fractal-mutation","trial_index":85,"time_elapsed":1108354,"internal_node_id":"0.0-5.0-31.0"},{"group":"hexagon_tri","fractal_assignment":["../images/blu_wht.png","../images/ylw_slt.png","../images/pnk_blu.png","../images/cyn_red.png","../images/org_blu.png","../images/gry_blk.png"],"mutagen_generator_assignment":[0,1],"goal":0,"start":5,"action_noise":0.15,"location_history":"[5,0]","action_history":"[1]","mutagen_history":"[1]","location_rts":"[1800]","trial_type":"fractal-mutation","trial_index":86,"time_elapsed":1114698,"internal_node_id":"0.0-5.0-32.0"},{"group":"hexagon_tri","fractal_assignment":["../images/blu_wht.png","../images/ylw_slt.png","../images/pnk_blu.png","../images/cyn_red.png","../images/org_blu.png","../images/gry_blk.png"],"mutagen_generator_assignment":[0,1],"goal":3,"start":0,"action_noise":0.15,"location_history":"[0,1,3]","action_history":"[1,0]","mutagen_history":"[1,0]","location_rts":"[990,532]","trial_type":"fractal-mutation","trial_index":87,"time_elapsed":1121793,"internal_node_id":"0.0-5.0-33.0"},{"group":"hexagon_tri","fractal_assignment":["../images/blu_wht.png","../images/ylw_slt.png","../images/pnk_blu.png","../images/cyn_red.png","../images/org_blu.png","../images/gry_blk.png"],"mutagen_generator_assignment":[0,1],"goal":1,"start":3,"action_noise":0.15,"location_history":"[3,2,1]","action_history":"[0,0]","mutagen_history":"[0,0]","location_rts":"[3214,378]","trial_type":"fractal-mutation","trial_index":88,"time_elapsed":1130933,"internal_node_id":"0.0-5.0-34.0"},{"group":"hexagon_tri","fractal_assignment":["../images/blu_wht.png","../images/ylw_slt.png","../images/pnk_blu.png","../images/cyn_red.png","../images/org_blu.png","../images/gry_blk.png"],"mutagen_generator_assignment":[0,1],"goal":2,"start":1,"action_noise":0.15,"location_history":"[1,3,2]","action_history":"[0,0]","mutagen_history":"[0,0]","location_rts":"[1325,381]","trial_type":"fractal-mutation","trial_index":89,"time_elapsed":1138200,"internal_node_id":"0.0-5.0-35.0"},{"group":"hexagon_tri","fractal_assignment":["../images/blu_wht.png","../images/ylw_slt.png","../images/pnk_blu.png","../images/cyn_red.png","../images/org_blu.png","../images/gry_blk.png"],"mutagen_generator_assignment":[0,1],"goal":4,"start":2,"action_noise":0.15,"location_history":"[2,3,4]","action_history":"[1,1]","mutagen_history":"[1,1]","location_rts":"[2357,801]","trial_type":"fractal-mutation","trial_index":90,"time_elapsed":1146941,"internal_node_id":"0.0-5.0-36.0"},{"group":"hexagon_tri","fractal_assignment":["../images/blu_wht.png","../images/ylw_slt.png","../images/pnk_blu.png","../images/cyn_red.png","../images/org_blu.png","../images/gry_blk.png"],"mutagen_generator_assignment":[0,1],"goal":5,"start":4,"action_noise":0.15,"location_history":"[4,0,1,3,2,1,3,4,2,3,4,2,1,5]","action_history":"[0,0,0,0,0,0,1,1,1,1,0,0,1]","mutagen_history":"[0,0,0,0,0,0,1,1,1,1,0,0,1]","location_rts":"[1750,407,841,435,492,525,530,369,511,965,405,452,464]","trial_type":"fractal-mutation","trial_index":91,"time_elapsed":1172019,"internal_node_id":"0.0-5.0-37.0"},{"group":"hexagon_tri","fractal_assignment":["../images/blu_wht.png","../images/ylw_slt.png","../images/pnk_blu.png","../images/cyn_red.png","../images/org_blu.png","../images/gry_blk.png"],"mutagen_generator_assignment":[0,1],"goal":1,"start":5,"action_noise":0.15,"location_history":"[5,0,1]","action_history":"[1,1]","mutagen_history":"[1,1]","location_rts":"[1786,337]","trial_type":"fractal-mutation","trial_index":92,"time_elapsed":1179729,"internal_node_id":"0.0-5.0-38.0"},{"group":"hexagon_tri","fractal_assignment":["../images/blu_wht.png","../images/ylw_slt.png","../images/pnk_blu.png","../images/cyn_red.png","../images/org_blu.png","../images/gry_blk.png"],"mutagen_generator_assignment":[0,1],"goal":4,"start":1,"action_noise":0.15,"location_history":"[1,3,2,3,4]","action_history":"[0,0,1,1]","mutagen_history":"[0,0,1,1]","location_rts":"[1421,349,634,418]","trial_type":"fractal-mutation","trial_index":93,"time_elapsed":1190190,"internal_node_id":"0.0-5.0-39.0"},{"group":"hexagon_tri","fractal_assignment":["../images/blu_wht.png","../images/ylw_slt.png","../images/pnk_blu.png","../images/cyn_red.png","../images/org_blu.png","../images/gry_blk.png"],"mutagen_generator_assignment":[0,1],"goal":3,"start":4,"action_noise":0.15,"location_history":"[4,2,1,3]","action_history":"[1,1,0]","mutagen_history":"[1,1,0]","location_rts":"[1721,330,884]","trial_type":"fractal-mutation","trial_index":94,"time_elapsed":1199740,"internal_node_id":"0.0-5.0-40.0"},{"group":"hexagon_tri","fractal_assignment":["../images/blu_wht.png","../images/ylw_slt.png","../images/pnk_blu.png","../images/cyn_red.png","../images/org_blu.png","../images/gry_blk.png"],"mutagen_generator_assignment":[0,1],"goal":2,"start":3,"action_noise":0.15,"location_history":"[3,4,2]","action_history":"[1,1]","mutagen_history":"[1,1]","location_rts":"[1131,333]","trial_type":"fractal-mutation","trial_index":95,"time_elapsed":1206792,"internal_node_id":"0.0-5.0-41.0"},{"group":"hexagon_tri","fractal_assignment":["../images/blu_wht.png","../images/ylw_slt.png","../images/pnk_blu.png","../images/cyn_red.png","../images/org_blu.png","../images/gry_blk.png"],"mutagen_generator_assignment":[0,1],"goal":0,"start":2,"action_noise":0.15,"location_history":"[2,1,3,4,2,1,3,4,2,3,4,2,1,3,2,3,4,2,3,4,0]","action_history":"[0,0,1,1,0,0,0,0,1,1,1,0,0,0,1,1,1,1,1,0]","mutagen_history":"[0,0,1,1,0,0,0,0,1,1,1,0,0,0,1,1,1,1,1,0]","location_rts":"[3081,391,338,406,432,520,403,670,2541,247,376,328,378,433,576,269,360,419,171,361]","trial_type":"fractal-mutation","trial_index":96,"time_elapsed":1243687,"internal_node_id":"0.0-5.0-42.0"},{"group":"hexagon_tri","fractal_assignment":["../images/blu_wht.png","../images/ylw_slt.png","../images/pnk_blu.png","../images/cyn_red.png","../images/org_blu.png","../images/gry_blk.png"],"mutagen_generator_assignment":[0,1],"goal":5,"start":0,"action_noise":0.15,"location_history":"[0,1,3,4,2,3,4,0,5]","action_history":"[1,1,1,1,1,0,0,0]","mutagen_history":"[1,1,1,1,1,0,0,0]","location_rts":"[1748,370,355,446,717,623,372,445]","trial_type":"fractal-mutation","trial_index":97,"time_elapsed":1260563,"internal_node_id":"0.0-5.0-43.0"},{"group":"hexagon_tri","fractal_assignment":["../images/blu_wht.png","../images/ylw_slt.png","../images/pnk_blu.png","../images/cyn_red.png","../images/org_blu.png","../images/gry_blk.png"],"mutagen_generator_assignment":[0,1],"goal":0,"start":5,"action_noise":0.15,"location_history":"[5,4,0]","action_history":"[0,0]","mutagen_history":"[0,0]","location_rts":"[3391,383]","trial_type":"fractal-mutation","trial_index":98,"time_elapsed":1269901,"internal_node_id":"0.0-5.0-44.0"},{"group":"hexagon_tri","fractal_assignment":["../images/blu_wht.png","../images/ylw_slt.png","../images/pnk_blu.png","../images/cyn_red.png","../images/org_blu.png","../images/gry_blk.png"],"mutagen_generator_assignment":[0,1],"goal":2,"start":0,"action_noise":0.15,"location_history":"[0,5,0,1,3,4,0,1,5,4,0,5,0,1,5,0,1,3,2]","action_history":"[0,0,1,1,1,0,0,0,0,0,0,1,1,1,1,1,0,0]","mutagen_history":"[0,0,1,1,1,0,0,0,0,0,0,1,1,1,1,1,0,0]","location_rts":"[1525,3583,479,420,489,709,1171,383,509,980,369,445,336,386,381,836,636,396]","trial_type":"fractal-mutation","trial_index":99,"time_elapsed":1306097,"internal_node_id":"0.0-5.0-45.0"},{"group":"hexagon_tri","fractal_assignment":["../images/blu_wht.png","../images/ylw_slt.png","../images/pnk_blu.png","../images/cyn_red.png","../images/org_blu.png","../images/gry_blk.png"],"mutagen_generator_assignment":[0,1],"goal":4,"start":2,"action_noise":0.15,"location_history":"[2,1,3,4]","action_history":"[0,0,1]","mutagen_history":"[0,0,1]","location_rts":"[1252,276,600]","trial_type":"fractal-mutation","trial_index":100,"time_elapsed":1314829,"internal_node_id":"0.0-5.0-46.0"},{"group":"hexagon_tri","fractal_assignment":["../images/blu_wht.png","../images/ylw_slt.png","../images/pnk_blu.png","../images/cyn_red.png","../images/org_blu.png","../images/gry_blk.png"],"mutagen_generator_assignment":[0,1],"goal":1,"start":4,"action_noise":0.15,"location_history":"[4,0,5,4,2,3,4,2,1]","action_history":"[0,0,0,1,1,1,1,0]","mutagen_history":"[0,0,0,1,1,1,1,0]","location_rts":"[1328,326,560,771,322,390,1052,1558]","trial_type":"fractal-mutation","trial_index":101,"time_elapsed":1332916,"internal_node_id":"0.0-5.0-47.0"},{"group":"hexagon_tri","fractal_assignment":["../images/blu_wht.png","../images/ylw_slt.png","../images/pnk_blu.png","../images/cyn_red.png","../images/org_blu.png","../images/gry_blk.png"],"mutagen_generator_assignment":[0,1],"goal":5,"start":1,"action_noise":0.15,"location_history":"[1,3,2,3,4,0,5]","action_history":"[0,1,1,1,0,0]","mutagen_history":"[0,1,1,1,0,0]","location_rts":"[1040,644,443,360,513,1100]","trial_type":"fractal-mutation","trial_index":102,"time_elapsed":1346745,"internal_node_id":"0.0-5.0-48.0"},{"group":"hexagon_tri","fractal_assignment":["../images/blu_wht.png","../images/ylw_slt.png","../images/pnk_blu.png","../images/cyn_red.png","../images/org_blu.png","../images/gry_blk.png"],"mutagen_generator_assignment":[0,1],"goal":3,"start":5,"action_noise":0.15,"location_history":"[5,0,1,5,0,5,4,2,3]","action_history":"[1,1,1,1,0,0,1,1]","mutagen_history":"[1,1,1,1,0,0,1,1]","location_rts":"[1632,397,347,696,1307,112,257,375]","trial_type":"fractal-mutation","trial_index":103,"time_elapsed":1363682,"internal_node_id":"0.0-5.0-49.0"},{"view_history":"[{\"page_index\":0,\"viewing_time\":2770}]","rt":2771,"trial_type":"instructions","trial_index":104,"time_elapsed":1367454,"internal_node_id":"0.0-6.0"},{"rt":1521,"responses":"{\"Q0\":\"\"}","trial_type":"survey-text","trial_index":105,"time_elapsed":1369980,"internal_node_id":"0.0-7.0"}]