[{"view_history":"[{\"page_index\":0,\"viewing_time\":3298},{\"page_index\":1,\"viewing_time\":1407}]","rt":4706,"trial_type":"instructions","trial_index":0,"time_elapsed":4706,"internal_node_id":"0.0-0.0"},{"view_history":"[{\"page_index\":0,\"viewing_time\":829},{\"page_index\":1,\"viewing_time\":1048}]","rt":1878,"trial_type":"instructions","trial_index":1,"time_elapsed":7589,"internal_node_id":"0.0-1.0"},{"group":"hexagon_bi","room_assignment":["purple","blue","red","green","yellow","grey"],"door_color_assignment":["black","white"],"door_generator_assignment":[1,0],"goal":3,"start":5,"action_noise":0.15,"location_history":"[5,0,1,2,1,0,5,0,5,4,5,0,5,0,5,0,5,0,5,0,1,2,3]","action_history":"[0,1,0,1,1,0,0,1,1,0,0,0,0,1,1,0,0,0,1,1,0,1]","door_history":"[1,0,1,0,0,1,1,0,0,1,1,1,1,0,0,1,1,1,0,0,1,0]","location_rts":"[1055,399,211,316,753,290,558,356,794,977,607,315,283,446,337,327,202,331,71,3092,719,349]","trial_type":"two-door-navigation","trial_index":2,"time_elapsed":45980,"internal_node_id":"0.0-2.0-0.0"},{"group":"hexagon_bi","room_assignment":["purple","blue","red","green","yellow","grey"],"door_color_assignment":["black","white"],"door_generator_assignment":[1,0],"goal":1,"start":3,"action_noise":0.15,"location_history":"[3,2,3,4,5,4,5,4,5,0,5,0,1]","action_history":"[1,0,0,0,1,1,1,1,0,1,0,1]","door_history":"[0,1,1,1,0,0,0,0,1,0,1,0]","location_rts":"[1958,353,460,503,534,578,1000,410,49,336,1635,1205]","trial_type":"two-door-navigation","trial_index":3,"time_elapsed":70538,"internal_node_id":"0.0-2.0-1.0"},{"group":"hexagon_bi","room_assignment":["purple","blue","red","green","yellow","grey"],"door_color_assignment":["black","white"],"door_generator_assignment":[1,0],"goal":0,"start":1,"action_noise":0.15,"location_history":"[1,2,1,0]","action_history":"[0,0,1]","door_history":"[1,1,0]","location_rts":"[1699,1675,1082]","trial_type":"two-door-navigation","trial_index":4,"time_elapsed":81506,"internal_node_id":"0.0-2.0-2.0"},{"group":"hexagon_bi","room_assignment":["purple","blue","red","green","yellow","grey"],"door_color_assignment":["black","white"],"door_generator_assignment":[1,0],"goal":3,"start":0,"action_noise":0.15,"location_history":"[0,1,2,3]","action_history":"[1,0,1]","door_history":"[0,1,0]","location_rts":"[1159,1179,321]","trial_type":"two-door-navigation","trial_index":5,"time_elapsed":90679,"internal_node_id":"0.0-2.0-3.0"},{"group":"hexagon_bi","room_assignment":["purple","blue","red","green","yellow","grey"],"door_color_assignment":["black","white"],"door_generator_assignment":[1,0],"goal":4,"start":3,"action_noise":0.15,"location_history":"[3,4]","action_history":"[0]","door_history":"[1]","location_rts":"[2028]","trial_type":"two-door-navigation","trial_index":6,"time_elapsed":97211,"internal_node_id":"0.0-2.0-4.0"},{"group":"hexagon_bi","room_assignment":["purple","blue","red","green","yellow","grey"],"door_color_assignment":["black","white"],"door_generator_assignment":[1,0],"goal":2,"start":4,"action_noise":0.15,"location_history":"[4,5,4,3,4,3,2]","action_history":"[1,1,1,0,0,1]","door_history":"[0,0,0,1,1,0]","location_rts":"[1635,547,346,1079,606,639]","trial_type":"two-door-navigation","trial_index":7,"time_elapsed":111588,"internal_node_id":"0.0-2.0-5.0"},{"group":"hexagon_bi","room_assignment":["purple","blue","red","green","yellow","grey"],"door_color_assignment":["black","white"],"door_generator_assignment":[1,0],"goal":1,"start":2,"action_noise":0.15,"location_history":"[2,3,2,3,2,1]","action_history":"[1,1,0,0,0]","door_history":"[0,0,1,1,1]","location_rts":"[2233,398,320,619,514]","trial_type":"two-door-navigation","trial_index":8,"time_elapsed":124219,"internal_node_id":"0.0-2.0-6.0"},{"group":"hexagon_bi","room_assignment":["purple","blue","red","green","yellow","grey"],"door_color_assignment":["black","white"],"door_generator_assignment":[1,0],"goal":5,"start":1,"action_noise":0.15,"location_history":"[1,0,5]","action_history":"[1,0]","door_history":"[0,1]","location_rts":"[1588,401]","trial_type":"two-door-navigation","trial_index":9,"time_elapsed":131716,"internal_node_id":"0.0-2.0-7.0"},{"group":"hexagon_bi","room_assignment":["purple","blue","red","green","yellow","grey"],"door_color_assignment":["black","white"],"door_generator_assignment":[1,0],"goal":4,"start":5,"action_noise":0.15,"location_history":"[5,0,5,0,5,4]","action_history":"[0,0,0,0,1]","door_history":"[1,1,1,1,0]","location_rts":"[1585,35,292,292,356]","trial_type":"two-door-navigation","trial_index":10,"time_elapsed":142787,"internal_node_id":"0.0-2.0-8.0"},{"group":"hexagon_bi","room_assignment":["purple","blue","red","green","yellow","grey"],"door_color_assignment":["black","white"],"door_generator_assignment":[1,0],"goal":2,"start":4,"action_noise":0.15,"location_history":"[4,3,2]","action_history":"[0,1]","door_history":"[1,0]","location_rts":"[1937,284]","trial_type":"two-door-navigation","trial_index":11,"time_elapsed":150512,"internal_node_id":"0.0-2.0-9.0"},{"group":"hexagon_bi","room_assignment":["purple","blue","red","green","yellow","grey"],"door_color_assignment":["black","white"],"door_generator_assignment":[1,0],"goal":0,"start":2,"action_noise":0.15,"location_history":"[2,1,0]","action_history":"[0,1]","door_history":"[1,0]","location_rts":"[1469,24]","trial_type":"two-door-navigation","trial_index":12,"time_elapsed":157512,"internal_node_id":"0.0-2.0-10.0"},{"group":"hexagon_bi","room_assignment":["purple","blue","red","green","yellow","grey"],"door_color_assignment":["black","white"],"door_generator_assignment":[1,0],"goal":1,"start":0,"action_noise":0.15,"location_history":"[0,5,0,1]","action_history":"[0,0,1]","door_history":"[1,1,0]","location_rts":"[1774,1392,344]","trial_type":"two-door-navigation","trial_index":13,"time_elapsed":167529,"internal_node_id":"0.0-2.0-11.0"},{"group":"hexagon_bi","room_assignment":["purple","blue","red","green","yellow","grey"],"door_color_assignment":["black","white"],"door_generator_assignment":[1,0],"goal":3,"start":1,"action_noise":0.15,"location_history":"[1,2,1,2,1,2,3]","action_history":"[0,1,0,1,0,1]","door_history":"[1,0,1,0,1,0]","location_rts":"[1810,452,1805,470,478,525]","trial_type":"two-door-navigation","trial_index":14,"time_elapsed":182585,"internal_node_id":"0.0-2.0-12.0"},{"group":"hexagon_bi","room_assignment":["purple","blue","red","green","yellow","grey"],"door_color_assignment":["black","white"],"door_generator_assignment":[1,0],"goal":5,"start":3,"action_noise":0.15,"location_history":"[3,4,3,2,3,4,5]","action_history":"[0,1,1,1,0,1]","door_history":"[1,0,0,0,1,0]","location_rts":"[1486,344,1151,897,596,1697]","trial_type":"two-door-navigation","trial_index":15,"time_elapsed":198288,"internal_node_id":"0.0-2.0-13.0"},{"group":"hexagon_bi","room_assignment":["purple","blue","red","green","yellow","grey"],"door_color_assignment":["black","white"],"door_generator_assignment":[1,0],"goal":4,"start":5,"action_noise":0.15,"location_history":"[5,0,5,4]","action_history":"[0,0,1]","door_history":"[1,1,0]","location_rts":"[1817,974,376]","trial_type":"two-door-navigation","trial_index":16,"time_elapsed":207960,"internal_node_id":"0.0-2.0-14.0"},{"group":"hexagon_bi","room_assignment":["purple","blue","red","green","yellow","grey"],"door_color_assignment":["black","white"],"door_generator_assignment":[1,0],"goal":0,"start":4,"action_noise":0.15,"location_history":"[4,5,0]","action_history":"[1,0]","door_history":"[0,1]","location_rts":"[1484,1487]","trial_type":"two-door-navigation","trial_index":17,"time_elapsed":216437,"internal_node_id":"0.0-2.0-15.0"},{"group":"hexagon_bi","room_assignment":["purple","blue","red","green","yellow","grey"],"door_color_assignment":["black","white"],"door_generator_assignment":[1,0],"goal":3,"start":0,"action_noise":0.15,"location_history":"[0,5,4,5,0,5,0,1,0,1,2,3]","action_history":"[0,1,0,0,0,1,1,0,0,0,1]","door_history":"[1,0,1,1,1,0,0,1,1,1,0]","location_rts":"[1029,463,867,508,1390,331,746,417,813,331,1306]","trial_type":"two-door-navigation","trial_index":18,"time_elapsed":239184,"internal_node_id":"0.0-2.0-16.0"},{"group":"hexagon_bi","room_assignment":["purple","blue","red","green","yellow","grey"],"door_color_assignment":["black","white"],"door_generator_assignment":[1,0],"goal":1,"start":3,"action_noise":0.15,"location_history":"[3,2,3,4,3,4,3,2,1]","action_history":"[0,1,0,0,0,0,1,0]","door_history":"[1,0,1,1,1,1,0,1]","location_rts":"[1158,846,651,395,391,360,286,297]","trial_type":"two-door-navigation","trial_index":19,"time_elapsed":255122,"internal_node_id":"0.0-2.0-17.0"},{"group":"hexagon_bi","room_assignment":["purple","blue","red","green","yellow","grey"],"door_color_assignment":["black","white"],"door_generator_assignment":[1,0],"goal":5,"start":1,"action_noise":0.15,"location_history":"[1,2,3,2,1,2,1,2,3,4,3,4,5]","action_history":"[0,0,1,0,0,0,1,1,0,0,0,1]","door_history":"[1,1,0,1,1,1,0,0,1,1,1,0]","location_rts":"[1335,1274,672,365,620,301,350,861,635,419,445,390]","trial_type":"two-door-navigation","trial_index":20,"time_elapsed":278342,"internal_node_id":"0.0-2.0-18.0"},{"group":"hexagon_bi","room_assignment":["purple","blue","red","green","yellow","grey"],"door_color_assignment":["black","white"],"door_generator_assignment":[1,0],"goal":2,"start":5,"action_noise":0.15,"location_history":"[5,0,5,0,5,4,5,4,3,4,3,2]","action_history":"[1,0,0,1,1,0,0,1,0,0,1]","door_history":"[0,1,1,0,0,1,1,0,1,1,0]","location_rts":"[1481,689,1415,746,779,1306,1207,711,944,1086,303]","trial_type":"two-door-navigation","trial_index":21,"time_elapsed":303574,"internal_node_id":"0.0-2.0-19.0"},{"group":"hexagon_bi","room_assignment":["purple","blue","red","green","yellow","grey"],"door_color_assignment":["black","white"],"door_generator_assignment":[1,0],"goal":4,"start":2,"action_noise":0.15,"location_history":"[2,3,2,3,2,1,2,1,2,3,4]","action_history":"[0,1,1,0,0,0,0,0,1,0]","door_history":"[1,0,0,1,1,1,1,1,0,1]","location_rts":"[1648,2269,837,456,499,467,872,572,758,622]","trial_type":"two-door-navigation","trial_index":22,"time_elapsed":326106,"internal_node_id":"0.0-2.0-20.0"},{"group":"hexagon_bi","room_assignment":["purple","blue","red","green","yellow","grey"],"door_color_assignment":["black","white"],"door_generator_assignment":[1,0],"goal":1,"start":4,"action_noise":0.15,"location_history":"[4,5,0,1]","action_history":"[1,0,1]","door_history":"[0,1,0]","location_rts":"[1109,552,467]","trial_type":"two-door-navigation","trial_index":23,"time_elapsed":334749,"internal_node_id":"0.0-2.0-21.0"},{"group":"hexagon_bi","room_assignment":["purple","blue","red","green","yellow","grey"],"door_color_assignment":["black","white"],"door_generator_assignment":[1,0],"goal":3,"start":1,"action_noise":0.15,"location_history":"[1,0,5,4,3]","action_history":"[1,0,1,0]","door_history":"[0,1,0,1]","location_rts":"[2601,292,455,897]","trial_type":"two-door-navigation","trial_index":24,"time_elapsed":346500,"internal_node_id":"0.0-2.0-22.0"},{"group":"hexagon_bi","room_assignment":["purple","blue","red","green","yellow","grey"],"door_color_assignment":["black","white"],"door_generator_assignment":[1,0],"goal":2,"start":3,"action_noise":0.15,"location_history":"[3,2]","action_history":"[1]","door_history":"[0]","location_rts":"[1570]","trial_type":"two-door-navigation","trial_index":25,"time_elapsed":352575,"internal_node_id":"0.0-2.0-23.0"},{"group":"hexagon_bi","room_assignment":["purple","blue","red","green","yellow","grey"],"door_color_assignment":["black","white"],"door_generator_assignment":[1,0],"goal":0,"start":2,"action_noise":0.15,"location_history":"[2,1,0]","action_history":"[0,1]","door_history":"[1,0]","location_rts":"[744,433]","trial_type":"two-door-navigation","trial_index":26,"time_elapsed":359266,"internal_node_id":"0.0-2.0-24.0"},{"group":"hexagon_bi","room_assignment":["purple","blue","red","green","yellow","grey"],"door_color_assignment":["black","white"],"door_generator_assignment":[1,0],"goal":5,"start":0,"action_noise":0.15,"location_history":"[0,5]","action_history":"[0]","door_history":"[1]","location_rts":"[1394]","trial_type":"two-door-navigation","trial_index":27,"time_elapsed":365162,"internal_node_id":"0.0-2.0-25.0"},{"group":"hexagon_bi","room_assignment":["purple","blue","red","green","yellow","grey"],"door_color_assignment":["black","white"],"door_generator_assignment":[1,0],"goal":2,"start":5,"action_noise":0.15,"location_history":"[5,4,3,4,3,4,5,4,3,2]","action_history":"[1,0,0,0,1,1,1,0,1]","door_history":"[0,1,1,1,0,0,0,1,0]","location_rts":"[1742,804,324,821,1139,3486,853,574,274]","trial_type":"two-door-navigation","trial_index":28,"time_elapsed":387727,"internal_node_id":"0.0-2.0-26.0"},{"group":"hexagon_bi","room_assignment":["purple","blue","red","green","yellow","grey"],"door_color_assignment":["black","white"],"door_generator_assignment":[1,0],"goal":3,"start":2,"action_noise":0.15,"location_history":"[2,1,2,1,2,1,2,3]","action_history":"[1,1,0,0,1,0,1]","door_history":"[0,0,1,1,0,1,0]","location_rts":"[1152,993,404,1029,620,898,751]","trial_type":"two-door-navigation","trial_index":29,"time_elapsed":404094,"internal_node_id":"0.0-2.0-27.0"},{"group":"hexagon_bi","room_assignment":["purple","blue","red","green","yellow","grey"],"door_color_assignment":["black","white"],"door_generator_assignment":[1,0],"goal":0,"start":3,"action_noise":0.15,"location_history":"[3,4,3,4,3,4,5,0]","action_history":"[0,0,1,0,0,1,0]","door_history":"[1,1,0,1,1,0,1]","location_rts":"[1222,819,887,633,604,360,2496]","trial_type":"two-door-navigation","trial_index":30,"time_elapsed":421630,"internal_node_id":"0.0-2.0-28.0"},{"group":"hexagon_bi","room_assignment":["purple","blue","red","green","yellow","grey"],"door_color_assignment":["black","white"],"door_generator_assignment":[1,0],"goal":1,"start":0,"action_noise":0.15,"location_history":"[0,5,0,1]","action_history":"[0,0,1]","door_history":"[1,1,0]","location_rts":"[1132,553,340]","trial_type":"two-door-navigation","trial_index":31,"time_elapsed":430158,"internal_node_id":"0.0-2.0-29.0"},{"group":"hexagon_bi","room_assignment":["purple","blue","red","green","yellow","grey"],"door_color_assignment":["black","white"],"door_generator_assignment":[1,0],"goal":4,"start":1,"action_noise":0.15,"location_history":"[1,2,3,4]","action_history":"[0,1,0]","door_history":"[1,0,1]","location_rts":"[1045,1626,277]","trial_type":"two-door-navigation","trial_index":32,"time_elapsed":439618,"internal_node_id":"0.0-2.0-30.0"},{"group":"hexagon_bi","room_assignment":["purple","blue","red","green","yellow","grey"],"door_color_assignment":["black","white"],"door_generator_assignment":[1,0],"goal":5,"start":4,"action_noise":0.15,"location_history":"[4,3,4,5]","action_history":"[0,0,1]","door_history":"[1,1,0]","location_rts":"[9499,4792,726]","trial_type":"two-door-navigation","trial_index":33,"time_elapsed":461140,"internal_node_id":"0.0-2.0-31.0"},{"group":"hexagon_bi","room_assignment":["purple","blue","red","green","yellow","grey"],"door_color_assignment":["black","white"],"door_generator_assignment":[1,0],"goal":0,"start":5,"action_noise":0.15,"location_history":"[5,4,3,4,5,4,3,2,1,0]","action_history":"[1,0,0,1,1,1,1,0,1]","door_history":"[0,1,1,0,0,0,0,1,0]","location_rts":"[3885,16175,21586,280,765,371,670,381,593]","trial_type":"two-door-navigation","trial_index":34,"time_elapsed":518367,"internal_node_id":"0.0-2.0-32.0"},{"group":"hexagon_bi","room_assignment":["purple","blue","red","green","yellow","grey"],"door_color_assignment":["black","white"],"door_generator_assignment":[1,0],"goal":3,"start":0,"action_noise":0.15,"location_history":"[0,5,4,5,0,5,4,5,4,3]","action_history":"[0,1,0,0,0,0,1,0,0]","door_history":"[1,0,1,1,1,1,0,1,1]","location_rts":"[2823,920,1465,700,544,288,844,974,190]","trial_type":"two-door-navigation","trial_index":35,"time_elapsed":539640,"internal_node_id":"0.0-2.0-33.0"},{"group":"hexagon_bi","room_assignment":["purple","blue","red","green","yellow","grey"],"door_color_assignment":["black","white"],"door_generator_assignment":[1,0],"goal":1,"start":3,"action_noise":0.15,"location_history":"[3,4,5,4,5,0,1]","action_history":"[0,1,1,1,0,1]","door_history":"[1,0,0,0,1,0]","location_rts":"[4328,454,769,458,472,889]","trial_type":"two-door-navigation","trial_index":36,"time_elapsed":556534,"internal_node_id":"0.0-2.0-34.0"},{"group":"hexagon_bi","room_assignment":["purple","blue","red","green","yellow","grey"],"door_color_assignment":["black","white"],"door_generator_assignment":[1,0],"goal":2,"start":1,"action_noise":0.15,"location_history":"[1,0,5,0,1,2]","action_history":"[1,0,0,0,1]","door_history":"[0,1,1,1,0]","location_rts":"[2644,25690,12594,560,257]","trial_type":"two-door-navigation","trial_index":37,"time_elapsed":607043,"internal_node_id":"0.0-2.0-35.0"},{"group":"hexagon_bi","room_assignment":["purple","blue","red","green","yellow","grey"],"door_color_assignment":["black","white"],"door_generator_assignment":[1,0],"goal":4,"start":2,"action_noise":0.15,"location_history":"[2,3,2,3,4]","action_history":"[0,1,1,0]","door_history":"[1,0,0,1]","location_rts":"[2311,1092,613,365]","trial_type":"two-door-navigation","trial_index":38,"time_elapsed":618941,"internal_node_id":"0.0-2.0-36.0"},{"group":"hexagon_bi","room_assignment":["purple","blue","red","green","yellow","grey"],"door_color_assignment":["black","white"],"door_generator_assignment":[1,0],"goal":5,"start":4,"action_noise":0.15,"location_history":"[4,3,4,5]","action_history":"[0,0,1]","door_history":"[1,1,0]","location_rts":"[717,839,291]","trial_type":"two-door-navigation","trial_index":39,"time_elapsed":627296,"internal_node_id":"0.0-2.0-37.0"},{"group":"hexagon_bi","room_assignment":["purple","blue","red","green","yellow","grey"],"door_color_assignment":["black","white"],"door_generator_assignment":[1,0],"goal":1,"start":5,"action_noise":0.15,"location_history":"[5,0,1]","action_history":"[1,1]","door_history":"[0,0]","location_rts":"[4511,512]","trial_type":"two-door-navigation","trial_index":40,"time_elapsed":637934,"internal_node_id":"0.0-2.0-38.0"},{"group":"hexagon_bi","room_assignment":["purple","blue","red","green","yellow","grey"],"door_color_assignment":["black","white"],"door_generator_assignment":[1,0],"goal":4,"start":1,"action_noise":0.15,"location_history":"[1,0,1,2,1,2,3,4]","action_history":"[1,0,0,0,0,1,0]","door_history":"[0,1,1,1,1,0,1]","location_rts":"[6818,1118,390,681,461,932,476]","trial_type":"two-door-navigation","trial_index":41,"time_elapsed":659319,"internal_node_id":"0.0-2.0-39.0"},{"group":"hexagon_bi","room_assignment":["purple","blue","red","green","yellow","grey"],"door_color_assignment":["black","white"],"door_generator_assignment":[1,0],"goal":3,"start":4,"action_noise":0.15,"location_history":"[4,3]","action_history":"[0]","door_history":"[1]","location_rts":"[10473]","trial_type":"two-door-navigation","trial_index":42,"time_elapsed":674291,"internal_node_id":"0.0-2.0-40.0"},{"group":"hexagon_bi","room_assignment":["purple","blue","red","green","yellow","grey"],"door_color_assignment":["black","white"],"door_generator_assignment":[1,0],"goal":2,"start":3,"action_noise":0.15,"location_history":"[3,2]","action_history":"[1]","door_history":"[0]","location_rts":"[2501]","trial_type":"two-door-navigation","trial_index":43,"time_elapsed":681297,"internal_node_id":"0.0-2.0-41.0"},{"group":"hexagon_bi","room_assignment":["purple","blue","red","green","yellow","grey"],"door_color_assignment":["black","white"],"door_generator_assignment":[1,0],"goal":0,"start":2,"action_noise":0.15,"location_history":"[2,1,2,1,2,1,0]","action_history":"[1,0,0,0,0,1]","door_history":"[0,1,1,1,1,0]","location_rts":"[1009,809,778,629,1137,320]","trial_type":"two-door-navigation","trial_index":44,"time_elapsed":695647,"internal_node_id":"0.0-2.0-42.0"},{"group":"hexagon_bi","room_assignment":["purple","blue","red","green","yellow","grey"],"door_color_assignment":["black","white"],"door_generator_assignment":[1,0],"goal":5,"start":0,"action_noise":0.15,"location_history":"[0,5]","action_history":"[0]","door_history":"[1]","location_rts":"[1503]","trial_type":"two-door-navigation","trial_index":45,"time_elapsed":701653,"internal_node_id":"0.0-2.0-43.0"},{"group":"hexagon_bi","room_assignment":["purple","blue","red","green","yellow","grey"],"door_color_assignment":["black","white"],"door_generator_assignment":[1,0],"goal":0,"start":5,"action_noise":0.15,"location_history":"[5,0]","action_history":"[0]","door_history":"[1]","location_rts":"[11001]","trial_type":"two-door-navigation","trial_index":46,"time_elapsed":717157,"internal_node_id":"0.0-2.0-44.0"},{"group":"hexagon_bi","room_assignment":["purple","blue","red","green","yellow","grey"],"door_color_assignment":["black","white"],"door_generator_assignment":[1,0],"goal":2,"start":0,"action_noise":0.15,"location_history":"[0,1,2]","action_history":"[1,0]","door_history":"[0,1]","location_rts":"[5658,1606]","trial_type":"two-door-navigation","trial_index":47,"time_elapsed":729935,"internal_node_id":"0.0-2.0-45.0"},{"group":"hexagon_bi","room_assignment":["purple","blue","red","green","yellow","grey"],"door_color_assignment":["black","white"],"door_generator_assignment":[1,0],"goal":4,"start":2,"action_noise":0.15,"location_history":"[2,1,2,3,4]","action_history":"[0,0,1,0]","door_history":"[1,1,0,1]","location_rts":"[1115,418,667,196]","trial_type":"two-door-navigation","trial_index":48,"time_elapsed":739860,"internal_node_id":"0.0-2.0-46.0"},{"group":"hexagon_bi","room_assignment":["purple","blue","red","green","yellow","grey"],"door_color_assignment":["black","white"],"door_generator_assignment":[1,0],"goal":1,"start":4,"action_noise":0.15,"location_history":"[4,5,0,1]","action_history":"[1,1,1]","door_history":"[0,0,0]","location_rts":"[2145,1731,1603]","trial_type":"two-door-navigation","trial_index":49,"time_elapsed":751847,"internal_node_id":"0.0-2.0-47.0"},{"group":"hexagon_bi","room_assignment":["purple","blue","red","green","yellow","grey"],"door_color_assignment":["black","white"],"door_generator_assignment":[1,0],"goal":5,"start":1,"action_noise":0.15,"location_history":"[1,2,3,2,3,4,5]","action_history":"[1,1,1,1,0,1]","door_history":"[0,0,0,0,1,0]","location_rts":"[2115,907,392,402,631,1450]","trial_type":"two-door-navigation","trial_index":50,"time_elapsed":767264,"internal_node_id":"0.0-2.0-48.0"},{"group":"hexagon_bi","room_assignment":["purple","blue","red","green","yellow","grey"],"door_color_assignment":["black","white"],"door_generator_assignment":[1,0],"goal":3,"start":5,"action_noise":0.15,"location_history":"[5,4,3]","action_history":"[1,0]","door_history":"[0,1]","location_rts":"[3761,570]","trial_type":"two-door-navigation","trial_index":51,"time_elapsed":777104,"internal_node_id":"0.0-2.0-49.0"},{"view_history":"[{\"page_index\":0,\"viewing_time\":1015}]","rt":1016,"trial_type":"instructions","trial_index":52,"time_elapsed":779120,"internal_node_id":"0.0-3.0"},{"view_history":"[{\"page_index\":0,\"viewing_time\":928},{\"page_index\":1,\"viewing_time\":1016}]","rt":1944,"trial_type":"instructions","trial_index":53,"time_elapsed":782066,"internal_node_id":"0.0-4.0"},{"group":"hexagon_bi","fractal_assignment":["../images/ylw_slt.png","../images/org_blu.png","../images/blu_wht.png","../images/cyn_red.png","../images/gry_blk.png","../images/pnk_blu.png"],"mutagen_generator_assignment":[0,1],"goal":3,"start":5,"action_noise":0.15,"location_history":"[5,4,5,4,3]","action_history":"[1,1,0,0]","mutagen_history":"[1,1,0,0]","location_rts":"[5003,828,502,518]","trial_type":"fractal-mutation","trial_index":54,"time_elapsed":796520,"internal_node_id":"0.0-5.0-0.0"},{"group":"hexagon_bi","fractal_assignment":["../images/ylw_slt.png","../images/org_blu.png","../images/blu_wht.png","../images/cyn_red.png","../images/gry_blk.png","../images/pnk_blu.png"],"mutagen_generator_assignment":[0,1],"goal":1,"start":3,"action_noise":0.15,"location_history":"[3,2,1]","action_history":"[1,0]","mutagen_history":"[1,0]","location_rts":"[1035,931]","trial_type":"fractal-mutation","trial_index":55,"time_elapsed":804021,"internal_node_id":"0.0-5.0-1.0"},{"group":"hexagon_bi","fractal_assignment":["../images/ylw_slt.png","../images/org_blu.png","../images/blu_wht.png","../images/cyn_red.png","../images/gry_blk.png","../images/pnk_blu.png"],"mutagen_generator_assignment":[0,1],"goal":0,"start":1,"action_noise":0.15,"location_history":"[1,2,3,2,1,0]","action_history":"[1,1,1,0,1]","mutagen_history":"[1,1,1,0,1]","location_rts":"[1747,1209,856,463,341]","trial_type":"fractal-mutation","trial_index":56,"time_elapsed":817220,"internal_node_id":"0.0-5.0-2.0"},{"group":"hexagon_bi","fractal_assignment":["../images/ylw_slt.png","../images/org_blu.png","../images/blu_wht.png","../images/cyn_red.png","../images/gry_blk.png","../images/pnk_blu.png"],"mutagen_generator_assignment":[0,1],"goal":3,"start":0,"action_noise":0.15,"location_history":"[0,1,2,3]","action_history":"[1,0,1]","mutagen_history":"[1,0,1]","location_rts":"[1165,868,872]","trial_type":"fractal-mutation","trial_index":57,"time_elapsed":826669,"internal_node_id":"0.0-5.0-3.0"},{"group":"hexagon_bi","fractal_assignment":["../images/ylw_slt.png","../images/org_blu.png","../images/blu_wht.png","../images/cyn_red.png","../images/gry_blk.png","../images/pnk_blu.png"],"mutagen_generator_assignment":[0,1],"goal":4,"start":3,"action_noise":0.15,"location_history":"[3,4]","action_history":"[0]","mutagen_history":"[0]","location_rts":"[1273]","trial_type":"fractal-mutation","trial_index":58,"time_elapsed":832453,"internal_node_id":"0.0-5.0-4.0"},{"group":"hexagon_bi","fractal_assignment":["../images/ylw_slt.png","../images/org_blu.png","../images/blu_wht.png","../images/cyn_red.png","../images/gry_blk.png","../images/pnk_blu.png"],"mutagen_generator_assignment":[0,1],"goal":2,"start":4,"action_noise":0.15,"location_history":"[4,3,2]","action_history":"[1,1]","mutagen_history":"[1,1]","location_rts":"[916,2127]","trial_type":"fractal-mutation","trial_index":59,"time_elapsed":841032,"internal_node_id":"0.0-5.0-5.0"},{"group":"hexagon_bi","fractal_assignment":["../images/ylw_slt.png","../images/org_blu.png","../images/blu_wht.png","../images/cyn_red.png","../images/gry_blk.png","../images/pnk_blu.png"],"mutagen_generator_assignment":[0,1],"goal":1,"start":2,"action_noise":0.15,"location_history":"[2,1]","action_history":"[0]","mutagen_history":"[0]","location_rts":"[4402]","trial_type":"fractal-mutation","trial_index":60,"time_elapsed":849941,"internal_node_id":"0.0-5.0-6.0"},{"group":"hexagon_bi","fractal_assignment":["../images/ylw_slt.png","../images/org_blu.png","../images/blu_wht.png","../images/cyn_red.png","../images/gry_blk.png","../images/pnk_blu.png"],"mutagen_generator_assignment":[0,1],"goal":5,"start":1,"action_noise":0.15,"location_history":"[1,2,1,2,3,2,1,2,3,2,3,2,1,2,3,2,3,4,3,4,5]","action_history":"[1,0,0,1,1,0,0,1,1,1,0,0,0,1,1,1,0,0,0,1]","mutagen_history":"[1,0,0,1,1,0,0,1,1,1,0,0,0,1,1,1,0,0,0,1]","location_rts":"[3050,744,165,138,469,433,44,61,353,777,422,484,716,31,716,1258,786,709,570,292]","trial_type":"fractal-mutation","trial_index":61,"time_elapsed":885926,"internal_node_id":"0.0-5.0-7.0"},{"group":"hexagon_bi","fractal_assignment":["../images/ylw_slt.png","../images/org_blu.png","../images/blu_wht.png","../images/cyn_red.png","../images/gry_blk.png","../images/pnk_blu.png"],"mutagen_generator_assignment":[0,1],"goal":4,"start":5,"action_noise":0.15,"location_history":"[5,0,1,0,1,2,3,2,3,4]","action_history":"[0,1,1,0,0,1,1,1,0]","mutagen_history":"[0,1,1,0,0,1,1,1,0]","location_rts":"[1042,711,692,520,428,378,253,626,191]","trial_type":"fractal-mutation","trial_index":62,"time_elapsed":903368,"internal_node_id":"0.0-5.0-8.0"},{"group":"hexagon_bi","fractal_assignment":["../images/ylw_slt.png","../images/org_blu.png","../images/blu_wht.png","../images/cyn_red.png","../images/gry_blk.png","../images/pnk_blu.png"],"mutagen_generator_assignment":[0,1],"goal":2,"start":4,"action_noise":0.15,"location_history":"[4,5,0,5,0,1,0,1,0,5,4,5,0,1,2]","action_history":"[1,0,0,0,1,1,0,1,0,1,1,0,1,0]","mutagen_history":"[1,0,0,0,1,1,0,1,0,1,1,0,1,0]","location_rts":"[1211,404,284,269,458,503,476,961,417,271,434,857,538,669]","trial_type":"fractal-mutation","trial_index":63,"time_elapsed":928792,"internal_node_id":"0.0-5.0-9.0"},{"group":"hexagon_bi","fractal_assignment":["../images/ylw_slt.png","../images/org_blu.png","../images/blu_wht.png","../images/cyn_red.png","../images/gry_blk.png","../images/pnk_blu.png"],"mutagen_generator_assignment":[0,1],"goal":0,"start":2,"action_noise":0.15,"location_history":"[2,3,4,5,4,5,0]","action_history":"[1,0,0,1,1,0]","mutagen_history":"[1,0,0,1,1,0]","location_rts":"[828,306,27,338,371,215]","trial_type":"fractal-mutation","trial_index":64,"time_elapsed":940439,"internal_node_id":"0.0-5.0-10.0"},{"group":"hexagon_bi","fractal_assignment":["../images/ylw_slt.png","../images/org_blu.png","../images/blu_wht.png","../images/cyn_red.png","../images/gry_blk.png","../images/pnk_blu.png"],"mutagen_generator_assignment":[0,1],"goal":1,"start":0,"action_noise":0.15,"location_history":"[0,5,0,5,4,3,2,1]","action_history":"[0,0,1,1,0,1,0]","mutagen_history":"[0,0,1,1,0,1,0]","location_rts":"[1262,1187,394,790,339,1264,1070]","trial_type":"fractal-mutation","trial_index":65,"time_elapsed":957321,"internal_node_id":"0.0-5.0-11.0"},{"group":"hexagon_bi","fractal_assignment":["../images/ylw_slt.png","../images/org_blu.png","../images/blu_wht.png","../images/cyn_red.png","../images/gry_blk.png","../images/pnk_blu.png"],"mutagen_generator_assignment":[0,1],"goal":3,"start":1,"action_noise":0.15,"location_history":"[1,0,5,4,3]","action_history":"[1,0,1,0]","mutagen_history":"[1,0,1,0]","location_rts":"[4412,487,1759,713]","trial_type":"fractal-mutation","trial_index":66,"time_elapsed":972231,"internal_node_id":"0.0-5.0-12.0"},{"group":"hexagon_bi","fractal_assignment":["../images/ylw_slt.png","../images/org_blu.png","../images/blu_wht.png","../images/cyn_red.png","../images/gry_blk.png","../images/pnk_blu.png"],"mutagen_generator_assignment":[0,1],"goal":5,"start":3,"action_noise":0.15,"location_history":"[3,2,1,2,3,4,3,2,1,0,5]","action_history":"[1,0,0,1,0,1,0,0,1,1]","mutagen_history":"[1,0,0,1,0,1,0,0,1,1]","location_rts":"[900,576,802,692,1792,1338,1019,2595,224,505]","trial_type":"fractal-mutation","trial_index":67,"time_elapsed":996270,"internal_node_id":"0.0-5.0-13.0"},{"group":"hexagon_bi","fractal_assignment":["../images/ylw_slt.png","../images/org_blu.png","../images/blu_wht.png","../images/cyn_red.png","../images/gry_blk.png","../images/pnk_blu.png"],"mutagen_generator_assignment":[0,1],"goal":4,"start":5,"action_noise":0.15,"location_history":"[5,0,1,2,3,2,1,2,1,0,1,0,1,0,1,2,3,4]","action_history":"[1,1,0,1,1,1,0,0,1,1,1,0,1,1,0,1,0]","mutagen_history":"[1,1,0,1,1,1,0,0,1,1,1,0,1,1,0,1,0]","location_rts":"[2820,370,271,269,64,304,266,429,454,500,668,379,363,540,718,2943,1856]","trial_type":"fractal-mutation","trial_index":68,"time_elapsed":1030142,"internal_node_id":"0.0-5.0-14.0"},{"group":"hexagon_bi","fractal_assignment":["../images/ylw_slt.png","../images/org_blu.png","../images/blu_wht.png","../images/cyn_red.png","../images/gry_blk.png","../images/pnk_blu.png"],"mutagen_generator_assignment":[0,1],"goal":0,"start":4,"action_noise":0.15,"location_history":"[4,5,0]","action_history":"[1,0]","mutagen_history":"[1,0]","location_rts":"[1340,691]","trial_type":"fractal-mutation","trial_index":69,"time_elapsed":1037702,"internal_node_id":"0.0-5.0-15.0"},{"group":"hexagon_bi","fractal_assignment":["../images/ylw_slt.png","../images/org_blu.png","../images/blu_wht.png","../images/cyn_red.png","../images/gry_blk.png","../images/pnk_blu.png"],"mutagen_generator_assignment":[0,1],"goal":3,"start":0,"action_noise":0.15,"location_history":"[0,1,2,1,0,1,0,5,4,5,4,5,4,3]","action_history":"[1,0,0,0,1,1,0,1,1,1,0,1,0]","mutagen_history":"[1,0,0,0,1,1,0,1,1,1,0,1,0]","location_rts":"[1148,813,591,398,287,1224,1676,752,374,860,516,1314,547]","trial_type":"fractal-mutation","trial_index":70,"time_elapsed":1064820,"internal_node_id":"0.0-5.0-16.0"},{"group":"hexagon_bi","fractal_assignment":["../images/ylw_slt.png","../images/org_blu.png","../images/blu_wht.png","../images/cyn_red.png","../images/gry_blk.png","../images/pnk_blu.png"],"mutagen_generator_assignment":[0,1],"goal":1,"start":3,"action_noise":0.15,"location_history":"[3,2,3,4,3,4,5,4,3,4,3,2,3,4,5,4,5,0,5,0,1]","action_history":"[1,1,1,0,0,1,1,0,1,0,1,1,0,1,0,1,0,0,0,1]","mutagen_history":"[1,1,1,0,0,1,1,0,1,0,1,1,0,1,0,1,0,0,0,1]","location_rts":"[1061,435,314,247,228,220,341,586,323,1105,568,296,404,1442,1627,4233,1837,1181,492,84]","trial_type":"fractal-mutation","trial_index":71,"time_elapsed":1105595,"internal_node_id":"0.0-5.0-17.0"},{"group":"hexagon_bi","fractal_assignment":["../images/ylw_slt.png","../images/org_blu.png","../images/blu_wht.png","../images/cyn_red.png","../images/gry_blk.png","../images/pnk_blu.png"],"mutagen_generator_assignment":[0,1],"goal":5,"start":1,"action_noise":0.15,"location_history":"[1,2,3,2,3,4,5]","action_history":"[1,1,1,1,0,1]","mutagen_history":"[1,1,1,1,0,1]","location_rts":"[909,2631,2220,6380,2480,1220]","trial_type":"fractal-mutation","trial_index":72,"time_elapsed":1131067,"internal_node_id":"0.0-5.0-18.0"},{"group":"hexagon_bi","fractal_assignment":["../images/ylw_slt.png","../images/org_blu.png","../images/blu_wht.png","../images/cyn_red.png","../images/gry_blk.png","../images/pnk_blu.png"],"mutagen_generator_assignment":[0,1],"goal":2,"start":5,"action_noise":0.15,"location_history":"[5,0,5,0,1,2]","action_history":"[1,0,0,1,0]","mutagen_history":"[1,0,0,1,0]","location_rts":"[958,25,342,369,326]","trial_type":"fractal-mutation","trial_index":73,"time_elapsed":1141652,"internal_node_id":"0.0-5.0-19.0"},{"group":"hexagon_bi","fractal_assignment":["../images/ylw_slt.png","../images/org_blu.png","../images/blu_wht.png","../images/cyn_red.png","../images/gry_blk.png","../images/pnk_blu.png"],"mutagen_generator_assignment":[0,1],"goal":4,"start":2,"action_noise":0.15,"location_history":"[2,3,4]","action_history":"[1,0]","mutagen_history":"[1,0]","location_rts":"[698,74]","trial_type":"fractal-mutation","trial_index":74,"time_elapsed":1147958,"internal_node_id":"0.0-5.0-20.0"},{"group":"hexagon_bi","fractal_assignment":["../images/ylw_slt.png","../images/org_blu.png","../images/blu_wht.png","../images/cyn_red.png","../images/gry_blk.png","../images/pnk_blu.png"],"mutagen_generator_assignment":[0,1],"goal":1,"start":4,"action_noise":0.15,"location_history":"[4,3,2,3,4,3,2,1]","action_history":"[0,1,1,1,0,1,0]","mutagen_history":"[0,1,1,1,0,1,0]","location_rts":"[615,124,307,365,375,262,997]","trial_type":"fractal-mutation","trial_index":75,"time_elapsed":1161613,"internal_node_id":"0.0-5.0-21.0"},{"group":"hexagon_bi","fractal_assignment":["../images/ylw_slt.png","../images/org_blu.png","../images/blu_wht.png","../images/cyn_red.png","../images/gry_blk.png","../images/pnk_blu.png"],"mutagen_generator_assignment":[0,1],"goal":3,"start":1,"action_noise":0.15,"location_history":"[1,0,5,0,5,4,5,4,3]","action_history":"[1,0,0,0,1,1,1,0]","mutagen_history":"[1,0,0,0,1,1,1,0]","location_rts":"[946,516,459,476,101,507,124,480]","trial_type":"fractal-mutation","trial_index":76,"time_elapsed":1176810,"internal_node_id":"0.0-5.0-22.0"},{"group":"hexagon_bi","fractal_assignment":["../images/ylw_slt.png","../images/org_blu.png","../images/blu_wht.png","../images/cyn_red.png","../images/gry_blk.png","../images/pnk_blu.png"],"mutagen_generator_assignment":[0,1],"goal":2,"start":3,"action_noise":0.15,"location_history":"[3,2]","action_history":"[1]","mutagen_history":"[1]","location_rts":"[989]","trial_type":"fractal-mutation","trial_index":77,"time_elapsed":1182313,"internal_node_id":"0.0-5.0-23.0"},{"group":"hexagon_bi","fractal_assignment":["../images/ylw_slt.png","../images/org_blu.png","../images/blu_wht.png","../images/cyn_red.png","../images/gry_blk.png","../images/pnk_blu.png"],"mutagen_generator_assignment":[0,1],"goal":0,"start":2,"action_noise":0.15,"location_history":"[2,3,4,5,0]","action_history":"[1,0,1,0]","mutagen_history":"[1,0,1,0]","location_rts":"[1170,584,1252,723]","trial_type":"fractal-mutation","trial_index":78,"time_elapsed":1193590,"internal_node_id":"0.0-5.0-24.0"},{"group":"hexagon_bi","fractal_assignment":["../images/ylw_slt.png","../images/org_blu.png","../images/blu_wht.png","../images/cyn_red.png","../images/gry_blk.png","../images/pnk_blu.png"],"mutagen_generator_assignment":[0,1],"goal":5,"start":0,"action_noise":0.15,"location_history":"[0,1,0,5]","action_history":"[1,1,0]","mutagen_history":"[1,1,0]","location_rts":"[3198,2872,1204]","trial_type":"fractal-mutation","trial_index":79,"time_elapsed":1207415,"internal_node_id":"0.0-5.0-25.0"},{"group":"hexagon_bi","fractal_assignment":["../images/ylw_slt.png","../images/org_blu.png","../images/blu_wht.png","../images/cyn_red.png","../images/gry_blk.png","../images/pnk_blu.png"],"mutagen_generator_assignment":[0,1],"goal":2,"start":5,"action_noise":0.15,"location_history":"[5,4,5,0,1,0,5,0,1,0,1,0,5,4,5,0,5,4,5,4,5,0,5,0,5,0,1,0,1,2]","action_history":"[1,1,0,1,1,0,0,1,1,1,1,0,1,1,1,0,1,1,1,1,0,0,0,0,0,1,1,1,0]","mutagen_history":"[1,1,0,1,1,0,0,1,1,1,1,0,1,1,1,0,1,1,1,1,0,0,0,0,0,1,1,1,0]","location_rts":"[4430,2023,2277,2523,3133,944,309,155,3913,1892,425,760,1074,1187,344,211,200,257,177,527,99,4148,1978,293,208,157,74,231,90]","trial_type":"fractal-mutation","trial_index":80,"time_elapsed":1274315,"internal_node_id":"0.0-5.0-26.0"},{"group":"hexagon_bi","fractal_assignment":["../images/ylw_slt.png","../images/org_blu.png","../images/blu_wht.png","../images/cyn_red.png","../images/gry_blk.png","../images/pnk_blu.png"],"mutagen_generator_assignment":[0,1],"goal":3,"start":2,"action_noise":0.15,"location_history":"[2,3]","action_history":"[1]","mutagen_history":"[1]","location_rts":"[1670]","trial_type":"fractal-mutation","trial_index":81,"time_elapsed":1280501,"internal_node_id":"0.0-5.0-27.0"},{"group":"hexagon_bi","fractal_assignment":["../images/ylw_slt.png","../images/org_blu.png","../images/blu_wht.png","../images/cyn_red.png","../images/gry_blk.png","../images/pnk_blu.png"],"mutagen_generator_assignment":[0,1],"goal":0,"start":3,"action_noise":0.15,"location_history":"[3,2,3,4,5,4,5,4,3,2,1,0]","action_history":"[1,0,0,1,1,1,0,0,1,0,1]","mutagen_history":"[1,0,0,1,1,1,0,0,1,0,1]","location_rts":"[1133,343,353,250,203,348,205,518,405,783,546]","trial_type":"fractal-mutation","trial_index":82,"time_elapsed":1300240,"internal_node_id":"0.0-5.0-28.0"},{"group":"hexagon_bi","fractal_assignment":["../images/ylw_slt.png","../images/org_blu.png","../images/blu_wht.png","../images/cyn_red.png","../images/gry_blk.png","../images/pnk_blu.png"],"mutagen_generator_assignment":[0,1],"goal":1,"start":0,"action_noise":0.15,"location_history":"[0,1]","action_history":"[1]","mutagen_history":"[1]","location_rts":"[656]","trial_type":"fractal-mutation","trial_index":83,"time_elapsed":1305423,"internal_node_id":"0.0-5.0-29.0"},{"group":"hexagon_bi","fractal_assignment":["../images/ylw_slt.png","../images/org_blu.png","../images/blu_wht.png","../images/cyn_red.png","../images/gry_blk.png","../images/pnk_blu.png"],"mutagen_generator_assignment":[0,1],"goal":4,"start":1,"action_noise":0.15,"location_history":"[1,0,5,0,1,2,3,4]","action_history":"[1,0,0,1,1,1,0]","mutagen_history":"[1,0,0,1,1,1,0]","location_rts":"[681,758,500,925,805,714,555]","trial_type":"fractal-mutation","trial_index":84,"time_elapsed":1320925,"internal_node_id":"0.0-5.0-30.0"},{"group":"hexagon_bi","fractal_assignment":["../images/ylw_slt.png","../images/org_blu.png","../images/blu_wht.png","../images/cyn_red.png","../images/gry_blk.png","../images/pnk_blu.png"],"mutagen_generator_assignment":[0,1],"goal":5,"start":4,"action_noise":0.15,"location_history":"[4,5]","action_history":"[1]","mutagen_history":"[1]","location_rts":"[1489]","trial_type":"fractal-mutation","trial_index":85,"time_elapsed":1326944,"internal_node_id":"0.0-5.0-31.0"},{"group":"hexagon_bi","fractal_assignment":["../images/ylw_slt.png","../images/org_blu.png","../images/blu_wht.png","../images/cyn_red.png","../images/gry_blk.png","../images/pnk_blu.png"],"mutagen_generator_assignment":[0,1],"goal":0,"start":5,"action_noise":0.15,"location_history":"[5,0]","action_history":"[0]","mutagen_history":"[0]","location_rts":"[1266]","trial_type":"fractal-mutation","trial_index":86,"time_elapsed":1332717,"internal_node_id":"0.0-5.0-32.0"},{"group":"hexagon_bi","fractal_assignment":["../images/ylw_slt.png","../images/org_blu.png","../images/blu_wht.png","../images/cyn_red.png","../images/gry_blk.png","../images/pnk_blu.png"],"mutagen_generator_assignment":[0,1],"goal":3,"start":0,"action_noise":0.15,"location_history":"[0,1,0,1,2,3]","action_history":"[1,0,1,0,1]","mutagen_history":"[1,0,1,0,1]","location_rts":"[1273,652,349,817,906]","trial_type":"fractal-mutation","trial_index":87,"time_elapsed":1345321,"internal_node_id":"0.0-5.0-33.0"},{"group":"hexagon_bi","fractal_assignment":["../images/ylw_slt.png","../images/org_blu.png","../images/blu_wht.png","../images/cyn_red.png","../images/gry_blk.png","../images/pnk_blu.png"],"mutagen_generator_assignment":[0,1],"goal":1,"start":3,"action_noise":0.15,"location_history":"[3,2,1]","action_history":"[1,0]","mutagen_history":"[1,0]","location_rts":"[1224,3140]","trial_type":"fractal-mutation","trial_index":88,"time_elapsed":1355220,"internal_node_id":"0.0-5.0-34.0"},{"group":"hexagon_bi","fractal_assignment":["../images/ylw_slt.png","../images/org_blu.png","../images/blu_wht.png","../images/cyn_red.png","../images/gry_blk.png","../images/pnk_blu.png"],"mutagen_generator_assignment":[0,1],"goal":2,"start":1,"action_noise":0.15,"location_history":"[1,2]","action_history":"[1]","mutagen_history":"[1]","location_rts":"[778]","trial_type":"fractal-mutation","trial_index":89,"time_elapsed":1360517,"internal_node_id":"0.0-5.0-35.0"},{"group":"hexagon_bi","fractal_assignment":["../images/ylw_slt.png","../images/org_blu.png","../images/blu_wht.png","../images/cyn_red.png","../images/gry_blk.png","../images/pnk_blu.png"],"mutagen_generator_assignment":[0,1],"goal":4,"start":2,"action_noise":0.15,"location_history":"[2,3,4]","action_history":"[1,0]","mutagen_history":"[1,0]","location_rts":"[598,439]","trial_type":"fractal-mutation","trial_index":90,"time_elapsed":1367075,"internal_node_id":"0.0-5.0-36.0"},{"group":"hexagon_bi","fractal_assignment":["../images/ylw_slt.png","../images/org_blu.png","../images/blu_wht.png","../images/cyn_red.png","../images/gry_blk.png","../images/pnk_blu.png"],"mutagen_generator_assignment":[0,1],"goal":5,"start":4,"action_noise":0.15,"location_history":"[4,5]","action_history":"[1]","mutagen_history":"[1]","location_rts":"[1931]","trial_type":"fractal-mutation","trial_index":91,"time_elapsed":1373535,"internal_node_id":"0.0-5.0-37.0"},{"group":"hexagon_bi","fractal_assignment":["../images/ylw_slt.png","../images/org_blu.png","../images/blu_wht.png","../images/cyn_red.png","../images/gry_blk.png","../images/pnk_blu.png"],"mutagen_generator_assignment":[0,1],"goal":1,"start":5,"action_noise":0.15,"location_history":"[5,0,5,4,5,0,5,4,5,0,5,4,5,4,5,4,3,4,5,4,5,0,5,4,5,4,5,4,3,4,5,4,3,4,5,4,3,2,1]","action_history":"[0,1,1,1,0,0,1,1,0,0,1,1,0,1,1,0,1,1,0,0,0,0,1,1,1,1,0,0,0,1,1,0,1,1,0,0,0,0]","mutagen_history":"[0,1,1,1,0,0,1,1,0,0,1,1,0,1,1,0,1,1,0,0,0,0,1,1,1,1,0,0,0,1,1,0,1,1,0,0,0,0]","location_rts":"[1070,1528,2132,2330,816,806,229,747,125,606,506,1466,376,435,461,378,1109,478,619,1354,308,383,72,131,230,165,107,215,209,34,595,1828,390,1002,349,87,125,68]","trial_type":"fractal-mutation","trial_index":92,"time_elapsed":1439270,"internal_node_id":"0.0-5.0-38.0"},{"group":"hexagon_bi","fractal_assignment":["../images/ylw_slt.png","../images/org_blu.png","../images/blu_wht.png","../images/cyn_red.png","../images/gry_blk.png","../images/pnk_blu.png"],"mutagen_generator_assignment":[0,1],"goal":4,"start":1,"action_noise":0.15,"location_history":"[1,0,1,0,1,2,1,2,3,4]","action_history":"[1,1,1,1,0,0,0,1,0]","mutagen_history":"[1,1,1,1,0,0,0,1,0]","location_rts":"[928,923,15918,370,603,893,91,4234,714]","trial_type":"fractal-mutation","trial_index":93,"time_elapsed":1476569,"internal_node_id":"0.0-5.0-39.0"},{"group":"hexagon_bi","fractal_assignment":["../images/ylw_slt.png","../images/org_blu.png","../images/blu_wht.png","../images/cyn_red.png","../images/gry_blk.png","../images/pnk_blu.png"],"mutagen_generator_assignment":[0,1],"goal":3,"start":4,"action_noise":0.15,"location_history":"[4,3]","action_history":"[0]","mutagen_history":"[0]","location_rts":"[1304]","trial_type":"fractal-mutation","trial_index":94,"time_elapsed":1482386,"internal_node_id":"0.0-5.0-40.0"},{"group":"hexagon_bi","fractal_assignment":["../images/ylw_slt.png","../images/org_blu.png","../images/blu_wht.png","../images/cyn_red.png","../images/gry_blk.png","../images/pnk_blu.png"],"mutagen_generator_assignment":[0,1],"goal":2,"start":3,"action_noise":0.15,"location_history":"[3,4,5,4,3,4,3,2]","action_history":"[0,1,1,0,0,0,1]","mutagen_history":"[0,1,1,0,0,0,1]","location_rts":"[521,325,38,102,129,277,208]","trial_type":"fractal-mutation","trial_index":95,"time_elapsed":1494543,"internal_node_id":"0.0-5.0-41.0"},{"group":"hexagon_bi","fractal_assignment":["../images/ylw_slt.png","../images/org_blu.png","../images/blu_wht.png","../images/cyn_red.png","../images/gry_blk.png","../images/pnk_blu.png"],"mutagen_generator_assignment":[0,1],"goal":0,"start":2,"action_noise":0.15,"location_history":"[2,1,2,1,2,1,0]","action_history":"[0,0,0,0,1,1]","mutagen_history":"[0,0,0,0,1,1]","location_rts":"[1124,448,467,446,255,631]","trial_type":"fractal-mutation","trial_index":96,"time_elapsed":1507509,"internal_node_id":"0.0-5.0-42.0"},{"group":"hexagon_bi","fractal_assignment":["../images/ylw_slt.png","../images/org_blu.png","../images/blu_wht.png","../images/cyn_red.png","../images/gry_blk.png","../images/pnk_blu.png"],"mutagen_generator_assignment":[0,1],"goal":5,"start":0,"action_noise":0.15,"location_history":"[0,1,2,1,0,5]","action_history":"[1,0,0,1,1]","mutagen_history":"[1,0,0,1,1]","location_rts":"[614,426,612,296,252]","trial_type":"fractal-mutation","trial_index":97,"time_elapsed":1518267,"internal_node_id":"0.0-5.0-43.0"},{"group":"hexagon_bi","fractal_assignment":["../images/ylw_slt.png","../images/org_blu.png","../images/blu_wht.png","../images/cyn_red.png","../images/gry_blk.png","../images/pnk_blu.png"],"mutagen_generator_assignment":[0,1],"goal":0,"start":5,"action_noise":0.15,"location_history":"[5,0]","action_history":"[0]","mutagen_history":"[0]","location_rts":"[1216]","trial_type":"fractal-mutation","trial_index":98,"time_elapsed":1523992,"internal_node_id":"0.0-5.0-44.0"},{"group":"hexagon_bi","fractal_assignment":["../images/ylw_slt.png","../images/org_blu.png","../images/blu_wht.png","../images/cyn_red.png","../images/gry_blk.png","../images/pnk_blu.png"],"mutagen_generator_assignment":[0,1],"goal":2,"start":0,"action_noise":0.15,"location_history":"[0,1,2]","action_history":"[1,0]","mutagen_history":"[1,0]","location_rts":"[879,500]","trial_type":"fractal-mutation","trial_index":99,"time_elapsed":1530884,"internal_node_id":"0.0-5.0-45.0"},{"group":"hexagon_bi","fractal_assignment":["../images/ylw_slt.png","../images/org_blu.png","../images/blu_wht.png","../images/cyn_red.png","../images/gry_blk.png","../images/pnk_blu.png"],"mutagen_generator_assignment":[0,1],"goal":4,"start":2,"action_noise":0.15,"location_history":"[2,3,4]","action_history":"[1,0]","mutagen_history":"[1,0]","location_rts":"[1137,506]","trial_type":"fractal-mutation","trial_index":100,"time_elapsed":1538059,"internal_node_id":"0.0-5.0-46.0"},{"group":"hexagon_bi","fractal_assignment":["../images/ylw_slt.png","../images/org_blu.png","../images/blu_wht.png","../images/cyn_red.png","../images/gry_blk.png","../images/pnk_blu.png"],"mutagen_generator_assignment":[0,1],"goal":1,"start":4,"action_noise":0.15,"location_history":"[4,3,2,1]","action_history":"[1,1,0]","mutagen_history":"[1,1,0]","location_rts":"[1213,276,547]","trial_type":"fractal-mutation","trial_index":101,"time_elapsed":1546617,"internal_node_id":"0.0-5.0-47.0"},{"group":"hexagon_bi","fractal_assignment":["../images/ylw_slt.png","../images/org_blu.png","../images/blu_wht.png","../images/cyn_red.png","../images/gry_blk.png","../images/pnk_blu.png"],"mutagen_generator_assignment":[0,1],"goal":5,"start":1,"action_noise":0.15,"location_history":"[1,0,5]","action_history":"[1,0]","mutagen_history":"[1,0]","location_rts":"[976,409]","trial_type":"fractal-mutation","trial_index":102,"time_elapsed":1553528,"internal_node_id":"0.0-5.0-48.0"},{"group":"hexagon_bi","fractal_assignment":["../images/ylw_slt.png","../images/org_blu.png","../images/blu_wht.png","../images/cyn_red.png","../images/gry_blk.png","../images/pnk_blu.png"],"mutagen_generator_assignment":[0,1],"goal":3,"start":5,"action_noise":0.15,"location_history":"[5,0,1,0,5,0,1,0,1,2,1,2,3]","action_history":"[0,1,1,0,0,1,1,0,0,0,0,1]","mutagen_history":"[0,1,1,0,0,1,1,0,0,0,0,1]","location_rts":"[794,408,903,269,254,424,329,179,341,573,373,94]","trial_type":"fractal-mutation","trial_index":103,"time_elapsed":1574100,"internal_node_id":"0.0-5.0-49.0"},{"view_history":"[{\"page_index\":0,\"viewing_time\":3421}]","rt":3422,"trial_type":"instructions","trial_index":104,"time_elapsed":1578522,"internal_node_id":"0.0-6.0"},{"rt":2949,"responses":"{\"Q0\":\"\"}","trial_type":"survey-text","trial_index":105,"time_elapsed":1582483,"internal_node_id":"0.0-7.0"}]