[{"view_history":"[{\"page_index\":0,\"viewing_time\":3441},{\"page_index\":1,\"viewing_time\":16815}]","rt":20259,"trial_type":"instructions","trial_index":0,"time_elapsed":20261,"internal_node_id":"0.0-0.0"},{"view_history":"[{\"page_index\":0,\"viewing_time\":3313},{\"page_index\":1,\"viewing_time\":7709}]","rt":11023,"trial_type":"instructions","trial_index":1,"time_elapsed":32285,"internal_node_id":"0.0-1.0"},{"group":"hexagon_bi","room_assignment":["blue","green","yellow","red","purple","grey"],"door_color_assignment":["black","white"],"door_generator_assignment":[1,0],"goal":3,"start":5,"action_noise":0.15,"location_history":"[5,0,1,2,3]","action_history":"[0,1,0,1]","door_history":"[1,0,1,0]","location_rts":"[1280,334,732,1039]","trial_type":"two-door-navigation","trial_index":2,"time_elapsed":43235,"internal_node_id":"0.0-2.0-0.0"},{"group":"hexagon_bi","room_assignment":["blue","green","yellow","red","purple","grey"],"door_color_assignment":["black","white"],"door_generator_assignment":[1,0],"goal":1,"start":3,"action_noise":0.15,"location_history":"[3,4,5,0,5,0,1]","action_history":"[0,1,0,1,0,1]","door_history":"[1,0,1,0,1,0]","location_rts":"[1115,282,324,390,1338,495]","trial_type":"two-door-navigation","trial_index":3,"time_elapsed":56756,"internal_node_id":"0.0-2.0-1.0"},{"group":"hexagon_bi","room_assignment":["blue","green","yellow","red","purple","grey"],"door_color_assignment":["black","white"],"door_generator_assignment":[1,0],"goal":0,"start":1,"action_noise":0.15,"location_history":"[1,2,1,0]","action_history":"[1,0,1]","door_history":"[0,1,0]","location_rts":"[816,263,425]","trial_type":"two-door-navigation","trial_index":4,"time_elapsed":64790,"internal_node_id":"0.0-2.0-2.0"},{"group":"hexagon_bi","room_assignment":["blue","green","yellow","red","purple","grey"],"door_color_assignment":["black","white"],"door_generator_assignment":[1,0],"goal":3,"start":0,"action_noise":0.15,"location_history":"[0,1,2,3]","action_history":"[1,0,1]","door_history":"[0,1,0]","location_rts":"[327,48,278]","trial_type":"two-door-navigation","trial_index":5,"time_elapsed":71981,"internal_node_id":"0.0-2.0-3.0"},{"group":"hexagon_bi","room_assignment":["blue","green","yellow","red","purple","grey"],"door_color_assignment":["black","white"],"door_generator_assignment":[1,0],"goal":4,"start":3,"action_noise":0.15,"location_history":"[3,2,1,0,5,4]","action_history":"[1,0,1,0,1]","door_history":"[0,1,0,1,0]","location_rts":"[498,97,243,689,1025]","trial_type":"two-door-navigation","trial_index":6,"time_elapsed":83103,"internal_node_id":"0.0-2.0-4.0"},{"group":"hexagon_bi","room_assignment":["blue","green","yellow","red","purple","grey"],"door_color_assignment":["black","white"],"door_generator_assignment":[1,0],"goal":2,"start":4,"action_noise":0.15,"location_history":"[4,3,2]","action_history":"[0,1]","door_history":"[1,0]","location_rts":"[336,164]","trial_type":"two-door-navigation","trial_index":7,"time_elapsed":89122,"internal_node_id":"0.0-2.0-5.0"},{"group":"hexagon_bi","room_assignment":["blue","green","yellow","red","purple","grey"],"door_color_assignment":["black","white"],"door_generator_assignment":[1,0],"goal":1,"start":2,"action_noise":0.15,"location_history":"[2,1]","action_history":"[0]","door_history":"[1]","location_rts":"[398]","trial_type":"two-door-navigation","trial_index":8,"time_elapsed":94038,"internal_node_id":"0.0-2.0-6.0"},{"group":"hexagon_bi","room_assignment":["blue","green","yellow","red","purple","grey"],"door_color_assignment":["black","white"],"door_generator_assignment":[1,0],"goal":5,"start":1,"action_noise":0.15,"location_history":"[1,0,5]","action_history":"[1,0]","door_history":"[0,1]","location_rts":"[287,211]","trial_type":"two-door-navigation","trial_index":9,"time_elapsed":100059,"internal_node_id":"0.0-2.0-7.0"},{"group":"hexagon_bi","room_assignment":["blue","green","yellow","red","purple","grey"],"door_color_assignment":["black","white"],"door_generator_assignment":[1,0],"goal":4,"start":5,"action_noise":0.15,"location_history":"[5,4]","action_history":"[1]","door_history":"[0]","location_rts":"[463]","trial_type":"two-door-navigation","trial_index":10,"time_elapsed":105042,"internal_node_id":"0.0-2.0-8.0"},{"group":"hexagon_bi","room_assignment":["blue","green","yellow","red","purple","grey"],"door_color_assignment":["black","white"],"door_generator_assignment":[1,0],"goal":2,"start":4,"action_noise":0.15,"location_history":"[4,3,2]","action_history":"[1,0]","door_history":"[0,1]","location_rts":"[627,402]","trial_type":"two-door-navigation","trial_index":11,"time_elapsed":111589,"internal_node_id":"0.0-2.0-9.0"},{"group":"hexagon_bi","room_assignment":["blue","green","yellow","red","purple","grey"],"door_color_assignment":["black","white"],"door_generator_assignment":[1,0],"goal":0,"start":2,"action_noise":0.15,"location_history":"[2,3,4,5,0]","action_history":"[1,0,1,0]","door_history":"[0,1,0,1]","location_rts":"[1575,242,822,776]","trial_type":"two-door-navigation","trial_index":12,"time_elapsed":122548,"internal_node_id":"0.0-2.0-10.0"},{"group":"hexagon_bi","room_assignment":["blue","green","yellow","red","purple","grey"],"door_color_assignment":["black","white"],"door_generator_assignment":[1,0],"goal":1,"start":0,"action_noise":0.15,"location_history":"[0,5,4,5,4,5,4,3,2,3,4,3,2,3,4,5,4,5,0,1]","action_history":"[0,1,0,1,0,1,0,1,0,1,0,1,1,0,1,0,1,0,1]","door_history":"[1,0,1,0,1,0,1,0,1,0,1,0,0,1,0,1,0,1,0]","location_rts":"[473,112,98,296,608,394,377,409,376,302,534,567,383,302,303,266,331,381,1063]","trial_type":"two-door-navigation","trial_index":13,"time_elapsed":152829,"internal_node_id":"0.0-2.0-11.0"},{"group":"hexagon_bi","room_assignment":["blue","green","yellow","red","purple","grey"],"door_color_assignment":["black","white"],"door_generator_assignment":[1,0],"goal":3,"start":1,"action_noise":0.15,"location_history":"[1,2,1,2,3]","action_history":"[0,1,0,1]","door_history":"[1,0,1,0]","location_rts":"[950,190,348,1041]","trial_type":"two-door-navigation","trial_index":14,"time_elapsed":162892,"internal_node_id":"0.0-2.0-12.0"},{"group":"hexagon_bi","room_assignment":["blue","green","yellow","red","purple","grey"],"door_color_assignment":["black","white"],"door_generator_assignment":[1,0],"goal":5,"start":3,"action_noise":0.15,"location_history":"[3,4,3,2,1,0,5]","action_history":"[1,0,1,0,1,0]","door_history":"[0,1,0,1,0,1]","location_rts":"[5995,338,355,1022,313,134]","trial_type":"two-door-navigation","trial_index":15,"time_elapsed":180610,"internal_node_id":"0.0-2.0-13.0"},{"group":"hexagon_bi","room_assignment":["blue","green","yellow","red","purple","grey"],"door_color_assignment":["black","white"],"door_generator_assignment":[1,0],"goal":4,"start":5,"action_noise":0.15,"location_history":"[5,4]","action_history":"[1]","door_history":"[0]","location_rts":"[319]","trial_type":"two-door-navigation","trial_index":16,"time_elapsed":185437,"internal_node_id":"0.0-2.0-14.0"},{"group":"hexagon_bi","room_assignment":["blue","green","yellow","red","purple","grey"],"door_color_assignment":["black","white"],"door_generator_assignment":[1,0],"goal":0,"start":4,"action_noise":0.15,"location_history":"[4,5,0]","action_history":"[1,0]","door_history":"[0,1]","location_rts":"[407,141]","trial_type":"two-door-navigation","trial_index":17,"time_elapsed":191507,"internal_node_id":"0.0-2.0-15.0"},{"group":"hexagon_bi","room_assignment":["blue","green","yellow","red","purple","grey"],"door_color_assignment":["black","white"],"door_generator_assignment":[1,0],"goal":3,"start":0,"action_noise":0.15,"location_history":"[0,1,2,1,2,3]","action_history":"[1,0,1,0,1]","door_history":"[0,1,0,1,0]","location_rts":"[278,148,439,207,194]","trial_type":"two-door-navigation","trial_index":18,"time_elapsed":201326,"internal_node_id":"0.0-2.0-16.0"},{"group":"hexagon_bi","room_assignment":["blue","green","yellow","red","purple","grey"],"door_color_assignment":["black","white"],"door_generator_assignment":[1,0],"goal":1,"start":3,"action_noise":0.15,"location_history":"[3,2,1]","action_history":"[1,0]","door_history":"[0,1]","location_rts":"[1559,4338]","trial_type":"two-door-navigation","trial_index":19,"time_elapsed":212746,"internal_node_id":"0.0-2.0-17.0"},{"group":"hexagon_bi","room_assignment":["blue","green","yellow","red","purple","grey"],"door_color_assignment":["black","white"],"door_generator_assignment":[1,0],"goal":5,"start":1,"action_noise":0.15,"location_history":"[1,0,5]","action_history":"[1,0]","door_history":"[0,1]","location_rts":"[4916,135]","trial_type":"two-door-navigation","trial_index":20,"time_elapsed":223318,"internal_node_id":"0.0-2.0-18.0"},{"group":"hexagon_bi","room_assignment":["blue","green","yellow","red","purple","grey"],"door_color_assignment":["black","white"],"door_generator_assignment":[1,0],"goal":2,"start":5,"action_noise":0.15,"location_history":"[5,0,5,0,1,0,5,4,3,2]","action_history":"[1,0,1,0,1,0,1,0,1]","door_history":"[0,1,0,1,0,1,0,1,0]","location_rts":"[11875,313,69,284,365,149,223,456,328]","trial_type":"two-door-navigation","trial_index":21,"time_elapsed":249990,"internal_node_id":"0.0-2.0-19.0"},{"group":"hexagon_bi","room_assignment":["blue","green","yellow","red","purple","grey"],"door_color_assignment":["black","white"],"door_generator_assignment":[1,0],"goal":4,"start":2,"action_noise":0.15,"location_history":"[2,3,4]","action_history":"[1,0]","door_history":"[0,1]","location_rts":"[6079,1052]","trial_type":"two-door-navigation","trial_index":22,"time_elapsed":262640,"internal_node_id":"0.0-2.0-20.0"},{"group":"hexagon_bi","room_assignment":["blue","green","yellow","red","purple","grey"],"door_color_assignment":["black","white"],"door_generator_assignment":[1,0],"goal":1,"start":4,"action_noise":0.15,"location_history":"[4,5,0,1]","action_history":"[1,0,1]","door_history":"[0,1,0]","location_rts":"[9738,275,209]","trial_type":"two-door-navigation","trial_index":23,"time_elapsed":279397,"internal_node_id":"0.0-2.0-21.0"},{"group":"hexagon_bi","room_assignment":["blue","green","yellow","red","purple","grey"],"door_color_assignment":["black","white"],"door_generator_assignment":[1,0],"goal":3,"start":1,"action_noise":0.15,"location_history":"[1,2,3]","action_history":"[0,1]","door_history":"[1,0]","location_rts":"[1290,135]","trial_type":"two-door-navigation","trial_index":24,"time_elapsed":286347,"internal_node_id":"0.0-2.0-22.0"},{"group":"hexagon_bi","room_assignment":["blue","green","yellow","red","purple","grey"],"door_color_assignment":["black","white"],"door_generator_assignment":[1,0],"goal":2,"start":3,"action_noise":0.15,"location_history":"[3,2]","action_history":"[1]","door_history":"[0]","location_rts":"[1606]","trial_type":"two-door-navigation","trial_index":25,"time_elapsed":292469,"internal_node_id":"0.0-2.0-23.0"},{"group":"hexagon_bi","room_assignment":["blue","green","yellow","red","purple","grey"],"door_color_assignment":["black","white"],"door_generator_assignment":[1,0],"goal":0,"start":2,"action_noise":0.15,"location_history":"[2,3,4,5,0]","action_history":"[1,0,1,0]","door_history":"[0,1,0,1]","location_rts":"[1827,52,398,1351]","trial_type":"two-door-navigation","trial_index":26,"time_elapsed":303644,"internal_node_id":"0.0-2.0-24.0"},{"group":"hexagon_bi","room_assignment":["blue","green","yellow","red","purple","grey"],"door_color_assignment":["black","white"],"door_generator_assignment":[1,0],"goal":5,"start":0,"action_noise":0.15,"location_history":"[0,1,2,3,4,5]","action_history":"[1,0,1,0,1]","door_history":"[0,1,0,1,0]","location_rts":"[2491,107,25,27,55]","trial_type":"two-door-navigation","trial_index":27,"time_elapsed":314899,"internal_node_id":"0.0-2.0-25.0"},{"group":"hexagon_bi","room_assignment":["blue","green","yellow","red","purple","grey"],"door_color_assignment":["black","white"],"door_generator_assignment":[1,0],"goal":2,"start":5,"action_noise":0.15,"location_history":"[5,0,1,0,1,2]","action_history":"[0,1,0,1,0]","door_history":"[1,0,1,0,1]","location_rts":"[2625,545,115,180,23]","trial_type":"two-door-navigation","trial_index":28,"time_elapsed":326933,"internal_node_id":"0.0-2.0-26.0"},{"group":"hexagon_bi","room_assignment":["blue","green","yellow","red","purple","grey"],"door_color_assignment":["black","white"],"door_generator_assignment":[1,0],"goal":3,"start":2,"action_noise":0.15,"location_history":"[2,1,2,3]","action_history":"[1,0,1]","door_history":"[0,1,0]","location_rts":"[6445,87,290]","trial_type":"two-door-navigation","trial_index":29,"time_elapsed":340285,"internal_node_id":"0.0-2.0-27.0"},{"group":"hexagon_bi","room_assignment":["blue","green","yellow","red","purple","grey"],"door_color_assignment":["black","white"],"door_generator_assignment":[1,0],"goal":0,"start":3,"action_noise":0.15,"location_history":"[3,2,3,2,3,4,5,0]","action_history":"[1,1,0,1,0,1,0]","door_history":"[0,0,1,0,1,0,1]","location_rts":"[2109,2320,477,216,22,89,528]","trial_type":"two-door-navigation","trial_index":30,"time_elapsed":356625,"internal_node_id":"0.0-2.0-28.0"},{"group":"hexagon_bi","room_assignment":["blue","green","yellow","red","purple","grey"],"door_color_assignment":["black","white"],"door_generator_assignment":[1,0],"goal":1,"start":0,"action_noise":0.15,"location_history":"[0,1]","action_history":"[1]","door_history":"[0]","location_rts":"[2704]","trial_type":"two-door-navigation","trial_index":31,"time_elapsed":363850,"internal_node_id":"0.0-2.0-29.0"},{"group":"hexagon_bi","room_assignment":["blue","green","yellow","red","purple","grey"],"door_color_assignment":["black","white"],"door_generator_assignment":[1,0],"goal":4,"start":1,"action_noise":0.15,"location_history":"[1,2,3,4]","action_history":"[0,1,0]","door_history":"[1,0,1]","location_rts":"[3373,371,434]","trial_type":"two-door-navigation","trial_index":32,"time_elapsed":374560,"internal_node_id":"0.0-2.0-30.0"},{"group":"hexagon_bi","room_assignment":["blue","green","yellow","red","purple","grey"],"door_color_assignment":["black","white"],"door_generator_assignment":[1,0],"goal":5,"start":4,"action_noise":0.15,"location_history":"[4,5]","action_history":"[1]","door_history":"[0]","location_rts":"[6428]","trial_type":"two-door-navigation","trial_index":33,"time_elapsed":385502,"internal_node_id":"0.0-2.0-31.0"},{"group":"hexagon_bi","room_assignment":["blue","green","yellow","red","purple","grey"],"door_color_assignment":["black","white"],"door_generator_assignment":[1,0],"goal":0,"start":5,"action_noise":0.15,"location_history":"[5,4,3,2,1,0]","action_history":"[1,0,1,0,1]","door_history":"[0,1,0,1,0]","location_rts":"[1162,291,280,17,83]","trial_type":"two-door-navigation","trial_index":34,"time_elapsed":395889,"internal_node_id":"0.0-2.0-32.0"},{"group":"hexagon_bi","room_assignment":["blue","green","yellow","red","purple","grey"],"door_color_assignment":["black","white"],"door_generator_assignment":[1,0],"goal":3,"start":0,"action_noise":0.15,"location_history":"[0,1,0,1,2,3]","action_history":"[1,0,1,0,1]","door_history":"[0,1,0,1,0]","location_rts":"[878635,81,19,133,347]","trial_type":"two-door-navigation","trial_index":35,"time_elapsed":1283667,"internal_node_id":"0.0-2.0-33.0"},{"group":"hexagon_bi","room_assignment":["blue","green","yellow","red","purple","grey"],"door_color_assignment":["black","white"],"door_generator_assignment":[1,0],"goal":1,"start":3,"action_noise":0.15,"location_history":"[3,4,5,0,1]","action_history":"[0,1,0,1]","door_history":"[1,0,1,0]","location_rts":"[11722,379,65,101]","trial_type":"two-door-navigation","trial_index":36,"time_elapsed":1303493,"internal_node_id":"0.0-2.0-34.0"},{"group":"hexagon_bi","room_assignment":["blue","green","yellow","red","purple","grey"],"door_color_assignment":["black","white"],"door_generator_assignment":[1,0],"goal":2,"start":1,"action_noise":0.15,"location_history":"[1,2]","action_history":"[0]","door_history":"[1]","location_rts":"[7348]","trial_type":"two-door-navigation","trial_index":37,"time_elapsed":1315599,"internal_node_id":"0.0-2.0-35.0"},{"group":"hexagon_bi","room_assignment":["blue","green","yellow","red","purple","grey"],"door_color_assignment":["black","white"],"door_generator_assignment":[1,0],"goal":4,"start":2,"action_noise":0.15,"location_history":"[2,3,4]","action_history":"[1,0]","door_history":"[0,1]","location_rts":"[60704,197]","trial_type":"two-door-navigation","trial_index":38,"time_elapsed":1383036,"internal_node_id":"0.0-2.0-36.0"},{"group":"hexagon_bi","room_assignment":["blue","green","yellow","red","purple","grey"],"door_color_assignment":["black","white"],"door_generator_assignment":[1,0],"goal":5,"start":4,"action_noise":0.15,"location_history":"[4,3,2,3,4,3,4,5]","action_history":"[0,1,1,0,1,0,1]","door_history":"[1,0,0,1,0,1,0]","location_rts":"[742,683,3785,36,154,213,121]","trial_type":"two-door-navigation","trial_index":39,"time_elapsed":1399365,"internal_node_id":"0.0-2.0-37.0"},{"group":"hexagon_bi","room_assignment":["blue","green","yellow","red","purple","grey"],"door_color_assignment":["black","white"],"door_generator_assignment":[1,0],"goal":1,"start":5,"action_noise":0.15,"location_history":"[5,0,1]","action_history":"[0,1]","door_history":"[1,0]","location_rts":"[865,236]","trial_type":"two-door-navigation","trial_index":40,"time_elapsed":1405999,"internal_node_id":"0.0-2.0-38.0"},{"group":"hexagon_bi","room_assignment":["blue","green","yellow","red","purple","grey"],"door_color_assignment":["black","white"],"door_generator_assignment":[1,0],"goal":4,"start":1,"action_noise":0.15,"location_history":"[1,0,5,4]","action_history":"[1,0,1]","door_history":"[0,1,0]","location_rts":"[3179,397,448]","trial_type":"two-door-navigation","trial_index":41,"time_elapsed":1416560,"internal_node_id":"0.0-2.0-39.0"},{"group":"hexagon_bi","room_assignment":["blue","green","yellow","red","purple","grey"],"door_color_assignment":["black","white"],"door_generator_assignment":[1,0],"goal":3,"start":4,"action_noise":0.15,"location_history":"[4,5,0,5,0,1,2,3]","action_history":"[1,0,1,0,1,0,1]","door_history":"[0,1,0,1,0,1,0]","location_rts":"[4367,87,103,148,244,398,235]","trial_type":"two-door-navigation","trial_index":42,"time_elapsed":1432708,"internal_node_id":"0.0-2.0-40.0"},{"group":"hexagon_bi","room_assignment":["blue","green","yellow","red","purple","grey"],"door_color_assignment":["black","white"],"door_generator_assignment":[1,0],"goal":2,"start":3,"action_noise":0.15,"location_history":"[3,4,3,2]","action_history":"[1,0,1]","door_history":"[0,1,0]","location_rts":"[7797,424,383]","trial_type":"two-door-navigation","trial_index":43,"time_elapsed":1447851,"internal_node_id":"0.0-2.0-41.0"},{"group":"hexagon_bi","room_assignment":["blue","green","yellow","red","purple","grey"],"door_color_assignment":["black","white"],"door_generator_assignment":[1,0],"goal":0,"start":2,"action_noise":0.15,"location_history":"[2,3,4,5,0]","action_history":"[1,0,1,0]","door_history":"[0,1,0,1]","location_rts":"[1509,487,91,19]","trial_type":"two-door-navigation","trial_index":44,"time_elapsed":1457511,"internal_node_id":"0.0-2.0-42.0"},{"group":"hexagon_bi","room_assignment":["blue","green","yellow","red","purple","grey"],"door_color_assignment":["black","white"],"door_generator_assignment":[1,0],"goal":5,"start":0,"action_noise":0.15,"location_history":"[0,5]","action_history":"[0]","door_history":"[1]","location_rts":"[463]","trial_type":"two-door-navigation","trial_index":45,"time_elapsed":1462494,"internal_node_id":"0.0-2.0-43.0"},{"group":"hexagon_bi","room_assignment":["blue","green","yellow","red","purple","grey"],"door_color_assignment":["black","white"],"door_generator_assignment":[1,0],"goal":0,"start":5,"action_noise":0.15,"location_history":"[5,4,3,2,1,0]","action_history":"[1,0,1,0,1]","door_history":"[0,1,0,1,0]","location_rts":"[385,463,2394,3541,421]","trial_type":"two-door-navigation","trial_index":46,"time_elapsed":1478243,"internal_node_id":"0.0-2.0-44.0"},{"group":"hexagon_bi","room_assignment":["blue","green","yellow","red","purple","grey"],"door_color_assignment":["black","white"],"door_generator_assignment":[1,0],"goal":2,"start":0,"action_noise":0.15,"location_history":"[0,1,2]","action_history":"[1,0]","door_history":"[0,1]","location_rts":"[5160,217]","trial_type":"two-door-navigation","trial_index":47,"time_elapsed":1489149,"internal_node_id":"0.0-2.0-45.0"},{"group":"hexagon_bi","room_assignment":["blue","green","yellow","red","purple","grey"],"door_color_assignment":["black","white"],"door_generator_assignment":[1,0],"goal":4,"start":2,"action_noise":0.15,"location_history":"[2,3,4]","action_history":"[1,0]","door_history":"[0,1]","location_rts":"[2205,95]","trial_type":"two-door-navigation","trial_index":48,"time_elapsed":1496982,"internal_node_id":"0.0-2.0-46.0"},{"group":"hexagon_bi","room_assignment":["blue","green","yellow","red","purple","grey"],"door_color_assignment":["black","white"],"door_generator_assignment":[1,0],"goal":1,"start":4,"action_noise":0.15,"location_history":"[4,3,2,1]","action_history":"[0,1,0]","door_history":"[1,0,1]","location_rts":"[9734,56,158]","trial_type":"two-door-navigation","trial_index":49,"time_elapsed":1513474,"internal_node_id":"0.0-2.0-47.0"},{"group":"hexagon_bi","room_assignment":["blue","green","yellow","red","purple","grey"],"door_color_assignment":["black","white"],"door_generator_assignment":[1,0],"goal":5,"start":1,"action_noise":0.15,"location_history":"[1,0,1,0,5]","action_history":"[0,0,1,0]","door_history":"[1,1,0,1]","location_rts":"[5694,957,212,391]","trial_type":"two-door-navigation","trial_index":50,"time_elapsed":1528304,"internal_node_id":"0.0-2.0-48.0"},{"group":"hexagon_bi","room_assignment":["blue","green","yellow","red","purple","grey"],"door_color_assignment":["black","white"],"door_generator_assignment":[1,0],"goal":3,"start":5,"action_noise":0.15,"location_history":"[5,0,1,2,3]","action_history":"[0,1,0,1]","door_history":"[1,0,1,0]","location_rts":"[5138,166,255,91]","trial_type":"two-door-navigation","trial_index":51,"time_elapsed":1541509,"internal_node_id":"0.0-2.0-49.0"},{"view_history":"[{\"page_index\":0,\"viewing_time\":21636}]","rt":21637,"trial_type":"instructions","trial_index":52,"time_elapsed":1564147,"internal_node_id":"0.0-3.0"},{"view_history":"[{\"page_index\":0,\"viewing_time\":1982},{\"page_index\":1,\"viewing_time\":1787}]","rt":3771,"trial_type":"instructions","trial_index":53,"time_elapsed":1568919,"internal_node_id":"0.0-4.0"},{"group":"hexagon_tri","fractal_assignment":["../images/org_blu.png","../images/pnk_blu.png","../images/gry_blk.png","../images/ylw_slt.png","../images/cyn_red.png","../images/blu_wht.png"],"mutagen_generator_assignment":[0,1],"goal":3,"start":5,"action_noise":0.15,"location_history":"[5,4,2,1,3]","action_history":"[0,1,1,0]","mutagen_history":"[0,1,1,0]","location_rts":"[2063,619,622,451]","trial_type":"fractal-mutation","trial_index":54,"time_elapsed":1581109,"internal_node_id":"0.0-5.0-0.0"},{"group":"hexagon_tri","fractal_assignment":["../images/org_blu.png","../images/pnk_blu.png","../images/gry_blk.png","../images/ylw_slt.png","../images/cyn_red.png","../images/blu_wht.png"],"mutagen_generator_assignment":[0,1],"goal":1,"start":3,"action_noise":0.15,"location_history":"[3,2,3,4,0,5,4,2,3,2,3,2,3,4,0,1]","action_history":"[0,1,1,0,1,0,1,1,0,1,0,1,1,0,1]","mutagen_history":"[0,1,1,0,1,0,1,1,0,1,0,1,1,0,1]","location_rts":"[8149,316,387,750,855,901,453,441,945,576,1095,1117,612,1308,320]","trial_type":"fractal-mutation","trial_index":55,"time_elapsed":1621339,"internal_node_id":"0.0-5.0-1.0"},{"group":"hexagon_tri","fractal_assignment":["../images/org_blu.png","../images/pnk_blu.png","../images/gry_blk.png","../images/ylw_slt.png","../images/cyn_red.png","../images/blu_wht.png"],"mutagen_generator_assignment":[0,1],"goal":0,"start":1,"action_noise":0.15,"location_history":"[1,3,4,2,3,2,1,5,4,2,1,5,0]","action_history":"[0,1,0,1,0,0,1,0,1,0,0,1]","mutagen_history":"[0,1,0,1,0,0,1,0,1,0,0,1]","location_rts":"[8463,396,469,403,437,438,663,530,637,593,283,593]","trial_type":"fractal-mutation","trial_index":56,"time_elapsed":1653188,"internal_node_id":"0.0-5.0-2.0"},{"group":"hexagon_tri","fractal_assignment":["../images/org_blu.png","../images/pnk_blu.png","../images/gry_blk.png","../images/ylw_slt.png","../images/cyn_red.png","../images/blu_wht.png"],"mutagen_generator_assignment":[0,1],"goal":3,"start":0,"action_noise":0.15,"location_history":"[0,5,0,5,4,2,1,5,0,5,4,0,5,4,0,5,4,0,1,3]","action_history":"[0,1,0,0,1,0,1,1,0,0,0,0,0,0,0,1,0,1,0]","mutagen_history":"[0,1,0,0,1,0,1,1,0,0,0,0,0,0,0,1,0,1,0]","location_rts":"[3580,670,464,405,507,1559,385,1034,237,624,412,554,690,421,857,339,167,975,348]","trial_type":"fractal-mutation","trial_index":57,"time_elapsed":1693538,"internal_node_id":"0.0-5.0-3.0"},{"group":"hexagon_tri","fractal_assignment":["../images/org_blu.png","../images/pnk_blu.png","../images/gry_blk.png","../images/ylw_slt.png","../images/cyn_red.png","../images/blu_wht.png"],"mutagen_generator_assignment":[0,1],"goal":4,"start":3,"action_noise":0.15,"location_history":"[3,4]","action_history":"[1]","mutagen_history":"[1]","location_rts":"[7387]","trial_type":"fractal-mutation","trial_index":58,"time_elapsed":1705713,"internal_node_id":"0.0-5.0-4.0"},{"group":"hexagon_tri","fractal_assignment":["../images/org_blu.png","../images/pnk_blu.png","../images/gry_blk.png","../images/ylw_slt.png","../images/cyn_red.png","../images/blu_wht.png"],"mutagen_generator_assignment":[0,1],"goal":2,"start":4,"action_noise":0.15,"location_history":"[4,0,1,5,4,0,1,5,0,5,4,0,1,3,4,0,5,4,0,1,3,4,0,1,5,0,5,4,2]","action_history":"[0,1,1,0,0,1,1,1,0,1,0,0,0,1,0,0,0,0,1,1,1,0,1,1,1,0,0,1]","mutagen_history":"[0,1,1,0,0,1,1,1,0,1,0,0,0,1,0,0,0,0,1,1,1,0,1,1,1,0,0,1]","location_rts":"[805,439,706,557,606,364,617,805,749,247,314,439,599,515,584,448,596,442,547,1169,966,383,404,91,183,208,200,144]","trial_type":"fractal-mutation","trial_index":59,"time_elapsed":1757281,"internal_node_id":"0.0-5.0-5.0"},{"group":"hexagon_tri","fractal_assignment":["../images/org_blu.png","../images/pnk_blu.png","../images/gry_blk.png","../images/ylw_slt.png","../images/cyn_red.png","../images/blu_wht.png"],"mutagen_generator_assignment":[0,1],"goal":1,"start":2,"action_noise":0.15,"location_history":"[2,1]","action_history":"[0]","mutagen_history":"[0]","location_rts":"[3815]","trial_type":"fractal-mutation","trial_index":60,"time_elapsed":1765740,"internal_node_id":"0.0-5.0-6.0"},{"group":"hexagon_tri","fractal_assignment":["../images/org_blu.png","../images/pnk_blu.png","../images/gry_blk.png","../images/ylw_slt.png","../images/cyn_red.png","../images/blu_wht.png"],"mutagen_generator_assignment":[0,1],"goal":5,"start":1,"action_noise":0.15,"location_history":"[1,5]","action_history":"[1]","mutagen_history":"[1]","location_rts":"[5719]","trial_type":"fractal-mutation","trial_index":61,"time_elapsed":1776243,"internal_node_id":"0.0-5.0-7.0"},{"group":"hexagon_tri","fractal_assignment":["../images/org_blu.png","../images/pnk_blu.png","../images/gry_blk.png","../images/ylw_slt.png","../images/cyn_red.png","../images/blu_wht.png"],"mutagen_generator_assignment":[0,1],"goal":4,"start":5,"action_noise":0.15,"location_history":"[5,0,1,3,4]","action_history":"[0,1,0,0]","mutagen_history":"[0,1,0,0]","location_rts":"[386,262,87,395]","trial_type":"fractal-mutation","trial_index":62,"time_elapsed":1785588,"internal_node_id":"0.0-5.0-8.0"},{"group":"hexagon_tri","fractal_assignment":["../images/org_blu.png","../images/pnk_blu.png","../images/gry_blk.png","../images/ylw_slt.png","../images/cyn_red.png","../images/blu_wht.png"],"mutagen_generator_assignment":[0,1],"goal":2,"start":4,"action_noise":0.15,"location_history":"[4,0,1,5,0,1,3,4,0,1,5,4,2]","action_history":"[0,1,1,1,0,0,1,0,0,1,0,1]","mutagen_history":"[0,1,1,1,0,0,1,0,0,1,0,1]","location_rts":"[3263,122,486,765,546,456,538,647,573,238,796,366]","trial_type":"fractal-mutation","trial_index":63,"time_elapsed":1812453,"internal_node_id":"0.0-5.0-9.0"},{"group":"hexagon_tri","fractal_assignment":["../images/org_blu.png","../images/pnk_blu.png","../images/gry_blk.png","../images/ylw_slt.png","../images/cyn_red.png","../images/blu_wht.png"],"mutagen_generator_assignment":[0,1],"goal":0,"start":2,"action_noise":0.15,"location_history":"[2,3,2,3,4,0]","action_history":"[1,0,1,1,0]","mutagen_history":"[1,0,1,1,0]","location_rts":"[3214,3789,333,264,736]","trial_type":"fractal-mutation","trial_index":64,"time_elapsed":1830396,"internal_node_id":"0.0-5.0-10.0"},{"group":"hexagon_tri","fractal_assignment":["../images/org_blu.png","../images/pnk_blu.png","../images/gry_blk.png","../images/ylw_slt.png","../images/cyn_red.png","../images/blu_wht.png"],"mutagen_generator_assignment":[0,1],"goal":1,"start":0,"action_noise":0.15,"location_history":"[0,1]","action_history":"[1]","mutagen_history":"[1]","location_rts":"[4665]","trial_type":"fractal-mutation","trial_index":65,"time_elapsed":1839843,"internal_node_id":"0.0-5.0-11.0"},{"group":"hexagon_tri","fractal_assignment":["../images/org_blu.png","../images/pnk_blu.png","../images/gry_blk.png","../images/ylw_slt.png","../images/cyn_red.png","../images/blu_wht.png"],"mutagen_generator_assignment":[0,1],"goal":3,"start":1,"action_noise":0.15,"location_history":"[1,5,0,5,0,1,3]","action_history":"[1,1,0,1,0,0]","mutagen_history":"[1,1,0,1,0,0]","location_rts":"[1039,745,676,487,673,294]","trial_type":"fractal-mutation","trial_index":66,"time_elapsed":1854571,"internal_node_id":"0.0-5.0-12.0"},{"group":"hexagon_tri","fractal_assignment":["../images/org_blu.png","../images/pnk_blu.png","../images/gry_blk.png","../images/ylw_slt.png","../images/cyn_red.png","../images/blu_wht.png"],"mutagen_generator_assignment":[0,1],"goal":5,"start":3,"action_noise":0.15,"location_history":"[3,2,3,4,0,1,5]","action_history":"[0,1,1,0,1,1]","mutagen_history":"[0,1,1,0,1,1]","location_rts":"[20252,240,829,404,1843,877]","trial_type":"fractal-mutation","trial_index":67,"time_elapsed":1889890,"internal_node_id":"0.0-5.0-13.0"},{"group":"hexagon_tri","fractal_assignment":["../images/org_blu.png","../images/pnk_blu.png","../images/gry_blk.png","../images/ylw_slt.png","../images/cyn_red.png","../images/blu_wht.png"],"mutagen_generator_assignment":[0,1],"goal":4,"start":5,"action_noise":0.15,"location_history":"[5,0,1,3,2,1,5,0,5,0,1,3,4]","action_history":"[1,1,0,0,0,1,1,0,1,1,0,1]","mutagen_history":"[1,1,0,0,0,1,1,0,1,1,0,1]","location_rts":"[534,1331,450,380,834,390,829,2511,347,244,159,25]","trial_type":"fractal-mutation","trial_index":68,"time_elapsed":1916132,"internal_node_id":"0.0-5.0-14.0"},{"group":"hexagon_tri","fractal_assignment":["../images/org_blu.png","../images/pnk_blu.png","../images/gry_blk.png","../images/ylw_slt.png","../images/cyn_red.png","../images/blu_wht.png"],"mutagen_generator_assignment":[0,1],"goal":0,"start":4,"action_noise":0.15,"location_history":"[4,0]","action_history":"[0]","mutagen_history":"[0]","location_rts":"[527]","trial_type":"fractal-mutation","trial_index":69,"time_elapsed":1921308,"internal_node_id":"0.0-5.0-15.0"},{"group":"hexagon_tri","fractal_assignment":["../images/org_blu.png","../images/pnk_blu.png","../images/gry_blk.png","../images/ylw_slt.png","../images/cyn_red.png","../images/blu_wht.png"],"mutagen_generator_assignment":[0,1],"goal":3,"start":0,"action_noise":0.15,"location_history":"[0,5,4,2,1,5,4,2,1,5,0,1,3]","action_history":"[0,1,1,0,1,1,1,0,1,1,1,0]","mutagen_history":"[0,1,1,0,1,1,1,0,1,1,1,0]","location_rts":"[6017,277,498,338,2427,1068,515,2062,338,287,297,265]","trial_type":"fractal-mutation","trial_index":70,"time_elapsed":1953950,"internal_node_id":"0.0-5.0-16.0"},{"group":"hexagon_tri","fractal_assignment":["../images/org_blu.png","../images/pnk_blu.png","../images/gry_blk.png","../images/ylw_slt.png","../images/cyn_red.png","../images/blu_wht.png"],"mutagen_generator_assignment":[0,1],"goal":1,"start":3,"action_noise":0.15,"location_history":"[3,4,0,1]","action_history":"[1,0,1]","mutagen_history":"[1,0,1]","location_rts":"[1400,1657,1235]","trial_type":"fractal-mutation","trial_index":71,"time_elapsed":1965439,"internal_node_id":"0.0-5.0-17.0"},{"group":"hexagon_tri","fractal_assignment":["../images/org_blu.png","../images/pnk_blu.png","../images/gry_blk.png","../images/ylw_slt.png","../images/cyn_red.png","../images/blu_wht.png"],"mutagen_generator_assignment":[0,1],"goal":5,"start":1,"action_noise":0.15,"location_history":"[1,3,4,2,1,5]","action_history":"[0,1,1,0,1]","mutagen_history":"[0,1,1,0,1]","location_rts":"[341,154,389,341,408]","trial_type":"fractal-mutation","trial_index":72,"time_elapsed":1976646,"internal_node_id":"0.0-5.0-18.0"},{"group":"hexagon_tri","fractal_assignment":["../images/org_blu.png","../images/pnk_blu.png","../images/gry_blk.png","../images/ylw_slt.png","../images/cyn_red.png","../images/blu_wht.png"],"mutagen_generator_assignment":[0,1],"goal":2,"start":5,"action_noise":0.15,"location_history":"[5,0,5,4,0,5,0,1,3,4,2]","action_history":"[1,1,0,0,0,1,1,0,1,1]","mutagen_history":"[1,1,0,0,0,1,1,0,1,1]","location_rts":"[3140,2079,323,338,457,344,525,512,1499,526]","trial_type":"fractal-mutation","trial_index":73,"time_elapsed":2002120,"internal_node_id":"0.0-5.0-19.0"},{"group":"hexagon_tri","fractal_assignment":["../images/org_blu.png","../images/pnk_blu.png","../images/gry_blk.png","../images/ylw_slt.png","../images/cyn_red.png","../images/blu_wht.png"],"mutagen_generator_assignment":[0,1],"goal":4,"start":2,"action_noise":0.15,"location_history":"[2,1,5,0,1,3,4]","action_history":"[0,1,1,1,0,1]","mutagen_history":"[0,1,1,1,0,1]","location_rts":"[4645,325,357,3669,299,1086]","trial_type":"fractal-mutation","trial_index":74,"time_elapsed":2023402,"internal_node_id":"0.0-5.0-20.0"},{"group":"hexagon_tri","fractal_assignment":["../images/org_blu.png","../images/pnk_blu.png","../images/gry_blk.png","../images/ylw_slt.png","../images/cyn_red.png","../images/blu_wht.png"],"mutagen_generator_assignment":[0,1],"goal":1,"start":4,"action_noise":0.15,"location_history":"[4,2,3,4,2,1]","action_history":"[1,0,1,1,0]","mutagen_history":"[1,0,1,1,0]","location_rts":"[1149,1052,1686,891,222]","trial_type":"fractal-mutation","trial_index":75,"time_elapsed":2037999,"internal_node_id":"0.0-5.0-21.0"},{"group":"hexagon_tri","fractal_assignment":["../images/org_blu.png","../images/pnk_blu.png","../images/gry_blk.png","../images/ylw_slt.png","../images/cyn_red.png","../images/blu_wht.png"],"mutagen_generator_assignment":[0,1],"goal":3,"start":1,"action_noise":0.15,"location_history":"[1,3]","action_history":"[1]","mutagen_history":"[1]","location_rts":"[763]","trial_type":"fractal-mutation","trial_index":76,"time_elapsed":2043528,"internal_node_id":"0.0-5.0-22.0"},{"group":"hexagon_tri","fractal_assignment":["../images/org_blu.png","../images/pnk_blu.png","../images/gry_blk.png","../images/ylw_slt.png","../images/cyn_red.png","../images/blu_wht.png"],"mutagen_generator_assignment":[0,1],"goal":2,"start":3,"action_noise":0.15,"location_history":"[3,2]","action_history":"[0]","mutagen_history":"[0]","location_rts":"[947]","trial_type":"fractal-mutation","trial_index":77,"time_elapsed":2049149,"internal_node_id":"0.0-5.0-23.0"},{"group":"hexagon_tri","fractal_assignment":["../images/org_blu.png","../images/pnk_blu.png","../images/gry_blk.png","../images/ylw_slt.png","../images/cyn_red.png","../images/blu_wht.png"],"mutagen_generator_assignment":[0,1],"goal":0,"start":2,"action_noise":0.15,"location_history":"[2,3,2,3,2,1,3,2,1,5,0]","action_history":"[0,0,1,0,0,1,0,0,1,1]","mutagen_history":"[0,0,1,0,0,1,0,0,1,1]","location_rts":"[652,597,1757,858,1428,426,1695,415,705,417]","trial_type":"fractal-mutation","trial_index":78,"time_elapsed":2073637,"internal_node_id":"0.0-5.0-24.0"},{"group":"hexagon_tri","fractal_assignment":["../images/org_blu.png","../images/pnk_blu.png","../images/gry_blk.png","../images/ylw_slt.png","../images/cyn_red.png","../images/blu_wht.png"],"mutagen_generator_assignment":[0,1],"goal":5,"start":0,"action_noise":0.15,"location_history":"[0,5]","action_history":"[1]","mutagen_history":"[1]","location_rts":"[1007]","trial_type":"fractal-mutation","trial_index":79,"time_elapsed":2079415,"internal_node_id":"0.0-5.0-25.0"},{"group":"hexagon_tri","fractal_assignment":["../images/org_blu.png","../images/pnk_blu.png","../images/gry_blk.png","../images/ylw_slt.png","../images/cyn_red.png","../images/blu_wht.png"],"mutagen_generator_assignment":[0,1],"goal":2,"start":5,"action_noise":0.15,"location_history":"[5,4,2]","action_history":"[0,1]","mutagen_history":"[0,1]","location_rts":"[3682,301]","trial_type":"fractal-mutation","trial_index":80,"time_elapsed":2089328,"internal_node_id":"0.0-5.0-26.0"},{"group":"hexagon_tri","fractal_assignment":["../images/org_blu.png","../images/pnk_blu.png","../images/gry_blk.png","../images/ylw_slt.png","../images/cyn_red.png","../images/blu_wht.png"],"mutagen_generator_assignment":[0,1],"goal":3,"start":2,"action_noise":0.15,"location_history":"[2,1,3]","action_history":"[0,1]","mutagen_history":"[0,1]","location_rts":"[4105,239]","trial_type":"fractal-mutation","trial_index":81,"time_elapsed":2099602,"internal_node_id":"0.0-5.0-27.0"},{"group":"hexagon_tri","fractal_assignment":["../images/org_blu.png","../images/pnk_blu.png","../images/gry_blk.png","../images/ylw_slt.png","../images/cyn_red.png","../images/blu_wht.png"],"mutagen_generator_assignment":[0,1],"goal":0,"start":3,"action_noise":0.15,"location_history":"[3,2,1,5,4,0]","action_history":"[0,1,1,0,0]","mutagen_history":"[0,1,1,0,0]","location_rts":"[628,345,472,219,373]","trial_type":"fractal-mutation","trial_index":82,"time_elapsed":2111187,"internal_node_id":"0.0-5.0-28.0"},{"group":"hexagon_tri","fractal_assignment":["../images/org_blu.png","../images/pnk_blu.png","../images/gry_blk.png","../images/ylw_slt.png","../images/cyn_red.png","../images/blu_wht.png"],"mutagen_generator_assignment":[0,1],"goal":1,"start":0,"action_noise":0.15,"location_history":"[0,1]","action_history":"[1]","mutagen_history":"[1]","location_rts":"[5440]","trial_type":"fractal-mutation","trial_index":83,"time_elapsed":2121396,"internal_node_id":"0.0-5.0-29.0"},{"group":"hexagon_tri","fractal_assignment":["../images/org_blu.png","../images/pnk_blu.png","../images/gry_blk.png","../images/ylw_slt.png","../images/cyn_red.png","../images/blu_wht.png"],"mutagen_generator_assignment":[0,1],"goal":4,"start":1,"action_noise":0.15,"location_history":"[1,5,4]","action_history":"[1,0]","mutagen_history":"[1,0]","location_rts":"[591,531]","trial_type":"fractal-mutation","trial_index":84,"time_elapsed":2128424,"internal_node_id":"0.0-5.0-30.0"},{"group":"hexagon_tri","fractal_assignment":["../images/org_blu.png","../images/pnk_blu.png","../images/gry_blk.png","../images/ylw_slt.png","../images/cyn_red.png","../images/blu_wht.png"],"mutagen_generator_assignment":[0,1],"goal":5,"start":4,"action_noise":0.15,"location_history":"[4,0,1,5]","action_history":"[0,1,1]","mutagen_history":"[0,1,1]","location_rts":"[613,2311,382]","trial_type":"fractal-mutation","trial_index":85,"time_elapsed":2138954,"internal_node_id":"0.0-5.0-31.0"},{"group":"hexagon_tri","fractal_assignment":["../images/org_blu.png","../images/pnk_blu.png","../images/gry_blk.png","../images/ylw_slt.png","../images/cyn_red.png","../images/blu_wht.png"],"mutagen_generator_assignment":[0,1],"goal":0,"start":5,"action_noise":0.15,"location_history":"[5,4,0]","action_history":"[1,0]","mutagen_history":"[1,0]","location_rts":"[349,231]","trial_type":"fractal-mutation","trial_index":86,"time_elapsed":2145518,"internal_node_id":"0.0-5.0-32.0"},{"group":"hexagon_tri","fractal_assignment":["../images/org_blu.png","../images/pnk_blu.png","../images/gry_blk.png","../images/ylw_slt.png","../images/cyn_red.png","../images/blu_wht.png"],"mutagen_generator_assignment":[0,1],"goal":3,"start":0,"action_noise":0.15,"location_history":"[0,1,3]","action_history":"[1,0]","mutagen_history":"[1,0]","location_rts":"[857,430]","trial_type":"fractal-mutation","trial_index":87,"time_elapsed":2152773,"internal_node_id":"0.0-5.0-33.0"},{"group":"hexagon_tri","fractal_assignment":["../images/org_blu.png","../images/pnk_blu.png","../images/gry_blk.png","../images/ylw_slt.png","../images/cyn_red.png","../images/blu_wht.png"],"mutagen_generator_assignment":[0,1],"goal":1,"start":3,"action_noise":0.15,"location_history":"[3,2,3,4,0,1]","action_history":"[0,1,1,0,1]","mutagen_history":"[0,1,1,0,1]","location_rts":"[1035,29,368,409,256]","trial_type":"fractal-mutation","trial_index":88,"time_elapsed":2164547,"internal_node_id":"0.0-5.0-34.0"},{"group":"hexagon_tri","fractal_assignment":["../images/org_blu.png","../images/pnk_blu.png","../images/gry_blk.png","../images/ylw_slt.png","../images/cyn_red.png","../images/blu_wht.png"],"mutagen_generator_assignment":[0,1],"goal":2,"start":1,"action_noise":0.15,"location_history":"[1,3,4,2]","action_history":"[0,1,1]","mutagen_history":"[0,1,1]","location_rts":"[614,233,461]","trial_type":"fractal-mutation","trial_index":89,"time_elapsed":2173054,"internal_node_id":"0.0-5.0-35.0"},{"group":"hexagon_tri","fractal_assignment":["../images/org_blu.png","../images/pnk_blu.png","../images/gry_blk.png","../images/ylw_slt.png","../images/cyn_red.png","../images/blu_wht.png"],"mutagen_generator_assignment":[0,1],"goal":4,"start":2,"action_noise":0.15,"location_history":"[2,1,5,4]","action_history":"[0,1,0]","mutagen_history":"[0,1,0]","location_rts":"[818,169,374]","trial_type":"fractal-mutation","trial_index":90,"time_elapsed":2181528,"internal_node_id":"0.0-5.0-36.0"},{"group":"hexagon_tri","fractal_assignment":["../images/org_blu.png","../images/pnk_blu.png","../images/gry_blk.png","../images/ylw_slt.png","../images/cyn_red.png","../images/blu_wht.png"],"mutagen_generator_assignment":[0,1],"goal":5,"start":4,"action_noise":0.15,"location_history":"[4,0,1,5]","action_history":"[0,1,1]","mutagen_history":"[0,1,1]","location_rts":"[3548,4740,2016]","trial_type":"fractal-mutation","trial_index":91,"time_elapsed":2199067,"internal_node_id":"0.0-5.0-37.0"},{"group":"hexagon_tri","fractal_assignment":["../images/org_blu.png","../images/pnk_blu.png","../images/gry_blk.png","../images/ylw_slt.png","../images/cyn_red.png","../images/blu_wht.png"],"mutagen_generator_assignment":[0,1],"goal":1,"start":5,"action_noise":0.15,"location_history":"[5,4,2,3,4,2,1]","action_history":"[0,1,0,1,0,0]","mutagen_history":"[0,1,0,1,0,0]","location_rts":"[3798,334,2500,11,2993,7768]","trial_type":"fractal-mutation","trial_index":92,"time_elapsed":2227164,"internal_node_id":"0.0-5.0-38.0"},{"group":"hexagon_tri","fractal_assignment":["../images/org_blu.png","../images/pnk_blu.png","../images/gry_blk.png","../images/ylw_slt.png","../images/cyn_red.png","../images/blu_wht.png"],"mutagen_generator_assignment":[0,1],"goal":4,"start":1,"action_noise":0.15,"location_history":"[1,3,4]","action_history":"[0,1]","mutagen_history":"[0,1]","location_rts":"[315,148]","trial_type":"fractal-mutation","trial_index":93,"time_elapsed":2233547,"internal_node_id":"0.0-5.0-39.0"},{"group":"hexagon_tri","fractal_assignment":["../images/org_blu.png","../images/pnk_blu.png","../images/gry_blk.png","../images/ylw_slt.png","../images/cyn_red.png","../images/blu_wht.png"],"mutagen_generator_assignment":[0,1],"goal":3,"start":4,"action_noise":0.15,"location_history":"[4,0,5,0,5,4,2,3]","action_history":"[0,1,1,0,0,1,1]","mutagen_history":"[0,1,1,0,0,1,1]","location_rts":"[162,372,355,585,926,298,855]","trial_type":"fractal-mutation","trial_index":94,"time_elapsed":2249299,"internal_node_id":"0.0-5.0-40.0"},{"group":"hexagon_tri","fractal_assignment":["../images/org_blu.png","../images/pnk_blu.png","../images/gry_blk.png","../images/ylw_slt.png","../images/cyn_red.png","../images/blu_wht.png"],"mutagen_generator_assignment":[0,1],"goal":2,"start":3,"action_noise":0.15,"location_history":"[3,4,2]","action_history":"[1,1]","mutagen_history":"[1,1]","location_rts":"[1834,406]","trial_type":"fractal-mutation","trial_index":95,"time_elapsed":2257589,"internal_node_id":"0.0-5.0-41.0"},{"group":"hexagon_tri","fractal_assignment":["../images/org_blu.png","../images/pnk_blu.png","../images/gry_blk.png","../images/ylw_slt.png","../images/cyn_red.png","../images/blu_wht.png"],"mutagen_generator_assignment":[0,1],"goal":0,"start":2,"action_noise":0.15,"location_history":"[2,3,2,1,5,0]","action_history":"[1,0,1,1,1]","mutagen_history":"[1,0,1,1,1]","location_rts":"[857,388,516,272,551]","trial_type":"fractal-mutation","trial_index":96,"time_elapsed":2270036,"internal_node_id":"0.0-5.0-42.0"},{"group":"hexagon_tri","fractal_assignment":["../images/org_blu.png","../images/pnk_blu.png","../images/gry_blk.png","../images/ylw_slt.png","../images/cyn_red.png","../images/blu_wht.png"],"mutagen_generator_assignment":[0,1],"goal":5,"start":0,"action_noise":0.15,"location_history":"[0,5]","action_history":"[0]","mutagen_history":"[0]","location_rts":"[3686]","trial_type":"fractal-mutation","trial_index":97,"time_elapsed":2278394,"internal_node_id":"0.0-5.0-43.0"},{"group":"hexagon_tri","fractal_assignment":["../images/org_blu.png","../images/pnk_blu.png","../images/gry_blk.png","../images/ylw_slt.png","../images/cyn_red.png","../images/blu_wht.png"],"mutagen_generator_assignment":[0,1],"goal":0,"start":5,"action_noise":0.15,"location_history":"[5,0]","action_history":"[1]","mutagen_history":"[1]","location_rts":"[1445]","trial_type":"fractal-mutation","trial_index":98,"time_elapsed":2284612,"internal_node_id":"0.0-5.0-44.0"},{"group":"hexagon_tri","fractal_assignment":["../images/org_blu.png","../images/pnk_blu.png","../images/gry_blk.png","../images/ylw_slt.png","../images/cyn_red.png","../images/blu_wht.png"],"mutagen_generator_assignment":[0,1],"goal":2,"start":0,"action_noise":0.15,"location_history":"[0,5,0,1,3,4,2]","action_history":"[1,1,1,0,1,1]","mutagen_history":"[1,1,1,0,1,1]","location_rts":"[794,1014,486,90,273,393]","trial_type":"fractal-mutation","trial_index":99,"time_elapsed":2298807,"internal_node_id":"0.0-5.0-45.0"},{"group":"hexagon_tri","fractal_assignment":["../images/org_blu.png","../images/pnk_blu.png","../images/gry_blk.png","../images/ylw_slt.png","../images/cyn_red.png","../images/blu_wht.png"],"mutagen_generator_assignment":[0,1],"goal":4,"start":2,"action_noise":0.15,"location_history":"[2,3,2,3,2,1,5,0,5,4]","action_history":"[1,0,1,0,0,1,1,0,0]","mutagen_history":"[1,0,1,0,0,1,1,0,0]","location_rts":"[9665,504,236,507,1324,382,501,239,540]","trial_type":"fractal-mutation","trial_index":100,"time_elapsed":2327108,"internal_node_id":"0.0-5.0-46.0"},{"group":"hexagon_tri","fractal_assignment":["../images/org_blu.png","../images/pnk_blu.png","../images/gry_blk.png","../images/ylw_slt.png","../images/cyn_red.png","../images/blu_wht.png"],"mutagen_generator_assignment":[0,1],"goal":1,"start":4,"action_noise":0.15,"location_history":"[4,2,1]","action_history":"[1,0]","mutagen_history":"[1,0]","location_rts":"[4143,886]","trial_type":"fractal-mutation","trial_index":101,"time_elapsed":2338063,"internal_node_id":"0.0-5.0-47.0"},{"group":"hexagon_tri","fractal_assignment":["../images/org_blu.png","../images/pnk_blu.png","../images/gry_blk.png","../images/ylw_slt.png","../images/cyn_red.png","../images/blu_wht.png"],"mutagen_generator_assignment":[0,1],"goal":5,"start":1,"action_noise":0.15,"location_history":"[1,5]","action_history":"[1]","mutagen_history":"[1]","location_rts":"[4284]","trial_type":"fractal-mutation","trial_index":102,"time_elapsed":2347124,"internal_node_id":"0.0-5.0-48.0"},{"group":"hexagon_tri","fractal_assignment":["../images/org_blu.png","../images/pnk_blu.png","../images/gry_blk.png","../images/ylw_slt.png","../images/cyn_red.png","../images/blu_wht.png"],"mutagen_generator_assignment":[0,1],"goal":3,"start":5,"action_noise":0.15,"location_history":"[5,4,0,1,3]","action_history":"[0,1,1,0]","mutagen_history":"[0,1,1,0]","location_rts":"[5304,1558,505,84]","trial_type":"fractal-mutation","trial_index":103,"time_elapsed":2362936,"internal_node_id":"0.0-5.0-49.0"},{"view_history":"[{\"page_index\":0,\"viewing_time\":4832}]","rt":4834,"trial_type":"instructions","trial_index":104,"time_elapsed":2368770,"internal_node_id":"0.0-6.0"},{"rt":3047,"responses":"{\"Q0\":\"\"}","trial_type":"survey-text","trial_index":105,"time_elapsed":2372827,"internal_node_id":"0.0-7.0"}]