[{"view_history":"[{\"page_index\":0,\"viewing_time\":25935},{\"page_index\":1,\"viewing_time\":34330}]","rt":60268,"trial_type":"instructions","trial_index":0,"time_elapsed":60273,"internal_node_id":"0.0-0.0"},{"view_history":"[{\"page_index\":0,\"viewing_time\":12357},{\"page_index\":1,\"viewing_time\":23899}]","rt":36258,"trial_type":"instructions","trial_index":1,"time_elapsed":97534,"internal_node_id":"0.0-1.0"},{"group":"hexagon_bi","room_assignment":["red","blue","purple","yellow","grey","green"],"door_color_assignment":["black","white"],"door_generator_assignment":[0,1],"goal":3,"start":5,"action_noise":0.15,"location_history":"[5,0,5,0,5,0,1,0,5,4,3]","action_history":"[0,0,0,0,1,1,1,0,1,1]","door_history":"[0,0,0,0,1,1,1,0,1,1]","location_rts":"[4849,1534,1553,1751,2259,1675,1349,459,953,1928]","trial_type":"two-door-navigation","trial_index":2,"time_elapsed":129571,"internal_node_id":"0.0-2.0-0.0"},{"group":"hexagon_bi","room_assignment":["red","blue","purple","yellow","grey","green"],"door_color_assignment":["black","white"],"door_generator_assignment":[0,1],"goal":1,"start":3,"action_noise":0.15,"location_history":"[3,4,3,2,1]","action_history":"[0,0,0,0]","door_history":"[0,0,0,0]","location_rts":"[2745,1858,1318,1022]","trial_type":"two-door-navigation","trial_index":3,"time_elapsed":144109,"internal_node_id":"0.0-2.0-1.0"},{"group":"hexagon_bi","room_assignment":["red","blue","purple","yellow","grey","green"],"door_color_assignment":["black","white"],"door_generator_assignment":[0,1],"goal":0,"start":1,"action_noise":0.15,"location_history":"[1,2,3,2,3,4,5,4,5,0]","action_history":"[0,1,1,1,0,1,1,1,0]","door_history":"[0,1,1,1,0,1,1,1,0]","location_rts":"[2958,858,469,718,1506,1053,540,1047,513]","trial_type":"two-door-navigation","trial_index":4,"time_elapsed":166450,"internal_node_id":"0.0-2.0-2.0"},{"group":"hexagon_bi","room_assignment":["red","blue","purple","yellow","grey","green"],"door_color_assignment":["black","white"],"door_generator_assignment":[0,1],"goal":3,"start":0,"action_noise":0.15,"location_history":"[0,1,0,5,4,5,4,3]","action_history":"[1,1,0,0,1,1,0]","door_history":"[1,1,0,0,1,1,0]","location_rts":"[2129,971,368,446,1683,1147,472]","trial_type":"two-door-navigation","trial_index":5,"time_elapsed":184440,"internal_node_id":"0.0-2.0-3.0"},{"group":"hexagon_bi","room_assignment":["red","blue","purple","yellow","grey","green"],"door_color_assignment":["black","white"],"door_generator_assignment":[0,1],"goal":4,"start":3,"action_noise":0.15,"location_history":"[3,2,3,4]","action_history":"[1,0,0]","door_history":"[1,0,0]","location_rts":"[5039,808,559]","trial_type":"two-door-navigation","trial_index":6,"time_elapsed":197398,"internal_node_id":"0.0-2.0-4.0"},{"group":"hexagon_bi","room_assignment":["red","blue","purple","yellow","grey","green"],"door_color_assignment":["black","white"],"door_generator_assignment":[0,1],"goal":2,"start":4,"action_noise":0.15,"location_history":"[4,3,2]","action_history":"[0,1]","door_history":"[0,1]","location_rts":"[3110,844]","trial_type":"two-door-navigation","trial_index":7,"time_elapsed":206890,"internal_node_id":"0.0-2.0-5.0"},{"group":"hexagon_bi","room_assignment":["red","blue","purple","yellow","grey","green"],"door_color_assignment":["black","white"],"door_generator_assignment":[0,1],"goal":1,"start":2,"action_noise":0.15,"location_history":"[2,1]","action_history":"[0]","door_history":"[0]","location_rts":"[1339]","trial_type":"two-door-navigation","trial_index":8,"time_elapsed":212748,"internal_node_id":"0.0-2.0-6.0"},{"group":"hexagon_bi","room_assignment":["red","blue","purple","yellow","grey","green"],"door_color_assignment":["black","white"],"door_generator_assignment":[0,1],"goal":5,"start":1,"action_noise":0.15,"location_history":"[1,2,3,2,3,4,3,4,5]","action_history":"[0,1,1,1,0,0,0,1]","door_history":"[0,1,1,1,0,0,0,1]","location_rts":"[4106,371,987,1100,550,1493,388,597]","trial_type":"two-door-navigation","trial_index":9,"time_elapsed":234028,"internal_node_id":"0.0-2.0-7.0"},{"group":"hexagon_bi","room_assignment":["red","blue","purple","yellow","grey","green"],"door_color_assignment":["black","white"],"door_generator_assignment":[0,1],"goal":4,"start":5,"action_noise":0.15,"location_history":"[5,4]","action_history":"[0]","door_history":"[0]","location_rts":"[3099]","trial_type":"two-door-navigation","trial_index":10,"time_elapsed":241662,"internal_node_id":"0.0-2.0-8.0"},{"group":"hexagon_bi","room_assignment":["red","blue","purple","yellow","grey","green"],"door_color_assignment":["black","white"],"door_generator_assignment":[0,1],"goal":2,"start":4,"action_noise":0.15,"location_history":"[4,3,2]","action_history":"[0,1]","door_history":"[0,1]","location_rts":"[2655,283]","trial_type":"two-door-navigation","trial_index":11,"time_elapsed":250170,"internal_node_id":"0.0-2.0-9.0"},{"group":"hexagon_bi","room_assignment":["red","blue","purple","yellow","grey","green"],"door_color_assignment":["black","white"],"door_generator_assignment":[0,1],"goal":0,"start":2,"action_noise":0.15,"location_history":"[2,1,0]","action_history":"[0,1]","door_history":"[0,1]","location_rts":"[1409,371]","trial_type":"two-door-navigation","trial_index":12,"time_elapsed":257547,"internal_node_id":"0.0-2.0-10.0"},{"group":"hexagon_bi","room_assignment":["red","blue","purple","yellow","grey","green"],"door_color_assignment":["black","white"],"door_generator_assignment":[0,1],"goal":1,"start":0,"action_noise":0.15,"location_history":"[0,1]","action_history":"[1]","door_history":"[1]","location_rts":"[3444]","trial_type":"two-door-navigation","trial_index":13,"time_elapsed":265529,"internal_node_id":"0.0-2.0-11.0"},{"group":"hexagon_bi","room_assignment":["red","blue","purple","yellow","grey","green"],"door_color_assignment":["black","white"],"door_generator_assignment":[0,1],"goal":3,"start":1,"action_noise":0.15,"location_history":"[1,0,1,0,5,4,3]","action_history":"[1,1,1,0,1,1]","door_history":"[1,1,1,0,1,1]","location_rts":"[1609,309,825,595,1661,940]","trial_type":"two-door-navigation","trial_index":14,"time_elapsed":281211,"internal_node_id":"0.0-2.0-12.0"},{"group":"hexagon_bi","room_assignment":["red","blue","purple","yellow","grey","green"],"door_color_assignment":["black","white"],"door_generator_assignment":[0,1],"goal":5,"start":3,"action_noise":0.15,"location_history":"[3,2,1,0,5]","action_history":"[1,0,1,0]","door_history":"[1,0,1,0]","location_rts":"[3626,1154,657,993]","trial_type":"two-door-navigation","trial_index":15,"time_elapsed":296446,"internal_node_id":"0.0-2.0-13.0"},{"group":"hexagon_bi","room_assignment":["red","blue","purple","yellow","grey","green"],"door_color_assignment":["black","white"],"door_generator_assignment":[0,1],"goal":4,"start":5,"action_noise":0.15,"location_history":"[5,4]","action_history":"[0]","door_history":"[0]","location_rts":"[1728]","trial_type":"two-door-navigation","trial_index":16,"time_elapsed":302694,"internal_node_id":"0.0-2.0-14.0"},{"group":"hexagon_bi","room_assignment":["red","blue","purple","yellow","grey","green"],"door_color_assignment":["black","white"],"door_generator_assignment":[0,1],"goal":0,"start":4,"action_noise":0.15,"location_history":"[4,3,2,1,0]","action_history":"[0,1,0,1]","door_history":"[0,1,0,1]","location_rts":"[1935,662,804,378]","trial_type":"two-door-navigation","trial_index":17,"time_elapsed":314106,"internal_node_id":"0.0-2.0-15.0"},{"group":"hexagon_bi","room_assignment":["red","blue","purple","yellow","grey","green"],"door_color_assignment":["black","white"],"door_generator_assignment":[0,1],"goal":3,"start":0,"action_noise":0.15,"location_history":"[0,1,0,1,0,5,4,5,4,3]","action_history":"[1,1,1,0,0,1,1,1,0]","door_history":"[1,1,1,0,0,1,1,1,0]","location_rts":"[1194,3095,1205,468,782,383,1545,1104,349]","trial_type":"two-door-navigation","trial_index":18,"time_elapsed":336930,"internal_node_id":"0.0-2.0-16.0"},{"group":"hexagon_bi","room_assignment":["red","blue","purple","yellow","grey","green"],"door_color_assignment":["black","white"],"door_generator_assignment":[0,1],"goal":1,"start":3,"action_noise":0.15,"location_history":"[3,2,1]","action_history":"[1,0]","door_history":"[1,0]","location_rts":"[1497,1224]","trial_type":"two-door-navigation","trial_index":19,"time_elapsed":345227,"internal_node_id":"0.0-2.0-17.0"},{"group":"hexagon_bi","room_assignment":["red","blue","purple","yellow","grey","green"],"door_color_assignment":["black","white"],"door_generator_assignment":[0,1],"goal":5,"start":1,"action_noise":0.15,"location_history":"[1,0,1,2,1,0,1,2,3,4,5]","action_history":"[1,1,0,1,1,0,0,0,1,1]","door_history":"[1,1,0,1,1,0,0,0,1,1]","location_rts":"[6088,1278,539,1496,840,441,614,149,1102,1147]","trial_type":"two-door-navigation","trial_index":20,"time_elapsed":372671,"internal_node_id":"0.0-2.0-18.0"},{"group":"hexagon_bi","room_assignment":["red","blue","purple","yellow","grey","green"],"door_color_assignment":["black","white"],"door_generator_assignment":[0,1],"goal":2,"start":5,"action_noise":0.15,"location_history":"[5,4,3,2]","action_history":"[1,0,1]","door_history":"[1,0,1]","location_rts":"[1362,756,880]","trial_type":"two-door-navigation","trial_index":21,"time_elapsed":382294,"internal_node_id":"0.0-2.0-19.0"},{"group":"hexagon_bi","room_assignment":["red","blue","purple","yellow","grey","green"],"door_color_assignment":["black","white"],"door_generator_assignment":[0,1],"goal":4,"start":2,"action_noise":0.15,"location_history":"[2,1,0,1,0,5,0,5,4]","action_history":"[0,1,1,1,0,0,0,1]","door_history":"[0,1,1,1,0,0,0,1]","location_rts":"[3385,383,712,861,326,624,1111,652]","trial_type":"two-door-navigation","trial_index":22,"time_elapsed":402033,"internal_node_id":"0.0-2.0-20.0"},{"group":"hexagon_bi","room_assignment":["red","blue","purple","yellow","grey","green"],"door_color_assignment":["black","white"],"door_generator_assignment":[0,1],"goal":1,"start":4,"action_noise":0.15,"location_history":"[4,5,0,1]","action_history":"[1,0,1]","door_history":"[1,0,1]","location_rts":"[1505,504,575]","trial_type":"two-door-navigation","trial_index":23,"time_elapsed":411212,"internal_node_id":"0.0-2.0-21.0"},{"group":"hexagon_bi","room_assignment":["red","blue","purple","yellow","grey","green"],"door_color_assignment":["black","white"],"door_generator_assignment":[0,1],"goal":3,"start":1,"action_noise":0.15,"location_history":"[1,0,5,4,3]","action_history":"[0,0,1,0]","door_history":"[0,0,1,0]","location_rts":"[1207,530,1344,894]","trial_type":"two-door-navigation","trial_index":24,"time_elapsed":422834,"internal_node_id":"0.0-2.0-22.0"},{"group":"hexagon_bi","room_assignment":["red","blue","purple","yellow","grey","green"],"door_color_assignment":["black","white"],"door_generator_assignment":[0,1],"goal":2,"start":3,"action_noise":0.15,"location_history":"[3,2]","action_history":"[1]","door_history":"[1]","location_rts":"[1557]","trial_type":"two-door-navigation","trial_index":25,"time_elapsed":428948,"internal_node_id":"0.0-2.0-23.0"},{"group":"hexagon_bi","room_assignment":["red","blue","purple","yellow","grey","green"],"door_color_assignment":["black","white"],"door_generator_assignment":[0,1],"goal":0,"start":2,"action_noise":0.15,"location_history":"[2,1,0]","action_history":"[0,1]","door_history":"[0,1]","location_rts":"[2240,1482]","trial_type":"two-door-navigation","trial_index":26,"time_elapsed":438211,"internal_node_id":"0.0-2.0-24.0"},{"group":"hexagon_bi","room_assignment":["red","blue","purple","yellow","grey","green"],"door_color_assignment":["black","white"],"door_generator_assignment":[0,1],"goal":5,"start":0,"action_noise":0.15,"location_history":"[0,1,0,5]","action_history":"[1,1,0]","door_history":"[1,1,0]","location_rts":"[1160,358,212]","trial_type":"two-door-navigation","trial_index":27,"time_elapsed":446499,"internal_node_id":"0.0-2.0-25.0"},{"group":"hexagon_bi","room_assignment":["red","blue","purple","yellow","grey","green"],"door_color_assignment":["black","white"],"door_generator_assignment":[0,1],"goal":2,"start":5,"action_noise":0.15,"location_history":"[5,0,5,0,1,2]","action_history":"[1,0,0,1,0]","door_history":"[1,0,0,1,0]","location_rts":"[1617,1061,1346,546,506]","trial_type":"two-door-navigation","trial_index":28,"time_elapsed":460201,"internal_node_id":"0.0-2.0-26.0"},{"group":"hexagon_bi","room_assignment":["red","blue","purple","yellow","grey","green"],"door_color_assignment":["black","white"],"door_generator_assignment":[0,1],"goal":3,"start":2,"action_noise":0.15,"location_history":"[2,3]","action_history":"[1]","door_history":"[1]","location_rts":"[1248]","trial_type":"two-door-navigation","trial_index":29,"time_elapsed":466005,"internal_node_id":"0.0-2.0-27.0"},{"group":"hexagon_bi","room_assignment":["red","blue","purple","yellow","grey","green"],"door_color_assignment":["black","white"],"door_generator_assignment":[0,1],"goal":0,"start":3,"action_noise":0.15,"location_history":"[3,4,3,2,1,0]","action_history":"[0,0,1,0,1]","door_history":"[0,0,1,0,1]","location_rts":"[1322,930,488,1651,149]","trial_type":"two-door-navigation","trial_index":30,"time_elapsed":481029,"internal_node_id":"0.0-2.0-28.0"},{"group":"hexagon_bi","room_assignment":["red","blue","purple","yellow","grey","green"],"door_color_assignment":["black","white"],"door_generator_assignment":[0,1],"goal":1,"start":0,"action_noise":0.15,"location_history":"[0,1]","action_history":"[1]","door_history":"[1]","location_rts":"[2807]","trial_type":"two-door-navigation","trial_index":31,"time_elapsed":488382,"internal_node_id":"0.0-2.0-29.0"},{"group":"hexagon_bi","room_assignment":["red","blue","purple","yellow","grey","green"],"door_color_assignment":["black","white"],"door_generator_assignment":[0,1],"goal":4,"start":1,"action_noise":0.15,"location_history":"[1,0,5,0,1,0,5,0,5,4]","action_history":"[1,0,0,1,1,0,0,0,1]","door_history":"[1,0,0,1,1,0,0,0,1]","location_rts":"[1843,1169,544,1362,295,591,618,981,285]","trial_type":"two-door-navigation","trial_index":32,"time_elapsed":508749,"internal_node_id":"0.0-2.0-30.0"},{"group":"hexagon_bi","room_assignment":["red","blue","purple","yellow","grey","green"],"door_color_assignment":["black","white"],"door_generator_assignment":[0,1],"goal":5,"start":4,"action_noise":0.15,"location_history":"[4,5]","action_history":"[1]","door_history":"[1]","location_rts":"[2517]","trial_type":"two-door-navigation","trial_index":33,"time_elapsed":515794,"internal_node_id":"0.0-2.0-31.0"},{"group":"hexagon_bi","room_assignment":["red","blue","purple","yellow","grey","green"],"door_color_assignment":["black","white"],"door_generator_assignment":[0,1],"goal":0,"start":5,"action_noise":0.15,"location_history":"[5,4,5,0]","action_history":"[1,0,0]","door_history":"[1,0,0]","location_rts":"[1555,635,423]","trial_type":"two-door-navigation","trial_index":34,"time_elapsed":524959,"internal_node_id":"0.0-2.0-32.0"},{"group":"hexagon_bi","room_assignment":["red","blue","purple","yellow","grey","green"],"door_color_assignment":["black","white"],"door_generator_assignment":[0,1],"goal":3,"start":0,"action_noise":0.15,"location_history":"[0,1,0,1,0,5,0,1,0,5,4,5,0,5,0,5,4,3]","action_history":"[1,0,0,1,1,0,0,1,1,1,0,0,1,0,0,1,0]","door_history":"[1,0,0,1,1,0,0,1,1,1,0,0,1,0,0,1,0]","location_rts":"[1437,723,310,89,764,2662,1417,252,529,1143,3890,1402,849,1221,826,804,1524]","trial_type":"two-door-navigation","trial_index":35,"time_elapsed":565770,"internal_node_id":"0.0-2.0-33.0"},{"group":"hexagon_bi","room_assignment":["red","blue","purple","yellow","grey","green"],"door_color_assignment":["black","white"],"door_generator_assignment":[0,1],"goal":1,"start":3,"action_noise":0.15,"location_history":"[3,4,5,0,1]","action_history":"[1,1,0,1]","door_history":"[1,1,0,1]","location_rts":"[1348,1300,1266,1231]","trial_type":"two-door-navigation","trial_index":36,"time_elapsed":578563,"internal_node_id":"0.0-2.0-34.0"},{"group":"hexagon_bi","room_assignment":["red","blue","purple","yellow","grey","green"],"door_color_assignment":["black","white"],"door_generator_assignment":[0,1],"goal":2,"start":1,"action_noise":0.15,"location_history":"[1,2]","action_history":"[0]","door_history":"[0]","location_rts":"[1241]","trial_type":"two-door-navigation","trial_index":37,"time_elapsed":584350,"internal_node_id":"0.0-2.0-35.0"},{"group":"hexagon_bi","room_assignment":["red","blue","purple","yellow","grey","green"],"door_color_assignment":["black","white"],"door_generator_assignment":[0,1],"goal":4,"start":2,"action_noise":0.15,"location_history":"[2,3,4]","action_history":"[1,1]","door_history":"[1,1]","location_rts":"[1418,1119]","trial_type":"two-door-navigation","trial_index":38,"time_elapsed":592427,"internal_node_id":"0.0-2.0-36.0"},{"group":"hexagon_bi","room_assignment":["red","blue","purple","yellow","grey","green"],"door_color_assignment":["black","white"],"door_generator_assignment":[0,1],"goal":5,"start":4,"action_noise":0.15,"location_history":"[4,5]","action_history":"[1]","door_history":"[1]","location_rts":"[1255]","trial_type":"two-door-navigation","trial_index":39,"time_elapsed":598197,"internal_node_id":"0.0-2.0-37.0"},{"group":"hexagon_bi","room_assignment":["red","blue","purple","yellow","grey","green"],"door_color_assignment":["black","white"],"door_generator_assignment":[0,1],"goal":1,"start":5,"action_noise":0.15,"location_history":"[5,4,5,0,1]","action_history":"[1,1,0,1]","door_history":"[1,1,0,1]","location_rts":"[1973,824,1081,1201]","trial_type":"two-door-navigation","trial_index":40,"time_elapsed":610983,"internal_node_id":"0.0-2.0-38.0"},{"group":"hexagon_bi","room_assignment":["red","blue","purple","yellow","grey","green"],"door_color_assignment":["black","white"],"door_generator_assignment":[0,1],"goal":4,"start":1,"action_noise":0.15,"location_history":"[1,0,5,4]","action_history":"[1,1,1]","door_history":"[1,1,1]","location_rts":"[2121,1156,259]","trial_type":"two-door-navigation","trial_index":41,"time_elapsed":621083,"internal_node_id":"0.0-2.0-39.0"},{"group":"hexagon_bi","room_assignment":["red","blue","purple","yellow","grey","green"],"door_color_assignment":["black","white"],"door_generator_assignment":[0,1],"goal":3,"start":4,"action_noise":0.15,"location_history":"[4,5,0,1,0,5,4,3]","action_history":"[1,0,1,1,0,1,0]","door_history":"[1,0,1,1,0,1,0]","location_rts":"[1130,81,1006,507,1071,1185,369]","trial_type":"two-door-navigation","trial_index":42,"time_elapsed":637119,"internal_node_id":"0.0-2.0-40.0"},{"group":"hexagon_bi","room_assignment":["red","blue","purple","yellow","grey","green"],"door_color_assignment":["black","white"],"door_generator_assignment":[0,1],"goal":2,"start":3,"action_noise":0.15,"location_history":"[3,2]","action_history":"[1]","door_history":"[1]","location_rts":"[1118]","trial_type":"two-door-navigation","trial_index":43,"time_elapsed":642774,"internal_node_id":"0.0-2.0-41.0"},{"group":"hexagon_bi","room_assignment":["red","blue","purple","yellow","grey","green"],"door_color_assignment":["black","white"],"door_generator_assignment":[0,1],"goal":0,"start":2,"action_noise":0.15,"location_history":"[2,1,0]","action_history":"[0,1]","door_history":"[0,1]","location_rts":"[2470,284]","trial_type":"two-door-navigation","trial_index":44,"time_elapsed":651229,"internal_node_id":"0.0-2.0-42.0"},{"group":"hexagon_bi","room_assignment":["red","blue","purple","yellow","grey","green"],"door_color_assignment":["black","white"],"door_generator_assignment":[0,1],"goal":5,"start":0,"action_noise":0.15,"location_history":"[0,1,2,1,0,1,2,3,4,3,2,3,4,3,4,5]","action_history":"[1,0,1,1,1,0,1,0,1,1,1,0,0,0,1]","door_history":"[1,0,1,1,1,0,1,0,1,1,1,0,0,0,1]","location_rts":"[1621,1648,476,619,1199,1158,541,899,1247,520,353,450,542,627,545]","trial_type":"two-door-navigation","trial_index":45,"time_elapsed":682643,"internal_node_id":"0.0-2.0-43.0"},{"group":"hexagon_bi","room_assignment":["red","blue","purple","yellow","grey","green"],"door_color_assignment":["black","white"],"door_generator_assignment":[0,1],"goal":0,"start":5,"action_noise":0.15,"location_history":"[5,4,5,0]","action_history":"[1,1,0]","door_history":"[1,1,0]","location_rts":"[1737,1471,1938]","trial_type":"two-door-navigation","trial_index":46,"time_elapsed":694361,"internal_node_id":"0.0-2.0-44.0"},{"group":"hexagon_bi","room_assignment":["red","blue","purple","yellow","grey","green"],"door_color_assignment":["black","white"],"door_generator_assignment":[0,1],"goal":2,"start":0,"action_noise":0.15,"location_history":"[0,5,0,5,0,1,2]","action_history":"[1,0,0,0,1,0]","door_history":"[1,0,0,0,1,0]","location_rts":"[1631,1580,1186,1168,362,538]","trial_type":"two-door-navigation","trial_index":47,"time_elapsed":710547,"internal_node_id":"0.0-2.0-45.0"},{"group":"hexagon_bi","room_assignment":["red","blue","purple","yellow","grey","green"],"door_color_assignment":["black","white"],"door_generator_assignment":[0,1],"goal":4,"start":2,"action_noise":0.15,"location_history":"[2,3,4]","action_history":"[1,0]","door_history":"[1,0]","location_rts":"[2134,744]","trial_type":"two-door-navigation","trial_index":48,"time_elapsed":718988,"internal_node_id":"0.0-2.0-46.0"},{"group":"hexagon_bi","room_assignment":["red","blue","purple","yellow","grey","green"],"door_color_assignment":["black","white"],"door_generator_assignment":[0,1],"goal":1,"start":4,"action_noise":0.15,"location_history":"[4,5,4,5,0,1]","action_history":"[1,0,1,1,1]","door_history":"[1,0,1,1,1]","location_rts":"[1315,1318,746,251,2261]","trial_type":"two-door-navigation","trial_index":49,"time_elapsed":733644,"internal_node_id":"0.0-2.0-47.0"},{"group":"hexagon_bi","room_assignment":["red","blue","purple","yellow","grey","green"],"door_color_assignment":["black","white"],"door_generator_assignment":[0,1],"goal":5,"start":1,"action_noise":0.15,"location_history":"[1,2,3,4,5]","action_history":"[0,1,0,1]","door_history":"[0,1,0,1]","location_rts":"[1785,860,1063,1025]","trial_type":"two-door-navigation","trial_index":50,"time_elapsed":745983,"internal_node_id":"0.0-2.0-48.0"},{"group":"hexagon_bi","room_assignment":["red","blue","purple","yellow","grey","green"],"door_color_assignment":["black","white"],"door_generator_assignment":[0,1],"goal":3,"start":5,"action_noise":0.15,"location_history":"[5,0,1,2,1,2,3]","action_history":"[0,1,0,0,0,1]","door_history":"[0,1,0,0,0,1]","location_rts":"[3767,1420,1115,479,922,188]","trial_type":"two-door-navigation","trial_index":51,"time_elapsed":763491,"internal_node_id":"0.0-2.0-49.0"},{"view_history":"[{\"page_index\":0,\"viewing_time\":319570}]","rt":319572,"trial_type":"instructions","trial_index":52,"time_elapsed":1084064,"internal_node_id":"0.0-3.0"},{"view_history":"[{\"page_index\":0,\"viewing_time\":138562},{\"page_index\":1,\"viewing_time\":55923}]","rt":194489,"trial_type":"instructions","trial_index":53,"time_elapsed":1279553,"internal_node_id":"0.0-4.0"},{"group":"hexagon_tri","fractal_assignment":["../images/pnk_blu.png","../images/gry_blk.png","../images/org_blu.png","../images/blu_wht.png","../images/cyn_red.png","../images/ylw_slt.png"],"mutagen_generator_assignment":[1,0],"goal":3,"start":5,"action_noise":0.15,"location_history":"[5,0,5,4,0,1,3]","action_history":"[1,1,0,0,0,0]","mutagen_history":"[0,0,1,1,1,1]","location_rts":"[3614,9120,1143,1088,1154,1648]","trial_type":"fractal-mutation","trial_index":54,"time_elapsed":1308900,"internal_node_id":"0.0-5.0-0.0"},{"group":"hexagon_tri","fractal_assignment":["../images/pnk_blu.png","../images/gry_blk.png","../images/org_blu.png","../images/blu_wht.png","../images/cyn_red.png","../images/ylw_slt.png"],"mutagen_generator_assignment":[1,0],"goal":1,"start":3,"action_noise":0.15,"location_history":"[3,4,2,3,4,2,3,2,1]","action_history":"[1,1,1,0,1,0,0,0]","mutagen_history":"[0,0,0,1,0,1,1,1]","location_rts":"[2062,1399,1432,1843,1591,1370,1537,1266]","trial_type":"fractal-mutation","trial_index":55,"time_elapsed":1335264,"internal_node_id":"0.0-5.0-1.0"},{"group":"hexagon_tri","fractal_assignment":["../images/pnk_blu.png","../images/gry_blk.png","../images/org_blu.png","../images/blu_wht.png","../images/cyn_red.png","../images/ylw_slt.png"],"mutagen_generator_assignment":[1,0],"goal":0,"start":1,"action_noise":0.15,"location_history":"[1,5,0]","action_history":"[1,1]","mutagen_history":"[0,0]","location_rts":"[2394,1057]","trial_type":"fractal-mutation","trial_index":56,"time_elapsed":1344609,"internal_node_id":"0.0-5.0-2.0"},{"group":"hexagon_tri","fractal_assignment":["../images/pnk_blu.png","../images/gry_blk.png","../images/org_blu.png","../images/blu_wht.png","../images/cyn_red.png","../images/ylw_slt.png"],"mutagen_generator_assignment":[1,0],"goal":3,"start":0,"action_noise":0.15,"location_history":"[0,5,0,5,4,0,5,0,5,0,1,3]","action_history":"[0,0,0,0,0,0,1,1,1,1,0]","mutagen_history":"[1,1,1,1,1,1,0,0,0,0,1]","location_rts":"[2969,771,951,891,1578,1916,657,759,756,708,2388]","trial_type":"fractal-mutation","trial_index":57,"time_elapsed":1376335,"internal_node_id":"0.0-5.0-3.0"},{"group":"hexagon_tri","fractal_assignment":["../images/pnk_blu.png","../images/gry_blk.png","../images/org_blu.png","../images/blu_wht.png","../images/cyn_red.png","../images/ylw_slt.png"],"mutagen_generator_assignment":[1,0],"goal":4,"start":3,"action_noise":0.15,"location_history":"[3,4]","action_history":"[1]","mutagen_history":"[0]","location_rts":"[2972]","trial_type":"fractal-mutation","trial_index":58,"time_elapsed":1383900,"internal_node_id":"0.0-5.0-4.0"},{"group":"hexagon_tri","fractal_assignment":["../images/pnk_blu.png","../images/gry_blk.png","../images/org_blu.png","../images/blu_wht.png","../images/cyn_red.png","../images/ylw_slt.png"],"mutagen_generator_assignment":[1,0],"goal":2,"start":4,"action_noise":0.15,"location_history":"[4,2]","action_history":"[1]","mutagen_history":"[0]","location_rts":"[1674]","trial_type":"fractal-mutation","trial_index":59,"time_elapsed":1390295,"internal_node_id":"0.0-5.0-5.0"},{"group":"hexagon_tri","fractal_assignment":["../images/pnk_blu.png","../images/gry_blk.png","../images/org_blu.png","../images/blu_wht.png","../images/cyn_red.png","../images/ylw_slt.png"],"mutagen_generator_assignment":[1,0],"goal":1,"start":2,"action_noise":0.15,"location_history":"[2,3,2,3,4,2,3,2,1]","action_history":"[1,1,1,1,1,1,0,0]","mutagen_history":"[0,0,0,0,0,0,1,1]","location_rts":"[1660,509,411,654,1560,897,498,538]","trial_type":"fractal-mutation","trial_index":60,"time_elapsed":1410694,"internal_node_id":"0.0-5.0-6.0"},{"group":"hexagon_tri","fractal_assignment":["../images/pnk_blu.png","../images/gry_blk.png","../images/org_blu.png","../images/blu_wht.png","../images/cyn_red.png","../images/ylw_slt.png"],"mutagen_generator_assignment":[1,0],"goal":5,"start":1,"action_noise":0.15,"location_history":"[1,5]","action_history":"[1]","mutagen_history":"[0]","location_rts":"[1445]","trial_type":"fractal-mutation","trial_index":61,"time_elapsed":1416983,"internal_node_id":"0.0-5.0-7.0"},{"group":"hexagon_tri","fractal_assignment":["../images/pnk_blu.png","../images/gry_blk.png","../images/org_blu.png","../images/blu_wht.png","../images/cyn_red.png","../images/ylw_slt.png"],"mutagen_generator_assignment":[1,0],"goal":4,"start":5,"action_noise":0.15,"location_history":"[5,0,5,0,1,3,4]","action_history":"[1,1,0,0,0,1]","mutagen_history":"[0,0,1,1,1,0]","location_rts":"[2105,674,1429,647,708,815]","trial_type":"fractal-mutation","trial_index":62,"time_elapsed":1434747,"internal_node_id":"0.0-5.0-8.0"},{"group":"hexagon_tri","fractal_assignment":["../images/pnk_blu.png","../images/gry_blk.png","../images/org_blu.png","../images/blu_wht.png","../images/cyn_red.png","../images/ylw_slt.png"],"mutagen_generator_assignment":[1,0],"goal":2,"start":4,"action_noise":0.15,"location_history":"[4,2]","action_history":"[1]","mutagen_history":"[0]","location_rts":"[1970]","trial_type":"fractal-mutation","trial_index":63,"time_elapsed":1441481,"internal_node_id":"0.0-5.0-9.0"},{"group":"hexagon_tri","fractal_assignment":["../images/pnk_blu.png","../images/gry_blk.png","../images/org_blu.png","../images/blu_wht.png","../images/cyn_red.png","../images/ylw_slt.png"],"mutagen_generator_assignment":[1,0],"goal":0,"start":2,"action_noise":0.15,"location_history":"[2,3,4,2,3,4,2,3,2,1,3,2,3,4,2,1,5,0]","action_history":"[1,1,1,1,1,1,1,0,0,0,0,0,1,1,0,1,1]","mutagen_history":"[0,0,0,0,0,0,0,1,1,1,1,1,0,0,1,0,0]","location_rts":"[1650,370,512,600,1710,393,1107,521,515,432,541,511,330,451,1783,1220,1032]","trial_type":"fractal-mutation","trial_index":64,"time_elapsed":1480184,"internal_node_id":"0.0-5.0-10.0"},{"group":"hexagon_tri","fractal_assignment":["../images/pnk_blu.png","../images/gry_blk.png","../images/org_blu.png","../images/blu_wht.png","../images/cyn_red.png","../images/ylw_slt.png"],"mutagen_generator_assignment":[1,0],"goal":1,"start":0,"action_noise":0.15,"location_history":"[0,5,4,0,5,0,1]","action_history":"[0,0,0,0,1,1]","mutagen_history":"[1,1,1,1,0,0]","location_rts":"[1981,607,3257,1223,1014,543]","trial_type":"fractal-mutation","trial_index":65,"time_elapsed":1500000,"internal_node_id":"0.0-5.0-11.0"},{"group":"hexagon_tri","fractal_assignment":["../images/pnk_blu.png","../images/gry_blk.png","../images/org_blu.png","../images/blu_wht.png","../images/cyn_red.png","../images/ylw_slt.png"],"mutagen_generator_assignment":[1,0],"goal":3,"start":1,"action_noise":0.15,"location_history":"[1,3]","action_history":"[0]","mutagen_history":"[1]","location_rts":"[3853]","trial_type":"fractal-mutation","trial_index":66,"time_elapsed":1508627,"internal_node_id":"0.0-5.0-12.0"},{"group":"hexagon_tri","fractal_assignment":["../images/pnk_blu.png","../images/gry_blk.png","../images/org_blu.png","../images/blu_wht.png","../images/cyn_red.png","../images/ylw_slt.png"],"mutagen_generator_assignment":[1,0],"goal":5,"start":3,"action_noise":0.15,"location_history":"[3,2,3,4,2,3,2,3,2,3,2,3,4,0,1,5]","action_history":"[0,1,1,1,1,0,0,0,0,0,1,1,1,1,1]","mutagen_history":"[1,0,0,0,0,1,1,1,1,1,0,0,0,0,0]","location_rts":"[2265,942,730,1918,1263,667,360,501,521,409,374,431,904,1315,1968]","trial_type":"fractal-mutation","trial_index":67,"time_elapsed":1545282,"internal_node_id":"0.0-5.0-13.0"},{"group":"hexagon_tri","fractal_assignment":["../images/pnk_blu.png","../images/gry_blk.png","../images/org_blu.png","../images/blu_wht.png","../images/cyn_red.png","../images/ylw_slt.png"],"mutagen_generator_assignment":[1,0],"goal":4,"start":5,"action_noise":0.15,"location_history":"[5,4]","action_history":"[0]","mutagen_history":"[1]","location_rts":"[1617]","trial_type":"fractal-mutation","trial_index":68,"time_elapsed":1551740,"internal_node_id":"0.0-5.0-14.0"},{"group":"hexagon_tri","fractal_assignment":["../images/pnk_blu.png","../images/gry_blk.png","../images/org_blu.png","../images/blu_wht.png","../images/cyn_red.png","../images/ylw_slt.png"],"mutagen_generator_assignment":[1,0],"goal":0,"start":4,"action_noise":0.15,"location_history":"[4,2,3,4,0]","action_history":"[1,1,1,0]","mutagen_history":"[0,0,0,1]","location_rts":"[20262,928,1317,401]","trial_type":"fractal-mutation","trial_index":69,"time_elapsed":1583434,"internal_node_id":"0.0-5.0-15.0"},{"group":"hexagon_tri","fractal_assignment":["../images/pnk_blu.png","../images/gry_blk.png","../images/org_blu.png","../images/blu_wht.png","../images/cyn_red.png","../images/ylw_slt.png"],"mutagen_generator_assignment":[1,0],"goal":3,"start":0,"action_noise":0.15,"location_history":"[0,5,4,0,1,5,4,0,1,5,4,2,3]","action_history":"[0,0,0,1,1,0,0,1,1,0,1,1]","mutagen_history":"[1,1,1,0,0,1,1,0,0,1,0,0]","location_rts":"[1396,726,1423,1273,584,652,868,1960,664,651,534,620]","trial_type":"fractal-mutation","trial_index":70,"time_elapsed":1613608,"internal_node_id":"0.0-5.0-16.0"},{"group":"hexagon_tri","fractal_assignment":["../images/pnk_blu.png","../images/gry_blk.png","../images/org_blu.png","../images/blu_wht.png","../images/cyn_red.png","../images/ylw_slt.png"],"mutagen_generator_assignment":[1,0],"goal":1,"start":3,"action_noise":0.15,"location_history":"[3,4,2,3,4,2,1]","action_history":"[1,1,0,1,1,1]","mutagen_history":"[0,0,1,0,0,0]","location_rts":"[1721,1415,770,535,117,173]","trial_type":"fractal-mutation","trial_index":71,"time_elapsed":1629033,"internal_node_id":"0.0-5.0-17.0"},{"group":"hexagon_tri","fractal_assignment":["../images/pnk_blu.png","../images/gry_blk.png","../images/org_blu.png","../images/blu_wht.png","../images/cyn_red.png","../images/ylw_slt.png"],"mutagen_generator_assignment":[1,0],"goal":5,"start":1,"action_noise":0.15,"location_history":"[1,5]","action_history":"[1]","mutagen_history":"[0]","location_rts":"[1747]","trial_type":"fractal-mutation","trial_index":72,"time_elapsed":1635575,"internal_node_id":"0.0-5.0-18.0"},{"group":"hexagon_tri","fractal_assignment":["../images/pnk_blu.png","../images/gry_blk.png","../images/org_blu.png","../images/blu_wht.png","../images/cyn_red.png","../images/ylw_slt.png"],"mutagen_generator_assignment":[1,0],"goal":2,"start":5,"action_noise":0.15,"location_history":"[5,0,1,5,4,2]","action_history":"[1,1,1,0,1]","mutagen_history":"[0,0,0,1,0]","location_rts":"[2307,771,475,908,1038]","trial_type":"fractal-mutation","trial_index":73,"time_elapsed":1650730,"internal_node_id":"0.0-5.0-19.0"},{"group":"hexagon_tri","fractal_assignment":["../images/pnk_blu.png","../images/gry_blk.png","../images/org_blu.png","../images/blu_wht.png","../images/cyn_red.png","../images/ylw_slt.png"],"mutagen_generator_assignment":[1,0],"goal":4,"start":2,"action_noise":0.15,"location_history":"[2,1,3,2,3,4]","action_history":"[0,0,0,1,1]","mutagen_history":"[1,1,1,0,0]","location_rts":"[1332,619,596,855,387]","trial_type":"fractal-mutation","trial_index":74,"time_elapsed":1664442,"internal_node_id":"0.0-5.0-20.0"},{"group":"hexagon_tri","fractal_assignment":["../images/pnk_blu.png","../images/gry_blk.png","../images/org_blu.png","../images/blu_wht.png","../images/cyn_red.png","../images/ylw_slt.png"],"mutagen_generator_assignment":[1,0],"goal":1,"start":4,"action_noise":0.15,"location_history":"[4,2,3,4,2,1]","action_history":"[1,1,1,0,0]","mutagen_history":"[0,0,0,1,1]","location_rts":"[1043,298,484,501,418]","trial_type":"fractal-mutation","trial_index":75,"time_elapsed":1677133,"internal_node_id":"0.0-5.0-21.0"},{"group":"hexagon_tri","fractal_assignment":["../images/pnk_blu.png","../images/gry_blk.png","../images/org_blu.png","../images/blu_wht.png","../images/cyn_red.png","../images/ylw_slt.png"],"mutagen_generator_assignment":[1,0],"goal":3,"start":1,"action_noise":0.15,"location_history":"[1,5,0,1,5,0,1,3]","action_history":"[1,1,1,1,1,1,0]","mutagen_history":"[0,0,0,0,0,0,1]","location_rts":"[1799,665,721,846,740,856,322]","trial_type":"fractal-mutation","trial_index":76,"time_elapsed":1695150,"internal_node_id":"0.0-5.0-22.0"},{"group":"hexagon_tri","fractal_assignment":["../images/pnk_blu.png","../images/gry_blk.png","../images/org_blu.png","../images/blu_wht.png","../images/cyn_red.png","../images/ylw_slt.png"],"mutagen_generator_assignment":[1,0],"goal":2,"start":3,"action_noise":0.15,"location_history":"[3,2]","action_history":"[0]","mutagen_history":"[1]","location_rts":"[2331]","trial_type":"fractal-mutation","trial_index":77,"time_elapsed":1702041,"internal_node_id":"0.0-5.0-23.0"},{"group":"hexagon_tri","fractal_assignment":["../images/pnk_blu.png","../images/gry_blk.png","../images/org_blu.png","../images/blu_wht.png","../images/cyn_red.png","../images/ylw_slt.png"],"mutagen_generator_assignment":[1,0],"goal":0,"start":2,"action_noise":0.15,"location_history":"[2,3,2,1,3,2,3,4,0]","action_history":"[1,0,0,0,0,1,1,0]","mutagen_history":"[0,1,1,1,1,0,0,1]","location_rts":"[2306,926,380,453,770,861,454,353]","trial_type":"fractal-mutation","trial_index":78,"time_elapsed":1721097,"internal_node_id":"0.0-5.0-24.0"},{"group":"hexagon_tri","fractal_assignment":["../images/pnk_blu.png","../images/gry_blk.png","../images/org_blu.png","../images/blu_wht.png","../images/cyn_red.png","../images/ylw_slt.png"],"mutagen_generator_assignment":[1,0],"goal":5,"start":0,"action_noise":0.15,"location_history":"[0,1,5]","action_history":"[1,1]","mutagen_history":"[0,0]","location_rts":"[1569,947]","trial_type":"fractal-mutation","trial_index":79,"time_elapsed":1729441,"internal_node_id":"0.0-5.0-25.0"},{"group":"hexagon_tri","fractal_assignment":["../images/pnk_blu.png","../images/gry_blk.png","../images/org_blu.png","../images/blu_wht.png","../images/cyn_red.png","../images/ylw_slt.png"],"mutagen_generator_assignment":[1,0],"goal":2,"start":5,"action_noise":0.15,"location_history":"[5,0,1,5,0,5,0,5,4,2]","action_history":"[1,1,1,1,0,0,0,0,1]","mutagen_history":"[0,0,0,0,1,1,1,1,0]","location_rts":"[1495,706,691,638,587,518,539,495,739]","trial_type":"fractal-mutation","trial_index":80,"time_elapsed":1750585,"internal_node_id":"0.0-5.0-26.0"},{"group":"hexagon_tri","fractal_assignment":["../images/pnk_blu.png","../images/gry_blk.png","../images/org_blu.png","../images/blu_wht.png","../images/cyn_red.png","../images/ylw_slt.png"],"mutagen_generator_assignment":[1,0],"goal":3,"start":2,"action_noise":0.15,"location_history":"[2,1,3]","action_history":"[0,0]","mutagen_history":"[1,1]","location_rts":"[1673,683]","trial_type":"fractal-mutation","trial_index":81,"time_elapsed":1758779,"internal_node_id":"0.0-5.0-27.0"},{"group":"hexagon_tri","fractal_assignment":["../images/pnk_blu.png","../images/gry_blk.png","../images/org_blu.png","../images/blu_wht.png","../images/cyn_red.png","../images/ylw_slt.png"],"mutagen_generator_assignment":[1,0],"goal":0,"start":3,"action_noise":0.15,"location_history":"[3,2,3,4,2,3,4,0]","action_history":"[0,1,1,1,1,1,0]","mutagen_history":"[1,0,0,0,0,0,1]","location_rts":"[1639,301,1091,338,22581,406,625]","trial_type":"fractal-mutation","trial_index":82,"time_elapsed":1797674,"internal_node_id":"0.0-5.0-28.0"},{"group":"hexagon_tri","fractal_assignment":["../images/pnk_blu.png","../images/gry_blk.png","../images/org_blu.png","../images/blu_wht.png","../images/cyn_red.png","../images/ylw_slt.png"],"mutagen_generator_assignment":[1,0],"goal":1,"start":0,"action_noise":0.15,"location_history":"[0,5,4,2,3,2,1]","action_history":"[0,0,1,1,0,0]","mutagen_history":"[1,1,0,0,1,1]","location_rts":"[1938,447,1034,891,1062,491]","trial_type":"fractal-mutation","trial_index":83,"time_elapsed":1814730,"internal_node_id":"0.0-5.0-29.0"},{"group":"hexagon_tri","fractal_assignment":["../images/pnk_blu.png","../images/gry_blk.png","../images/org_blu.png","../images/blu_wht.png","../images/cyn_red.png","../images/ylw_slt.png"],"mutagen_generator_assignment":[1,0],"goal":4,"start":1,"action_noise":0.15,"location_history":"[1,3,4]","action_history":"[0,1]","mutagen_history":"[1,0]","location_rts":"[1988,957]","trial_type":"fractal-mutation","trial_index":84,"time_elapsed":1823888,"internal_node_id":"0.0-5.0-30.0"},{"group":"hexagon_tri","fractal_assignment":["../images/pnk_blu.png","../images/gry_blk.png","../images/org_blu.png","../images/blu_wht.png","../images/cyn_red.png","../images/ylw_slt.png"],"mutagen_generator_assignment":[1,0],"goal":5,"start":4,"action_noise":0.15,"location_history":"[4,0,1,5]","action_history":"[1,1,1]","mutagen_history":"[0,0,0]","location_rts":"[1292,507,590]","trial_type":"fractal-mutation","trial_index":85,"time_elapsed":1833648,"internal_node_id":"0.0-5.0-31.0"},{"group":"hexagon_tri","fractal_assignment":["../images/pnk_blu.png","../images/gry_blk.png","../images/org_blu.png","../images/blu_wht.png","../images/cyn_red.png","../images/ylw_slt.png"],"mutagen_generator_assignment":[1,0],"goal":0,"start":5,"action_noise":0.15,"location_history":"[5,0]","action_history":"[1]","mutagen_history":"[0]","location_rts":"[2067]","trial_type":"fractal-mutation","trial_index":86,"time_elapsed":1840459,"internal_node_id":"0.0-5.0-32.0"},{"group":"hexagon_tri","fractal_assignment":["../images/pnk_blu.png","../images/gry_blk.png","../images/org_blu.png","../images/blu_wht.png","../images/cyn_red.png","../images/ylw_slt.png"],"mutagen_generator_assignment":[1,0],"goal":3,"start":0,"action_noise":0.15,"location_history":"[0,5,4,0,1,3]","action_history":"[0,0,0,0,0]","mutagen_history":"[1,1,1,1,1]","location_rts":"[1861,626,1381,1041,794]","trial_type":"fractal-mutation","trial_index":87,"time_elapsed":1856285,"internal_node_id":"0.0-5.0-33.0"},{"group":"hexagon_tri","fractal_assignment":["../images/pnk_blu.png","../images/gry_blk.png","../images/org_blu.png","../images/blu_wht.png","../images/cyn_red.png","../images/ylw_slt.png"],"mutagen_generator_assignment":[1,0],"goal":1,"start":3,"action_noise":0.15,"location_history":"[3,4,0,1]","action_history":"[1,1,1]","mutagen_history":"[0,0,0]","location_rts":"[1122,325,441]","trial_type":"fractal-mutation","trial_index":88,"time_elapsed":1865497,"internal_node_id":"0.0-5.0-34.0"},{"group":"hexagon_tri","fractal_assignment":["../images/pnk_blu.png","../images/gry_blk.png","../images/org_blu.png","../images/blu_wht.png","../images/cyn_red.png","../images/ylw_slt.png"],"mutagen_generator_assignment":[1,0],"goal":2,"start":1,"action_noise":0.15,"location_history":"[1,3,2]","action_history":"[0,0]","mutagen_history":"[1,1]","location_rts":"[2445,452]","trial_type":"fractal-mutation","trial_index":89,"time_elapsed":1874446,"internal_node_id":"0.0-5.0-35.0"},{"group":"hexagon_tri","fractal_assignment":["../images/pnk_blu.png","../images/gry_blk.png","../images/org_blu.png","../images/blu_wht.png","../images/cyn_red.png","../images/ylw_slt.png"],"mutagen_generator_assignment":[1,0],"goal":4,"start":2,"action_noise":0.15,"location_history":"[2,3,4]","action_history":"[1,1]","mutagen_history":"[0,0]","location_rts":"[2493,1165]","trial_type":"fractal-mutation","trial_index":90,"time_elapsed":1884138,"internal_node_id":"0.0-5.0-36.0"},{"group":"hexagon_tri","fractal_assignment":["../images/pnk_blu.png","../images/gry_blk.png","../images/org_blu.png","../images/blu_wht.png","../images/cyn_red.png","../images/ylw_slt.png"],"mutagen_generator_assignment":[1,0],"goal":5,"start":4,"action_noise":0.15,"location_history":"[4,0,1,3,4,2,3,2,3,4,0,1,5]","action_history":"[1,1,1,1,1,1,0,1,1,1,1,1]","mutagen_history":"[0,0,0,0,0,0,1,0,0,0,0,0]","location_rts":"[1902,466,949,458,652,627,670,348,375,377,589,981]","trial_type":"fractal-mutation","trial_index":91,"time_elapsed":1911215,"internal_node_id":"0.0-5.0-37.0"},{"group":"hexagon_tri","fractal_assignment":["../images/pnk_blu.png","../images/gry_blk.png","../images/org_blu.png","../images/blu_wht.png","../images/cyn_red.png","../images/ylw_slt.png"],"mutagen_generator_assignment":[1,0],"goal":1,"start":5,"action_noise":0.15,"location_history":"[5,4,0,5,4,0,1]","action_history":"[0,0,0,0,0,1]","mutagen_history":"[1,1,1,1,1,0]","location_rts":"[1832,1112,664,669,903,1261]","trial_type":"fractal-mutation","trial_index":92,"time_elapsed":1928815,"internal_node_id":"0.0-5.0-38.0"},{"group":"hexagon_tri","fractal_assignment":["../images/pnk_blu.png","../images/gry_blk.png","../images/org_blu.png","../images/blu_wht.png","../images/cyn_red.png","../images/ylw_slt.png"],"mutagen_generator_assignment":[1,0],"goal":4,"start":1,"action_noise":0.15,"location_history":"[1,3,4]","action_history":"[0,1]","mutagen_history":"[1,0]","location_rts":"[1627,513]","trial_type":"fractal-mutation","trial_index":93,"time_elapsed":1936996,"internal_node_id":"0.0-5.0-39.0"},{"group":"hexagon_tri","fractal_assignment":["../images/pnk_blu.png","../images/gry_blk.png","../images/org_blu.png","../images/blu_wht.png","../images/cyn_red.png","../images/ylw_slt.png"],"mutagen_generator_assignment":[1,0],"goal":3,"start":4,"action_noise":0.15,"location_history":"[4,0,1,3]","action_history":"[0,1,0]","mutagen_history":"[1,0,1]","location_rts":"[2680,794,796]","trial_type":"fractal-mutation","trial_index":94,"time_elapsed":1948580,"internal_node_id":"0.0-5.0-40.0"},{"group":"hexagon_tri","fractal_assignment":["../images/pnk_blu.png","../images/gry_blk.png","../images/org_blu.png","../images/blu_wht.png","../images/cyn_red.png","../images/ylw_slt.png"],"mutagen_generator_assignment":[1,0],"goal":2,"start":3,"action_noise":0.15,"location_history":"[3,2]","action_history":"[1]","mutagen_history":"[0]","location_rts":"[1593]","trial_type":"fractal-mutation","trial_index":95,"time_elapsed":1955024,"internal_node_id":"0.0-5.0-41.0"},{"group":"hexagon_tri","fractal_assignment":["../images/pnk_blu.png","../images/gry_blk.png","../images/org_blu.png","../images/blu_wht.png","../images/cyn_red.png","../images/ylw_slt.png"],"mutagen_generator_assignment":[1,0],"goal":0,"start":2,"action_noise":0.15,"location_history":"[2,3,4,2,1,5,0]","action_history":"[1,1,1,1,1,1]","mutagen_history":"[0,0,0,0,0,0]","location_rts":"[1725,1120,492,426,929,777]","trial_type":"fractal-mutation","trial_index":96,"time_elapsed":1971463,"internal_node_id":"0.0-5.0-42.0"},{"group":"hexagon_tri","fractal_assignment":["../images/pnk_blu.png","../images/gry_blk.png","../images/org_blu.png","../images/blu_wht.png","../images/cyn_red.png","../images/ylw_slt.png"],"mutagen_generator_assignment":[1,0],"goal":5,"start":0,"action_noise":0.15,"location_history":"[0,1,5]","action_history":"[1,1]","mutagen_history":"[0,0]","location_rts":"[1703,1102]","trial_type":"fractal-mutation","trial_index":97,"time_elapsed":1980232,"internal_node_id":"0.0-5.0-43.0"},{"group":"hexagon_tri","fractal_assignment":["../images/pnk_blu.png","../images/gry_blk.png","../images/org_blu.png","../images/blu_wht.png","../images/cyn_red.png","../images/ylw_slt.png"],"mutagen_generator_assignment":[1,0],"goal":0,"start":5,"action_noise":0.15,"location_history":"[5,4,0]","action_history":"[0,1]","mutagen_history":"[1,0]","location_rts":"[2237,861]","trial_type":"fractal-mutation","trial_index":98,"time_elapsed":1989317,"internal_node_id":"0.0-5.0-44.0"},{"group":"hexagon_tri","fractal_assignment":["../images/pnk_blu.png","../images/gry_blk.png","../images/org_blu.png","../images/blu_wht.png","../images/cyn_red.png","../images/ylw_slt.png"],"mutagen_generator_assignment":[1,0],"goal":2,"start":0,"action_noise":0.15,"location_history":"[0,1,3,2]","action_history":"[1,0,0]","mutagen_history":"[0,1,1]","location_rts":"[1275,1724,397]","trial_type":"fractal-mutation","trial_index":99,"time_elapsed":2000146,"internal_node_id":"0.0-5.0-45.0"},{"group":"hexagon_tri","fractal_assignment":["../images/pnk_blu.png","../images/gry_blk.png","../images/org_blu.png","../images/blu_wht.png","../images/cyn_red.png","../images/ylw_slt.png"],"mutagen_generator_assignment":[1,0],"goal":4,"start":2,"action_noise":0.15,"location_history":"[2,1,3,4]","action_history":"[1,0,1]","mutagen_history":"[0,1,0]","location_rts":"[3016,987,305]","trial_type":"fractal-mutation","trial_index":100,"time_elapsed":2011808,"internal_node_id":"0.0-5.0-46.0"},{"group":"hexagon_tri","fractal_assignment":["../images/pnk_blu.png","../images/gry_blk.png","../images/org_blu.png","../images/blu_wht.png","../images/cyn_red.png","../images/ylw_slt.png"],"mutagen_generator_assignment":[1,0],"goal":1,"start":4,"action_noise":0.15,"location_history":"[4,2,3,2,1]","action_history":"[1,1,1,0]","mutagen_history":"[0,0,0,1]","location_rts":"[2345,764,1171,581]","trial_type":"fractal-mutation","trial_index":101,"time_elapsed":2025105,"internal_node_id":"0.0-5.0-47.0"},{"group":"hexagon_tri","fractal_assignment":["../images/pnk_blu.png","../images/gry_blk.png","../images/org_blu.png","../images/blu_wht.png","../images/cyn_red.png","../images/ylw_slt.png"],"mutagen_generator_assignment":[1,0],"goal":5,"start":1,"action_noise":0.15,"location_history":"[1,5]","action_history":"[1]","mutagen_history":"[0]","location_rts":"[5770]","trial_type":"fractal-mutation","trial_index":102,"time_elapsed":2035701,"internal_node_id":"0.0-5.0-48.0"},{"group":"hexagon_tri","fractal_assignment":["../images/pnk_blu.png","../images/gry_blk.png","../images/org_blu.png","../images/blu_wht.png","../images/cyn_red.png","../images/ylw_slt.png"],"mutagen_generator_assignment":[1,0],"goal":3,"start":5,"action_noise":0.15,"location_history":"[5,4,0,5,0,5,4,0,1,3]","action_history":"[0,1,0,0,0,0,0,1,0]","mutagen_history":"[1,0,1,1,1,1,1,0,1]","location_rts":"[1638,942,1508,642,533,753,2460,1704,625]","trial_type":"fractal-mutation","trial_index":103,"time_elapsed":2061249,"internal_node_id":"0.0-5.0-49.0"},{"view_history":"[{\"page_index\":0,\"viewing_time\":14186}]","rt":14187,"trial_type":"instructions","trial_index":104,"time_elapsed":2076440,"internal_node_id":"0.0-6.0"},{"rt":67305,"responses":"{\"Q0\":\"Very enjoyable HIT.  I found the patterns were easier to remember this time around.  This made it even more fun to figure out and complete.\"}","trial_type":"survey-text","trial_index":105,"time_elapsed":2144766,"internal_node_id":"0.0-7.0"}]