[{"view_history":"[{\"page_index\":0,\"viewing_time\":47057},{\"page_index\":1,\"viewing_time\":24631}]","rt":71689,"trial_type":"instructions","trial_index":0,"time_elapsed":71691,"internal_node_id":"0.0-0.0"},{"view_history":"[{\"page_index\":0,\"viewing_time\":1926},{\"page_index\":1,\"viewing_time\":21144}]","rt":23070,"trial_type":"instructions","trial_index":1,"time_elapsed":95761,"internal_node_id":"0.0-1.0"},{"group":"hexagon_tri","room_assignment":["grey","yellow","purple","red","green","blue"],"door_color_assignment":["black","white"],"door_generator_assignment":[0,1],"goal":3,"start":5,"action_noise":0.15,"location_history":"[5,4,0,1,3]","action_history":"[0,0,0,0]","door_history":"[0,0,0,0]","location_rts":"[1594,867,683,536]","trial_type":"two-door-navigation","trial_index":2,"time_elapsed":107035,"internal_node_id":"0.0-2.0-0.0"},{"group":"hexagon_tri","room_assignment":["grey","yellow","purple","red","green","blue"],"door_color_assignment":["black","white"],"door_generator_assignment":[0,1],"goal":1,"start":3,"action_noise":0.15,"location_history":"[3,4,0,5,0,5,4,2,1]","action_history":"[1,1,1,1,0,0,0,0]","door_history":"[1,1,1,1,0,0,0,0]","location_rts":"[2270,959,834,813,1278,656,524,517]","trial_type":"two-door-navigation","trial_index":3,"time_elapsed":126555,"internal_node_id":"0.0-2.0-1.0"},{"group":"hexagon_tri","room_assignment":["grey","yellow","purple","red","green","blue"],"door_color_assignment":["black","white"],"door_generator_assignment":[0,1],"goal":0,"start":1,"action_noise":0.15,"location_history":"[1,3,2,1,3,4,2,3,2,1,5,4,2,1,3,2,1,3,4,2,3,4,2,1,3,2,1,5,4,0]","action_history":"[0,0,0,0,1,1,1,1,1,1,1,1,0,0,0,0,0,1,1,1,1,1,0,0,0,0,0,0,0]","door_history":"[0,0,0,0,1,1,1,1,1,1,1,1,0,0,0,0,0,1,1,1,1,1,0,0,0,0,0,0,0]","location_rts":"[830,572,908,509,443,378,451,405,413,440,514,573,389,393,843,454,681,803,662,595,644,510,1150,508,474,536,461,376,432]","trial_type":"two-door-navigation","trial_index":4,"time_elapsed":175997,"internal_node_id":"0.0-2.0-2.0"},{"group":"hexagon_tri","room_assignment":["grey","yellow","purple","red","green","blue"],"door_color_assignment":["black","white"],"door_generator_assignment":[0,1],"goal":3,"start":0,"action_noise":0.15,"location_history":"[0,5,0,1,5,0,5,4,0,5,0,1,5,0,5,4,0,5,4,0,5,0,5,0,5,0,1,5,4,0,1,5,0,1,3]","action_history":"[1,1,1,1,0,0,0,0,0,1,1,1,1,0,0,0,0,0,0,0,1,1,1,0,0,0,1,1,1,1,1,1,0,0]","door_history":"[1,1,1,1,0,0,0,0,0,1,1,1,1,0,0,0,0,0,0,0,1,1,1,0,0,0,1,1,1,1,1,1,0,0]","location_rts":"[548,317,369,403,877,17965,517,332,355,87,213,302,447,314,331,286,369,406,302,319,563,551,383,679,325,328,218,259,324,290,407,429,806,389]","trial_type":"two-door-navigation","trial_index":5,"time_elapsed":245151,"internal_node_id":"0.0-2.0-3.0"},{"group":"hexagon_tri","room_assignment":["grey","yellow","purple","red","green","blue"],"door_color_assignment":["black","white"],"door_generator_assignment":[0,1],"goal":4,"start":3,"action_noise":0.15,"location_history":"[3,2,1,3,2,3,4]","action_history":"[0,0,0,0,1,1]","door_history":"[0,0,0,0,1,1]","location_rts":"[2610,397,372,339,408,125]","trial_type":"two-door-navigation","trial_index":6,"time_elapsed":259021,"internal_node_id":"0.0-2.0-4.0"},{"group":"hexagon_tri","room_assignment":["grey","yellow","purple","red","green","blue"],"door_color_assignment":["black","white"],"door_generator_assignment":[0,1],"goal":2,"start":4,"action_noise":0.15,"location_history":"[4,2]","action_history":"[1]","door_history":"[1]","location_rts":"[485]","trial_type":"two-door-navigation","trial_index":7,"time_elapsed":264026,"internal_node_id":"0.0-2.0-5.0"},{"group":"hexagon_tri","room_assignment":["grey","yellow","purple","red","green","blue"],"door_color_assignment":["black","white"],"door_generator_assignment":[0,1],"goal":1,"start":2,"action_noise":0.15,"location_history":"[2,3,4,2,1]","action_history":"[1,1,1,1]","door_history":"[1,1,1,1]","location_rts":"[1137,468,436,389]","trial_type":"two-door-navigation","trial_index":8,"time_elapsed":274036,"internal_node_id":"0.0-2.0-6.0"},{"group":"hexagon_tri","room_assignment":["grey","yellow","purple","red","green","blue"],"door_color_assignment":["black","white"],"door_generator_assignment":[0,1],"goal":5,"start":1,"action_noise":0.15,"location_history":"[1,3,4,2,3,2,1,5]","action_history":"[1,1,1,1,0,0,0]","door_history":"[1,1,1,1,0,0,0]","location_rts":"[469,523,832,804,1015,492,404]","trial_type":"two-door-navigation","trial_index":9,"time_elapsed":289207,"internal_node_id":"0.0-2.0-7.0"},{"group":"hexagon_tri","room_assignment":["grey","yellow","purple","red","green","blue"],"door_color_assignment":["black","white"],"door_generator_assignment":[0,1],"goal":4,"start":5,"action_noise":0.15,"location_history":"[5,4]","action_history":"[0]","door_history":"[0]","location_rts":"[627]","trial_type":"two-door-navigation","trial_index":10,"time_elapsed":294356,"internal_node_id":"0.0-2.0-8.0"},{"group":"hexagon_tri","room_assignment":["grey","yellow","purple","red","green","blue"],"door_color_assignment":["black","white"],"door_generator_assignment":[0,1],"goal":2,"start":4,"action_noise":0.15,"location_history":"[4,0,5,4,0,5,0,1,5,4,2]","action_history":"[0,0,0,0,0,1,1,1,1,1]","door_history":"[0,0,0,0,0,1,1,1,1,1]","location_rts":"[691,475,598,1117,584,1167,861,640,704,911]","trial_type":"two-door-navigation","trial_index":11,"time_elapsed":315795,"internal_node_id":"0.0-2.0-9.0"},{"group":"hexagon_tri","room_assignment":["grey","yellow","purple","red","green","blue"],"door_color_assignment":["black","white"],"door_generator_assignment":[0,1],"goal":0,"start":2,"action_noise":0.15,"location_history":"[2,3,4,0]","action_history":"[1,1,1]","door_history":"[1,1,1]","location_rts":"[1093,415,519]","trial_type":"two-door-navigation","trial_index":12,"time_elapsed":324380,"internal_node_id":"0.0-2.0-10.0"},{"group":"hexagon_tri","room_assignment":["grey","yellow","purple","red","green","blue"],"door_color_assignment":["black","white"],"door_generator_assignment":[0,1],"goal":1,"start":0,"action_noise":0.15,"location_history":"[0,1]","action_history":"[0]","door_history":"[0]","location_rts":"[14862]","trial_type":"two-door-navigation","trial_index":13,"time_elapsed":343764,"internal_node_id":"0.0-2.0-11.0"},{"group":"hexagon_tri","room_assignment":["grey","yellow","purple","red","green","blue"],"door_color_assignment":["black","white"],"door_generator_assignment":[0,1],"goal":3,"start":1,"action_noise":0.15,"location_history":"[1,3]","action_history":"[0]","door_history":"[0]","location_rts":"[493]","trial_type":"two-door-navigation","trial_index":14,"time_elapsed":348778,"internal_node_id":"0.0-2.0-12.0"},{"group":"hexagon_tri","room_assignment":["grey","yellow","purple","red","green","blue"],"door_color_assignment":["black","white"],"door_generator_assignment":[0,1],"goal":5,"start":3,"action_noise":0.15,"location_history":"[3,2,3,2,3,4,2,3,2,3,4,0,5]","action_history":"[0,0,0,0,1,1,1,0,0,0,0,0]","door_history":"[0,0,0,0,1,1,1,0,0,0,0,0]","location_rts":"[568,514,504,518,689,491,478,647,367,468,491,463]","trial_type":"two-door-navigation","trial_index":15,"time_elapsed":370694,"internal_node_id":"0.0-2.0-13.0"},{"group":"hexagon_tri","room_assignment":["grey","yellow","purple","red","green","blue"],"door_color_assignment":["black","white"],"door_generator_assignment":[0,1],"goal":4,"start":5,"action_noise":0.15,"location_history":"[5,0,5,4]","action_history":"[0,0,0]","door_history":"[0,0,0]","location_rts":"[674,635,484]","trial_type":"two-door-navigation","trial_index":16,"time_elapsed":379053,"internal_node_id":"0.0-2.0-14.0"},{"group":"hexagon_tri","room_assignment":["grey","yellow","purple","red","green","blue"],"door_color_assignment":["black","white"],"door_generator_assignment":[0,1],"goal":0,"start":4,"action_noise":0.15,"location_history":"[4,0]","action_history":"[0]","door_history":"[0]","location_rts":"[563]","trial_type":"two-door-navigation","trial_index":17,"time_elapsed":384136,"internal_node_id":"0.0-2.0-15.0"},{"group":"hexagon_tri","room_assignment":["grey","yellow","purple","red","green","blue"],"door_color_assignment":["black","white"],"door_generator_assignment":[0,1],"goal":3,"start":0,"action_noise":0.15,"location_history":"[0,5,4,0,1,3]","action_history":"[0,0,0,1,1]","door_history":"[0,0,0,1,1]","location_rts":"[535,814,581,1813,761]","trial_type":"two-door-navigation","trial_index":18,"time_elapsed":397233,"internal_node_id":"0.0-2.0-16.0"},{"group":"hexagon_tri","room_assignment":["grey","yellow","purple","red","green","blue"],"door_color_assignment":["black","white"],"door_generator_assignment":[0,1],"goal":1,"start":3,"action_noise":0.15,"location_history":"[3,4,2,3,4,0,5,4,2,1]","action_history":"[1,1,1,1,0,0,0,0,0]","door_history":"[1,1,1,1,0,0,0,0,0]","location_rts":"[792,659,886,651,1227,923,646,970,675]","trial_type":"two-door-navigation","trial_index":19,"time_elapsed":417351,"internal_node_id":"0.0-2.0-17.0"},{"group":"hexagon_tri","room_assignment":["grey","yellow","purple","red","green","blue"],"door_color_assignment":["black","white"],"door_generator_assignment":[0,1],"goal":5,"start":1,"action_noise":0.15,"location_history":"[1,5]","action_history":"[0]","door_history":"[0]","location_rts":"[12771]","trial_type":"two-door-navigation","trial_index":20,"time_elapsed":434649,"internal_node_id":"0.0-2.0-18.0"},{"group":"hexagon_tri","room_assignment":["grey","yellow","purple","red","green","blue"],"door_color_assignment":["black","white"],"door_generator_assignment":[0,1],"goal":2,"start":5,"action_noise":0.15,"location_history":"[5,4,0,5,4,2]","action_history":"[0,0,0,0,1]","door_history":"[0,0,0,0,1]","location_rts":"[19663,515,796,798,1687]","trial_type":"two-door-navigation","trial_index":21,"time_elapsed":466708,"internal_node_id":"0.0-2.0-19.0"},{"group":"hexagon_tri","room_assignment":["grey","yellow","purple","red","green","blue"],"door_color_assignment":["black","white"],"door_generator_assignment":[0,1],"goal":4,"start":2,"action_noise":0.15,"location_history":"[2,3,2,1,3,2,3,4]","action_history":"[0,0,0,0,0,0,0]","door_history":"[0,0,0,0,0,0,0]","location_rts":"[3940,769,879,656,1006,925,889]","trial_type":"two-door-navigation","trial_index":22,"time_elapsed":486408,"internal_node_id":"0.0-2.0-20.0"},{"group":"hexagon_tri","room_assignment":["grey","yellow","purple","red","green","blue"],"door_color_assignment":["black","white"],"door_generator_assignment":[0,1],"goal":1,"start":4,"action_noise":0.15,"location_history":"[4,0,5,4,0,5,4,0,5,0,1]","action_history":"[0,0,0,0,0,0,0,1,1,1]","door_history":"[0,0,0,0,0,0,0,1,1,1]","location_rts":"[553,591,1915,4757,455,711,892,1086,1742,582]","trial_type":"two-door-navigation","trial_index":23,"time_elapsed":513384,"internal_node_id":"0.0-2.0-21.0"},{"group":"hexagon_tri","room_assignment":["grey","yellow","purple","red","green","blue"],"door_color_assignment":["black","white"],"door_generator_assignment":[0,1],"goal":3,"start":1,"action_noise":0.15,"location_history":"[1,5,4,2,3]","action_history":"[1,1,1,1]","door_history":"[1,1,1,1]","location_rts":"[681,1757,776,724]","trial_type":"two-door-navigation","trial_index":24,"time_elapsed":524899,"internal_node_id":"0.0-2.0-22.0"},{"group":"hexagon_tri","room_assignment":["grey","yellow","purple","red","green","blue"],"door_color_assignment":["black","white"],"door_generator_assignment":[0,1],"goal":2,"start":3,"action_noise":0.15,"location_history":"[3,2]","action_history":"[0]","door_history":"[0]","location_rts":"[3022]","trial_type":"two-door-navigation","trial_index":25,"time_elapsed":532447,"internal_node_id":"0.0-2.0-23.0"},{"group":"hexagon_tri","room_assignment":["grey","yellow","purple","red","green","blue"],"door_color_assignment":["black","white"],"door_generator_assignment":[0,1],"goal":0,"start":2,"action_noise":0.15,"location_history":"[2,1,5,4,0]","action_history":"[0,0,0,0]","door_history":"[0,0,0,0]","location_rts":"[1041,851,841,750]","trial_type":"two-door-navigation","trial_index":26,"time_elapsed":543508,"internal_node_id":"0.0-2.0-24.0"},{"group":"hexagon_tri","room_assignment":["grey","yellow","purple","red","green","blue"],"door_color_assignment":["black","white"],"door_generator_assignment":[0,1],"goal":5,"start":0,"action_noise":0.15,"location_history":"[0,1,3,2,1,5]","action_history":"[0,0,0,0,1]","door_history":"[0,0,0,0,1]","location_rts":"[717,740,876,849,1294]","trial_type":"two-door-navigation","trial_index":27,"time_elapsed":556588,"internal_node_id":"0.0-2.0-25.0"},{"group":"hexagon_tri","room_assignment":["grey","yellow","purple","red","green","blue"],"door_color_assignment":["black","white"],"door_generator_assignment":[0,1],"goal":2,"start":5,"action_noise":0.15,"location_history":"[5,4,0,1,5,4,0,5,4,0,5,4,0,5,0,1,3,2]","action_history":"[1,1,1,1,1,0,0,0,0,0,1,1,1,1,1,0,0]","door_history":"[1,1,1,1,1,0,0,0,0,0,1,1,1,1,1,0,0]","location_rts":"[556,701,941,731,1587,1013,798,779,863,941,948,661,732,658,846,1374,722]","trial_type":"two-door-navigation","trial_index":28,"time_elapsed":592276,"internal_node_id":"0.0-2.0-26.0"},{"group":"hexagon_tri","room_assignment":["grey","yellow","purple","red","green","blue"],"door_color_assignment":["black","white"],"door_generator_assignment":[0,1],"goal":3,"start":2,"action_noise":0.15,"location_history":"[2,1,3]","action_history":"[0,0]","door_history":"[0,0]","location_rts":"[444,742]","trial_type":"two-door-navigation","trial_index":29,"time_elapsed":599002,"internal_node_id":"0.0-2.0-27.0"},{"group":"hexagon_tri","room_assignment":["grey","yellow","purple","red","green","blue"],"door_color_assignment":["black","white"],"door_generator_assignment":[0,1],"goal":0,"start":3,"action_noise":0.15,"location_history":"[3,2,1,3,2,3,4,0]","action_history":"[0,0,0,0,1,1,1]","door_history":"[0,0,0,0,1,1,1]","location_rts":"[703,849,560,828,871,869,567]","trial_type":"two-door-navigation","trial_index":30,"time_elapsed":614887,"internal_node_id":"0.0-2.0-28.0"},{"group":"hexagon_tri","room_assignment":["grey","yellow","purple","red","green","blue"],"door_color_assignment":["black","white"],"door_generator_assignment":[0,1],"goal":1,"start":0,"action_noise":0.15,"location_history":"[0,5,4,0,5,4,2,3,4,2,1]","action_history":"[0,0,0,0,1,1,1,1,1,0]","door_history":"[0,0,0,0,1,1,1,1,1,0]","location_rts":"[20354,669,716,694,940,598,775,1868,702,741]","trial_type":"two-door-navigation","trial_index":31,"time_elapsed":656643,"internal_node_id":"0.0-2.0-29.0"},{"group":"hexagon_tri","room_assignment":["grey","yellow","purple","red","green","blue"],"door_color_assignment":["black","white"],"door_generator_assignment":[0,1],"goal":4,"start":1,"action_noise":0.15,"location_history":"[1,3,2,1,3,2,3,4]","action_history":"[0,0,0,0,0,1,1]","door_history":"[0,0,0,0,0,1,1]","location_rts":"[478,509,512,900,614,749,834]","trial_type":"two-door-navigation","trial_index":32,"time_elapsed":671879,"internal_node_id":"0.0-2.0-30.0"},{"group":"hexagon_tri","room_assignment":["grey","yellow","purple","red","green","blue"],"door_color_assignment":["black","white"],"door_generator_assignment":[0,1],"goal":5,"start":4,"action_noise":0.15,"location_history":"[4,2,3,4,2,3,2,1,5]","action_history":"[1,1,1,1,1,0,0,0]","door_history":"[1,1,1,1,1,0,0,0]","location_rts":"[529,678,419,505,502,846,501,1173]","trial_type":"two-door-navigation","trial_index":33,"time_elapsed":688679,"internal_node_id":"0.0-2.0-31.0"},{"group":"hexagon_tri","room_assignment":["grey","yellow","purple","red","green","blue"],"door_color_assignment":["black","white"],"door_generator_assignment":[0,1],"goal":0,"start":5,"action_noise":0.15,"location_history":"[5,4,0]","action_history":"[0,0]","door_history":"[0,0]","location_rts":"[601,456]","trial_type":"two-door-navigation","trial_index":34,"time_elapsed":695277,"internal_node_id":"0.0-2.0-32.0"},{"group":"hexagon_tri","room_assignment":["grey","yellow","purple","red","green","blue"],"door_color_assignment":["black","white"],"door_generator_assignment":[0,1],"goal":3,"start":0,"action_noise":0.15,"location_history":"[0,5,4,0,5,4,0,1,5,0,1,5,4,2,3]","action_history":"[0,0,0,0,0,0,1,1,1,1,1,1,1,0]","door_history":"[0,0,0,0,0,0,1,1,1,1,1,1,1,0]","location_rts":"[643,774,605,909,1195,668,752,710,710,751,1060,670,320,597]","trial_type":"two-door-navigation","trial_index":35,"time_elapsed":723401,"internal_node_id":"0.0-2.0-33.0"},{"group":"hexagon_tri","room_assignment":["grey","yellow","purple","red","green","blue"],"door_color_assignment":["black","white"],"door_generator_assignment":[0,1],"goal":1,"start":3,"action_noise":0.15,"location_history":"[3,2,1]","action_history":"[0,0]","door_history":"[0,0]","location_rts":"[423,435]","trial_type":"two-door-navigation","trial_index":36,"time_elapsed":729803,"internal_node_id":"0.0-2.0-34.0"},{"group":"hexagon_tri","room_assignment":["grey","yellow","purple","red","green","blue"],"door_color_assignment":["black","white"],"door_generator_assignment":[0,1],"goal":2,"start":1,"action_noise":0.15,"location_history":"[1,3,2]","action_history":"[0,0]","door_history":"[0,0]","location_rts":"[374,386]","trial_type":"two-door-navigation","trial_index":37,"time_elapsed":736106,"internal_node_id":"0.0-2.0-35.0"},{"group":"hexagon_tri","room_assignment":["grey","yellow","purple","red","green","blue"],"door_color_assignment":["black","white"],"door_generator_assignment":[0,1],"goal":4,"start":2,"action_noise":0.15,"location_history":"[2,1,3,2,1,3,2,1,3,4]","action_history":"[0,0,0,0,0,0,0,0,1]","door_history":"[0,0,0,0,0,0,0,0,1]","location_rts":"[383,348,377,831,589,622,750,623,1012]","trial_type":"two-door-navigation","trial_index":38,"time_elapsed":754315,"internal_node_id":"0.0-2.0-36.0"},{"group":"hexagon_tri","room_assignment":["grey","yellow","purple","red","green","blue"],"door_color_assignment":["black","white"],"door_generator_assignment":[0,1],"goal":5,"start":4,"action_noise":0.15,"location_history":"[4,2,1,5]","action_history":"[1,0,1]","door_history":"[1,0,1]","location_rts":"[685,594,389]","trial_type":"two-door-navigation","trial_index":39,"time_elapsed":762541,"internal_node_id":"0.0-2.0-37.0"},{"group":"hexagon_tri","room_assignment":["grey","yellow","purple","red","green","blue"],"door_color_assignment":["black","white"],"door_generator_assignment":[0,1],"goal":1,"start":5,"action_noise":0.15,"location_history":"[5,4,2,3,4,0,1]","action_history":"[0,1,0,1,0,1]","door_history":"[0,1,0,1,0,1]","location_rts":"[380,607,430,317,486,404]","trial_type":"two-door-navigation","trial_index":40,"time_elapsed":774779,"internal_node_id":"0.0-2.0-38.0"},{"group":"hexagon_tri","room_assignment":["grey","yellow","purple","red","green","blue"],"door_color_assignment":["black","white"],"door_generator_assignment":[0,1],"goal":4,"start":1,"action_noise":0.15,"location_history":"[1,3,4]","action_history":"[0,1]","door_history":"[0,1]","location_rts":"[342,421]","trial_type":"two-door-navigation","trial_index":41,"time_elapsed":781083,"internal_node_id":"0.0-2.0-39.0"},{"group":"hexagon_tri","room_assignment":["grey","yellow","purple","red","green","blue"],"door_color_assignment":["black","white"],"door_generator_assignment":[0,1],"goal":3,"start":4,"action_noise":0.15,"location_history":"[4,2,1,5,4,2,1,5,4,2,1,5,0,1,5,0,1,5,0,5,4,0,5,4,2,3]","action_history":"[1,0,1,0,1,0,1,0,1,0,1,0,0,0,1,1,1,1,0,0,0,0,0,1,1]","door_history":"[1,0,1,0,1,0,1,0,1,0,1,0,0,0,1,1,1,1,0,0,0,0,0,1,1]","location_rts":"[5813,475,413,473,502,414,692,391,496,688,469,14181,386,347,2137,1840,1081,361,466,316,391,630,365,407,345]","trial_type":"two-door-navigation","trial_index":42,"time_elapsed":844120,"internal_node_id":"0.0-2.0-40.0"},{"group":"hexagon_tri","room_assignment":["grey","yellow","purple","red","green","blue"],"door_color_assignment":["black","white"],"door_generator_assignment":[0,1],"goal":2,"start":3,"action_noise":0.15,"location_history":"[3,4,2]","action_history":"[1,1]","door_history":"[1,1]","location_rts":"[2649,413]","trial_type":"two-door-navigation","trial_index":43,"time_elapsed":852720,"internal_node_id":"0.0-2.0-41.0"},{"group":"hexagon_tri","room_assignment":["grey","yellow","purple","red","green","blue"],"door_color_assignment":["black","white"],"door_generator_assignment":[0,1],"goal":0,"start":2,"action_noise":0.15,"location_history":"[2,3,4,2,1,3,4,2,3,4,2,1,3,2,1,5,4,0]","action_history":"[1,1,0,0,0,1,1,1,1,1,0,0,0,0,1,0,1]","door_history":"[1,1,0,0,0,1,1,1,1,1,0,0,0,0,1,0,1]","location_rts":"[440,418,370,310,354,318,279,372,475,510,555,492,437,661,725,948,710]","trial_type":"two-door-navigation","trial_index":44,"time_elapsed":881933,"internal_node_id":"0.0-2.0-42.0"},{"group":"hexagon_tri","room_assignment":["grey","yellow","purple","red","green","blue"],"door_color_assignment":["black","white"],"door_generator_assignment":[0,1],"goal":5,"start":0,"action_noise":0.15,"location_history":"[0,5]","action_history":"[0]","door_history":"[0]","location_rts":"[426]","trial_type":"two-door-navigation","trial_index":45,"time_elapsed":886886,"internal_node_id":"0.0-2.0-43.0"},{"group":"hexagon_tri","room_assignment":["grey","yellow","purple","red","green","blue"],"door_color_assignment":["black","white"],"door_generator_assignment":[0,1],"goal":0,"start":5,"action_noise":0.15,"location_history":"[5,4,2,1,3,2,1,5,0]","action_history":"[0,0,0,0,0,0,1,1]","door_history":"[0,0,0,0,0,0,1,1]","location_rts":"[451,424,361,466,493,396,1093,258]","trial_type":"two-door-navigation","trial_index":46,"time_elapsed":902501,"internal_node_id":"0.0-2.0-44.0"},{"group":"hexagon_tri","room_assignment":["grey","yellow","purple","red","green","blue"],"door_color_assignment":["black","white"],"door_generator_assignment":[0,1],"goal":2,"start":0,"action_noise":0.15,"location_history":"[0,5,4,0,5,0,1,5,4,2]","action_history":"[0,0,0,1,1,1,1,0,0]","door_history":"[0,0,0,1,1,1,1,0,0]","location_rts":"[5678,445,509,1398,403,301,366,867,316]","trial_type":"two-door-navigation","trial_index":47,"time_elapsed":925449,"internal_node_id":"0.0-2.0-45.0"},{"group":"hexagon_tri","room_assignment":["grey","yellow","purple","red","green","blue"],"door_color_assignment":["black","white"],"door_generator_assignment":[0,1],"goal":4,"start":2,"action_noise":0.15,"location_history":"[2,1,3,2,1,5,0,1,3,2,1,3,4]","action_history":"[0,0,0,0,1,1,1,0,0,0,0,0]","door_history":"[0,0,0,0,1,1,1,0,0,0,0,0]","location_rts":"[496,479,297,349,219,354,241,1201,667,256,422,308]","trial_type":"two-door-navigation","trial_index":48,"time_elapsed":946472,"internal_node_id":"0.0-2.0-46.0"},{"group":"hexagon_tri","room_assignment":["grey","yellow","purple","red","green","blue"],"door_color_assignment":["black","white"],"door_generator_assignment":[0,1],"goal":1,"start":4,"action_noise":0.15,"location_history":"[4,0,5,4,0,5,0,1]","action_history":"[0,0,0,0,0,1,1]","door_history":"[0,0,0,0,0,1,1]","location_rts":"[417,346,290,374,350,356,281]","trial_type":"two-door-navigation","trial_index":49,"time_elapsed":959528,"internal_node_id":"0.0-2.0-47.0"},{"group":"hexagon_tri","room_assignment":["grey","yellow","purple","red","green","blue"],"door_color_assignment":["black","white"],"door_generator_assignment":[0,1],"goal":5,"start":1,"action_noise":0.15,"location_history":"[1,5]","action_history":"[1]","door_history":"[1]","location_rts":"[578]","trial_type":"two-door-navigation","trial_index":50,"time_elapsed":964625,"internal_node_id":"0.0-2.0-48.0"},{"group":"hexagon_tri","room_assignment":["grey","yellow","purple","red","green","blue"],"door_color_assignment":["black","white"],"door_generator_assignment":[0,1],"goal":3,"start":5,"action_noise":0.15,"location_history":"[5,4,2,3]","action_history":"[1,1,1]","door_history":"[1,1,1]","location_rts":"[526,426,365]","trial_type":"two-door-navigation","trial_index":51,"time_elapsed":972506,"internal_node_id":"0.0-2.0-49.0"},{"view_history":"[{\"page_index\":0,\"viewing_time\":1908}]","rt":1909,"trial_type":"instructions","trial_index":52,"time_elapsed":975416,"internal_node_id":"0.0-3.0"},{"view_history":"[{\"page_index\":0,\"viewing_time\":2624},{\"page_index\":1,\"viewing_time\":16208}]","rt":18833,"trial_type":"instructions","trial_index":53,"time_elapsed":995250,"internal_node_id":"0.0-4.0"},{"group":"hexagon_bi","fractal_assignment":["../images/gry_blk.png","../images/cyn_red.png","../images/org_blu.png","../images/ylw_slt.png","../images/pnk_blu.png","../images/blu_wht.png"],"mutagen_generator_assignment":[1,0],"goal":3,"start":5,"action_noise":0.15,"location_history":"[5,4,5,0,5,0,5,4,5,4,5,4,3]","action_history":"[1,1,0,0,0,0,1,1,1,1,1,0]","mutagen_history":"[0,0,1,1,1,1,0,0,0,0,0,1]","location_rts":"[4168,1208,5027,539,492,436,508,387,422,443,456,480]","trial_type":"fractal-mutation","trial_index":54,"time_elapsed":1026362,"internal_node_id":"0.0-5.0-0.0"},{"group":"hexagon_bi","fractal_assignment":["../images/gry_blk.png","../images/cyn_red.png","../images/org_blu.png","../images/ylw_slt.png","../images/pnk_blu.png","../images/blu_wht.png"],"mutagen_generator_assignment":[1,0],"goal":1,"start":3,"action_noise":0.15,"location_history":"[3,4,3,4,3,4,3,4,3,4,3,4,5,4,5,4,5,0,1]","action_history":"[0,0,0,0,0,0,0,0,0,0,0,0,1,1,1,1,0,1]","mutagen_history":"[1,1,1,1,1,1,1,1,1,1,1,1,0,0,0,0,1,0]","location_rts":"[1597,749,706,780,654,1404,801,606,586,2558,640,822,1348,597,811,490,980,470]","trial_type":"fractal-mutation","trial_index":55,"time_elapsed":1066119,"internal_node_id":"0.0-5.0-1.0"},{"group":"hexagon_bi","fractal_assignment":["../images/gry_blk.png","../images/cyn_red.png","../images/org_blu.png","../images/ylw_slt.png","../images/pnk_blu.png","../images/blu_wht.png"],"mutagen_generator_assignment":[1,0],"goal":0,"start":1,"action_noise":0.15,"location_history":"[1,0]","action_history":"[1]","mutagen_history":"[0]","location_rts":"[663]","trial_type":"fractal-mutation","trial_index":56,"time_elapsed":1071354,"internal_node_id":"0.0-5.0-2.0"},{"group":"hexagon_bi","fractal_assignment":["../images/gry_blk.png","../images/cyn_red.png","../images/org_blu.png","../images/ylw_slt.png","../images/pnk_blu.png","../images/blu_wht.png"],"mutagen_generator_assignment":[1,0],"goal":3,"start":0,"action_noise":0.15,"location_history":"[0,1,0,5,0,5,4,5,4,5,0,5,0,5,0,5,0,1,0,5,0,1,2,3]","action_history":"[1,0,0,0,0,1,1,1,0,0,0,1,0,0,0,0,1,0,0,0,1,1,1]","mutagen_history":"[0,1,1,1,1,0,0,0,1,1,1,0,1,1,1,1,0,1,1,1,0,0,0]","location_rts":"[1173,465,482,502,501,489,483,1180,551,963,818,437,529,453,386,410,495,466,497,472,417,498,429]","trial_type":"fractal-mutation","trial_index":57,"time_elapsed":1113038,"internal_node_id":"0.0-5.0-3.0"},{"group":"hexagon_bi","fractal_assignment":["../images/gry_blk.png","../images/cyn_red.png","../images/org_blu.png","../images/ylw_slt.png","../images/pnk_blu.png","../images/blu_wht.png"],"mutagen_generator_assignment":[1,0],"goal":4,"start":3,"action_noise":0.15,"location_history":"[3,2,3,2,1,2,3,4]","action_history":"[1,1,1,0,0,0,0]","mutagen_history":"[0,0,0,1,1,1,1]","location_rts":"[72899,944,474,1635,799,711,559]","trial_type":"fractal-mutation","trial_index":58,"time_elapsed":1202153,"internal_node_id":"0.0-5.0-4.0"},{"group":"hexagon_bi","fractal_assignment":["../images/gry_blk.png","../images/cyn_red.png","../images/org_blu.png","../images/ylw_slt.png","../images/pnk_blu.png","../images/blu_wht.png"],"mutagen_generator_assignment":[1,0],"goal":2,"start":4,"action_noise":0.15,"location_history":"[4,3,2]","action_history":"[0,1]","mutagen_history":"[1,0]","location_rts":"[2783,2067]","trial_type":"fractal-mutation","trial_index":59,"time_elapsed":1212674,"internal_node_id":"0.0-5.0-5.0"},{"group":"hexagon_bi","fractal_assignment":["../images/gry_blk.png","../images/cyn_red.png","../images/org_blu.png","../images/ylw_slt.png","../images/pnk_blu.png","../images/blu_wht.png"],"mutagen_generator_assignment":[1,0],"goal":1,"start":2,"action_noise":0.15,"location_history":"[2,1]","action_history":"[0]","mutagen_history":"[1]","location_rts":"[1678]","trial_type":"fractal-mutation","trial_index":60,"time_elapsed":1218956,"internal_node_id":"0.0-5.0-6.0"},{"group":"hexagon_bi","fractal_assignment":["../images/gry_blk.png","../images/cyn_red.png","../images/org_blu.png","../images/ylw_slt.png","../images/pnk_blu.png","../images/blu_wht.png"],"mutagen_generator_assignment":[1,0],"goal":5,"start":1,"action_noise":0.15,"location_history":"[1,0,1,0,1,0,5]","action_history":"[1,1,1,1,1,0]","mutagen_history":"[0,0,0,0,0,1]","location_rts":"[2100,892,665,756,546,1355]","trial_type":"fractal-mutation","trial_index":61,"time_elapsed":1235187,"internal_node_id":"0.0-5.0-7.0"},{"group":"hexagon_bi","fractal_assignment":["../images/gry_blk.png","../images/cyn_red.png","../images/org_blu.png","../images/ylw_slt.png","../images/pnk_blu.png","../images/blu_wht.png"],"mutagen_generator_assignment":[1,0],"goal":4,"start":5,"action_noise":0.15,"location_history":"[5,4]","action_history":"[1]","mutagen_history":"[0]","location_rts":"[1821]","trial_type":"fractal-mutation","trial_index":62,"time_elapsed":1241578,"internal_node_id":"0.0-5.0-8.0"},{"group":"hexagon_bi","fractal_assignment":["../images/gry_blk.png","../images/cyn_red.png","../images/org_blu.png","../images/ylw_slt.png","../images/pnk_blu.png","../images/blu_wht.png"],"mutagen_generator_assignment":[1,0],"goal":2,"start":4,"action_noise":0.15,"location_history":"[4,5,4,5,4,3,2]","action_history":"[1,1,1,1,0,0]","mutagen_history":"[0,0,0,0,1,1]","location_rts":"[1359,805,673,546,599,593]","trial_type":"fractal-mutation","trial_index":63,"time_elapsed":1256115,"internal_node_id":"0.0-5.0-9.0"},{"group":"hexagon_bi","fractal_assignment":["../images/gry_blk.png","../images/cyn_red.png","../images/org_blu.png","../images/ylw_slt.png","../images/pnk_blu.png","../images/blu_wht.png"],"mutagen_generator_assignment":[1,0],"goal":0,"start":2,"action_noise":0.15,"location_history":"[2,1,2,1,2,3,2,3,4,3,4,3,2,3,4,3,4,3,2,3,2,1,2,1,0]","action_history":"[0,0,0,0,0,1,1,1,1,0,0,1,0,0,0,0,0,1,1,1,0,0,0,0]","mutagen_history":"[1,1,1,1,1,0,0,0,0,1,1,0,1,1,1,1,1,0,0,0,1,1,1,1]","location_rts":"[877,643,625,698,990,1123,683,585,519,1049,440,3587,24987,997,1085,678,508,421,496,440,469,493,461,461]","trial_type":"fractal-mutation","trial_index":64,"time_elapsed":1329104,"internal_node_id":"0.0-5.0-10.0"},{"group":"hexagon_bi","fractal_assignment":["../images/gry_blk.png","../images/cyn_red.png","../images/org_blu.png","../images/ylw_slt.png","../images/pnk_blu.png","../images/blu_wht.png"],"mutagen_generator_assignment":[1,0],"goal":1,"start":0,"action_noise":0.15,"location_history":"[0,5,0,1]","action_history":"[0,0,1]","mutagen_history":"[1,1,0]","location_rts":"[1488,640,512]","trial_type":"fractal-mutation","trial_index":65,"time_elapsed":1338513,"internal_node_id":"0.0-5.0-11.0"},{"group":"hexagon_bi","fractal_assignment":["../images/gry_blk.png","../images/cyn_red.png","../images/org_blu.png","../images/ylw_slt.png","../images/pnk_blu.png","../images/blu_wht.png"],"mutagen_generator_assignment":[1,0],"goal":3,"start":1,"action_noise":0.15,"location_history":"[1,0,1,0,5,4,3]","action_history":"[1,1,1,1,1,0]","mutagen_history":"[0,0,0,0,0,1]","location_rts":"[811,948,1057,700,711,6745]","trial_type":"fractal-mutation","trial_index":66,"time_elapsed":1359411,"internal_node_id":"0.0-5.0-12.0"},{"group":"hexagon_bi","fractal_assignment":["../images/gry_blk.png","../images/cyn_red.png","../images/org_blu.png","../images/ylw_slt.png","../images/pnk_blu.png","../images/blu_wht.png"],"mutagen_generator_assignment":[1,0],"goal":5,"start":3,"action_noise":0.15,"location_history":"[3,4,3,4,5]","action_history":"[0,0,0,1]","mutagen_history":"[1,1,1,0]","location_rts":"[846,743,807,939]","trial_type":"fractal-mutation","trial_index":67,"time_elapsed":1370611,"internal_node_id":"0.0-5.0-13.0"},{"group":"hexagon_bi","fractal_assignment":["../images/gry_blk.png","../images/cyn_red.png","../images/org_blu.png","../images/ylw_slt.png","../images/pnk_blu.png","../images/blu_wht.png"],"mutagen_generator_assignment":[1,0],"goal":4,"start":5,"action_noise":0.15,"location_history":"[5,4]","action_history":"[1]","mutagen_history":"[0]","location_rts":"[964]","trial_type":"fractal-mutation","trial_index":68,"time_elapsed":1376143,"internal_node_id":"0.0-5.0-14.0"},{"group":"hexagon_bi","fractal_assignment":["../images/gry_blk.png","../images/cyn_red.png","../images/org_blu.png","../images/ylw_slt.png","../images/pnk_blu.png","../images/blu_wht.png"],"mutagen_generator_assignment":[1,0],"goal":0,"start":4,"action_noise":0.15,"location_history":"[4,3,4,5,4,5,4,3,4,3,4,3,4,3,4,5,4,5,4,3,4,3,4,5,4,5,0]","action_history":"[0,0,0,1,1,1,0,0,0,0,0,0,0,0,1,1,1,1,1,0,0,1,1,1,0,0]","mutagen_history":"[1,1,1,0,0,0,1,1,1,1,1,1,1,1,0,0,0,0,0,1,1,0,0,0,1,1]","location_rts":"[2095,1898,2582,2114,1233,757,512,557,722,845,687,615,693,618,549,643,644,570,516,874,513,422,441,540,392,378]","trial_type":"fractal-mutation","trial_index":69,"time_elapsed":1430307,"internal_node_id":"0.0-5.0-15.0"},{"group":"hexagon_bi","fractal_assignment":["../images/gry_blk.png","../images/cyn_red.png","../images/org_blu.png","../images/ylw_slt.png","../images/pnk_blu.png","../images/blu_wht.png"],"mutagen_generator_assignment":[1,0],"goal":3,"start":0,"action_noise":0.15,"location_history":"[0,1,0,1,2,1,2,3]","action_history":"[1,1,1,0,0,0,1]","mutagen_history":"[0,0,0,1,1,1,0]","location_rts":"[821,870,495,424,1034,491,4750]","trial_type":"fractal-mutation","trial_index":70,"time_elapsed":1450276,"internal_node_id":"0.0-5.0-16.0"},{"group":"hexagon_bi","fractal_assignment":["../images/gry_blk.png","../images/cyn_red.png","../images/org_blu.png","../images/ylw_slt.png","../images/pnk_blu.png","../images/blu_wht.png"],"mutagen_generator_assignment":[1,0],"goal":1,"start":3,"action_noise":0.15,"location_history":"[3,2,3,2,3,2,1]","action_history":"[0,1,1,1,1,0]","mutagen_history":"[1,0,0,0,0,1]","location_rts":"[53124,1430,824,609,476,519]","trial_type":"fractal-mutation","trial_index":71,"time_elapsed":1517231,"internal_node_id":"0.0-5.0-17.0"},{"group":"hexagon_bi","fractal_assignment":["../images/gry_blk.png","../images/cyn_red.png","../images/org_blu.png","../images/ylw_slt.png","../images/pnk_blu.png","../images/blu_wht.png"],"mutagen_generator_assignment":[1,0],"goal":5,"start":1,"action_noise":0.15,"location_history":"[1,2,1,0,5]","action_history":"[0,0,0,0]","mutagen_history":"[1,1,1,1]","location_rts":"[536,690,654,517]","trial_type":"fractal-mutation","trial_index":72,"time_elapsed":1527544,"internal_node_id":"0.0-5.0-18.0"},{"group":"hexagon_bi","fractal_assignment":["../images/gry_blk.png","../images/cyn_red.png","../images/org_blu.png","../images/ylw_slt.png","../images/pnk_blu.png","../images/blu_wht.png"],"mutagen_generator_assignment":[1,0],"goal":2,"start":5,"action_noise":0.15,"location_history":"[5,4,5,4,5,4,5,4,5,0,5,4,3,2]","action_history":"[1,1,1,1,1,1,1,1,0,0,0,0,1]","mutagen_history":"[0,0,0,0,0,0,0,0,1,1,1,1,0]","location_rts":"[608,2090,1463,766,586,700,461,442,417,496,426,404,415]","trial_type":"fractal-mutation","trial_index":73,"time_elapsed":1554304,"internal_node_id":"0.0-5.0-19.0"},{"group":"hexagon_bi","fractal_assignment":["../images/gry_blk.png","../images/cyn_red.png","../images/org_blu.png","../images/ylw_slt.png","../images/pnk_blu.png","../images/blu_wht.png"],"mutagen_generator_assignment":[1,0],"goal":4,"start":2,"action_noise":0.15,"location_history":"[2,3,2,3,2,3,4]","action_history":"[1,1,1,1,1,0]","mutagen_history":"[0,0,0,0,0,1]","location_rts":"[417,1019,839,541,429,468]","trial_type":"fractal-mutation","trial_index":74,"time_elapsed":1567927,"internal_node_id":"0.0-5.0-20.0"},{"group":"hexagon_bi","fractal_assignment":["../images/gry_blk.png","../images/cyn_red.png","../images/org_blu.png","../images/ylw_slt.png","../images/pnk_blu.png","../images/blu_wht.png"],"mutagen_generator_assignment":[1,0],"goal":1,"start":4,"action_noise":0.15,"location_history":"[4,5,0,5,0,5,0,1]","action_history":"[1,0,0,0,0,0,1]","mutagen_history":"[0,1,1,1,1,1,0]","location_rts":"[11299,1127,494,579,545,625,479]","trial_type":"fractal-mutation","trial_index":75,"time_elapsed":1594201,"internal_node_id":"0.0-5.0-21.0"},{"group":"hexagon_bi","fractal_assignment":["../images/gry_blk.png","../images/cyn_red.png","../images/org_blu.png","../images/ylw_slt.png","../images/pnk_blu.png","../images/blu_wht.png"],"mutagen_generator_assignment":[1,0],"goal":3,"start":1,"action_noise":0.15,"location_history":"[1,0,1,0,5,0,1,2,1,2,3]","action_history":"[1,1,1,0,0,0,0,0,0,1]","mutagen_history":"[0,0,0,1,1,1,1,1,1,0]","location_rts":"[664,472,454,441,445,438,489,471,381,460]","trial_type":"fractal-mutation","trial_index":76,"time_elapsed":1613284,"internal_node_id":"0.0-5.0-22.0"},{"group":"hexagon_bi","fractal_assignment":["../images/gry_blk.png","../images/cyn_red.png","../images/org_blu.png","../images/ylw_slt.png","../images/pnk_blu.png","../images/blu_wht.png"],"mutagen_generator_assignment":[1,0],"goal":2,"start":3,"action_noise":0.15,"location_history":"[3,2]","action_history":"[1]","mutagen_history":"[0]","location_rts":"[564]","trial_type":"fractal-mutation","trial_index":77,"time_elapsed":1618414,"internal_node_id":"0.0-5.0-23.0"},{"group":"hexagon_bi","fractal_assignment":["../images/gry_blk.png","../images/cyn_red.png","../images/org_blu.png","../images/ylw_slt.png","../images/pnk_blu.png","../images/blu_wht.png"],"mutagen_generator_assignment":[1,0],"goal":0,"start":2,"action_noise":0.15,"location_history":"[2,1,2,3,4,5,0]","action_history":"[0,0,0,0,1,1]","mutagen_history":"[1,1,1,1,0,0]","location_rts":"[1057,597,471,421,426,464]","trial_type":"fractal-mutation","trial_index":78,"time_elapsed":1631897,"internal_node_id":"0.0-5.0-24.0"},{"group":"hexagon_bi","fractal_assignment":["../images/gry_blk.png","../images/cyn_red.png","../images/org_blu.png","../images/ylw_slt.png","../images/pnk_blu.png","../images/blu_wht.png"],"mutagen_generator_assignment":[1,0],"goal":5,"start":0,"action_noise":0.15,"location_history":"[0,5]","action_history":"[1]","mutagen_history":"[0]","location_rts":"[623]","trial_type":"fractal-mutation","trial_index":79,"time_elapsed":1637091,"internal_node_id":"0.0-5.0-25.0"},{"group":"hexagon_bi","fractal_assignment":["../images/gry_blk.png","../images/cyn_red.png","../images/org_blu.png","../images/ylw_slt.png","../images/pnk_blu.png","../images/blu_wht.png"],"mutagen_generator_assignment":[1,0],"goal":2,"start":5,"action_noise":0.15,"location_history":"[5,0,5,4,5,4,3,4,5,4,3,2]","action_history":"[1,1,1,1,1,0,0,1,1,1,1]","mutagen_history":"[0,0,0,0,0,1,1,0,0,0,0]","location_rts":"[494,1225,729,573,1309,765,573,1098,481,441,446]","trial_type":"fractal-mutation","trial_index":80,"time_elapsed":1660494,"internal_node_id":"0.0-5.0-26.0"},{"group":"hexagon_bi","fractal_assignment":["../images/gry_blk.png","../images/cyn_red.png","../images/org_blu.png","../images/ylw_slt.png","../images/pnk_blu.png","../images/blu_wht.png"],"mutagen_generator_assignment":[1,0],"goal":3,"start":2,"action_noise":0.15,"location_history":"[2,3]","action_history":"[1]","mutagen_history":"[0]","location_rts":"[698]","trial_type":"fractal-mutation","trial_index":81,"time_elapsed":1665764,"internal_node_id":"0.0-5.0-27.0"},{"group":"hexagon_bi","fractal_assignment":["../images/gry_blk.png","../images/cyn_red.png","../images/org_blu.png","../images/ylw_slt.png","../images/pnk_blu.png","../images/blu_wht.png"],"mutagen_generator_assignment":[1,0],"goal":0,"start":3,"action_noise":0.15,"location_history":"[3,2,1,2,1,0]","action_history":"[1,0,0,0,1]","mutagen_history":"[0,1,1,1,0]","location_rts":"[909,743,754,568,513]","trial_type":"fractal-mutation","trial_index":82,"time_elapsed":1678181,"internal_node_id":"0.0-5.0-28.0"},{"group":"hexagon_bi","fractal_assignment":["../images/gry_blk.png","../images/cyn_red.png","../images/org_blu.png","../images/ylw_slt.png","../images/pnk_blu.png","../images/blu_wht.png"],"mutagen_generator_assignment":[1,0],"goal":1,"start":0,"action_noise":0.15,"location_history":"[0,1]","action_history":"[1]","mutagen_history":"[0]","location_rts":"[363]","trial_type":"fractal-mutation","trial_index":83,"time_elapsed":1683108,"internal_node_id":"0.0-5.0-29.0"},{"group":"hexagon_bi","fractal_assignment":["../images/gry_blk.png","../images/cyn_red.png","../images/org_blu.png","../images/ylw_slt.png","../images/pnk_blu.png","../images/blu_wht.png"],"mutagen_generator_assignment":[1,0],"goal":4,"start":1,"action_noise":0.15,"location_history":"[1,0,1,0,5,0,5,0,5,4]","action_history":"[1,1,1,0,0,0,0,0,1]","mutagen_history":"[0,0,0,1,1,1,1,1,0]","location_rts":"[613,580,562,434,434,1536,2022,16543,1488]","trial_type":"fractal-mutation","trial_index":84,"time_elapsed":1720604,"internal_node_id":"0.0-5.0-30.0"},{"group":"hexagon_bi","fractal_assignment":["../images/gry_blk.png","../images/cyn_red.png","../images/org_blu.png","../images/ylw_slt.png","../images/pnk_blu.png","../images/blu_wht.png"],"mutagen_generator_assignment":[1,0],"goal":5,"start":4,"action_noise":0.15,"location_history":"[4,3,4,3,4,3,4,5]","action_history":"[1,0,0,0,0,0,1]","mutagen_history":"[0,1,1,1,1,1,0]","location_rts":"[1100,484,505,495,439,411,476]","trial_type":"fractal-mutation","trial_index":85,"time_elapsed":1735702,"internal_node_id":"0.0-5.0-31.0"},{"group":"hexagon_bi","fractal_assignment":["../images/gry_blk.png","../images/cyn_red.png","../images/org_blu.png","../images/ylw_slt.png","../images/pnk_blu.png","../images/blu_wht.png"],"mutagen_generator_assignment":[1,0],"goal":0,"start":5,"action_noise":0.15,"location_history":"[5,4,5,4,5,0]","action_history":"[1,1,1,1,1]","mutagen_history":"[0,0,0,0,0]","location_rts":"[627,490,570,426,512]","trial_type":"fractal-mutation","trial_index":86,"time_elapsed":1747149,"internal_node_id":"0.0-5.0-32.0"},{"group":"hexagon_bi","fractal_assignment":["../images/gry_blk.png","../images/cyn_red.png","../images/org_blu.png","../images/ylw_slt.png","../images/pnk_blu.png","../images/blu_wht.png"],"mutagen_generator_assignment":[1,0],"goal":3,"start":0,"action_noise":0.15,"location_history":"[0,5,4,5,0,5,0,5,4,5,4,5,0,1,2,1,0,5,0,1,0,1,0,1,2,1,2,3]","action_history":"[0,1,1,1,0,0,0,1,1,1,1,0,0,0,0,0,0,1,1,1,1,1,1,0,0,0,1]","mutagen_history":"[1,0,0,0,1,1,1,0,0,0,0,1,1,1,1,1,1,0,0,0,0,0,0,1,1,1,0]","location_rts":"[56052,1199,418,462,460,446,434,451,438,436,511,439,379,508,527,864,628,510,526,380,403,361,373,384,448,337,484]","trial_type":"fractal-mutation","trial_index":87,"time_elapsed":1848706,"internal_node_id":"0.0-5.0-33.0"},{"group":"hexagon_bi","fractal_assignment":["../images/gry_blk.png","../images/cyn_red.png","../images/org_blu.png","../images/ylw_slt.png","../images/pnk_blu.png","../images/blu_wht.png"],"mutagen_generator_assignment":[1,0],"goal":1,"start":3,"action_noise":0.15,"location_history":"[3,2,3,2,1]","action_history":"[1,1,1,1]","mutagen_history":"[0,0,0,0]","location_rts":"[9055,596,979,1000]","trial_type":"fractal-mutation","trial_index":88,"time_elapsed":1868092,"internal_node_id":"0.0-5.0-34.0"},{"group":"hexagon_bi","fractal_assignment":["../images/gry_blk.png","../images/cyn_red.png","../images/org_blu.png","../images/ylw_slt.png","../images/pnk_blu.png","../images/blu_wht.png"],"mutagen_generator_assignment":[1,0],"goal":2,"start":1,"action_noise":0.15,"location_history":"[1,0,1,0,1,0,1,0,1,0,5,0,5,0,1,0,5,4,3,2]","action_history":"[1,1,1,1,1,1,1,1,1,0,0,0,0,1,1,0,1,0,1]","mutagen_history":"[0,0,0,0,0,0,0,0,0,1,1,1,1,0,0,1,0,1,0]","location_rts":"[3484,2139,2069,1356,1801,1090,778,468,421,429,554,531,406,402,432,475,444,481,381]","trial_type":"fractal-mutation","trial_index":89,"time_elapsed":1910176,"internal_node_id":"0.0-5.0-35.0"},{"group":"hexagon_bi","fractal_assignment":["../images/gry_blk.png","../images/cyn_red.png","../images/org_blu.png","../images/ylw_slt.png","../images/pnk_blu.png","../images/blu_wht.png"],"mutagen_generator_assignment":[1,0],"goal":4,"start":2,"action_noise":0.15,"location_history":"[2,3,2,3,4]","action_history":"[1,1,1,0]","mutagen_history":"[0,0,0,1]","location_rts":"[617,497,695,417]","trial_type":"fractal-mutation","trial_index":90,"time_elapsed":1920205,"internal_node_id":"0.0-5.0-36.0"},{"group":"hexagon_bi","fractal_assignment":["../images/gry_blk.png","../images/cyn_red.png","../images/org_blu.png","../images/ylw_slt.png","../images/pnk_blu.png","../images/blu_wht.png"],"mutagen_generator_assignment":[1,0],"goal":5,"start":4,"action_noise":0.15,"location_history":"[4,3,2,1,0,1,2,3,2,3,4,5]","action_history":"[0,0,0,1,1,0,1,0,1,0,0]","mutagen_history":"[1,1,1,0,0,1,0,1,0,1,1]","location_rts":"[1586,446,390,614,416,459,374,364,373,392,485]","trial_type":"fractal-mutation","trial_index":91,"time_elapsed":1941649,"internal_node_id":"0.0-5.0-37.0"},{"group":"hexagon_bi","fractal_assignment":["../images/gry_blk.png","../images/cyn_red.png","../images/org_blu.png","../images/ylw_slt.png","../images/pnk_blu.png","../images/blu_wht.png"],"mutagen_generator_assignment":[1,0],"goal":1,"start":5,"action_noise":0.15,"location_history":"[5,4,5,4,5,0,5,0,1]","action_history":"[1,1,1,1,0,0,0,0]","mutagen_history":"[0,0,0,0,1,1,1,1]","location_rts":"[1256,470,451,430,385,369,390,374]","trial_type":"fractal-mutation","trial_index":92,"time_elapsed":1957915,"internal_node_id":"0.0-5.0-38.0"},{"group":"hexagon_bi","fractal_assignment":["../images/gry_blk.png","../images/cyn_red.png","../images/org_blu.png","../images/ylw_slt.png","../images/pnk_blu.png","../images/blu_wht.png"],"mutagen_generator_assignment":[1,0],"goal":4,"start":1,"action_noise":0.15,"location_history":"[1,2,3,2,3,4]","action_history":"[0,1,1,1,0]","mutagen_history":"[1,0,0,0,1]","location_rts":"[67741,1669,930,428,367]","trial_type":"fractal-mutation","trial_index":93,"time_elapsed":2037956,"internal_node_id":"0.0-5.0-39.0"},{"group":"hexagon_bi","fractal_assignment":["../images/gry_blk.png","../images/cyn_red.png","../images/org_blu.png","../images/ylw_slt.png","../images/pnk_blu.png","../images/blu_wht.png"],"mutagen_generator_assignment":[1,0],"goal":3,"start":4,"action_noise":0.15,"location_history":"[4,5,4,3]","action_history":"[0,0,0]","mutagen_history":"[1,1,1]","location_rts":"[621,503,390]","trial_type":"fractal-mutation","trial_index":94,"time_elapsed":2046284,"internal_node_id":"0.0-5.0-40.0"},{"group":"hexagon_bi","fractal_assignment":["../images/gry_blk.png","../images/cyn_red.png","../images/org_blu.png","../images/ylw_slt.png","../images/pnk_blu.png","../images/blu_wht.png"],"mutagen_generator_assignment":[1,0],"goal":2,"start":3,"action_noise":0.15,"location_history":"[3,4,5,4,5,4,5,0,5,4,3,4,3,4,5,4,5,0,1,2]","action_history":"[0,1,1,1,1,1,0,0,0,0,0,0,0,1,1,1,0,1,0]","mutagen_history":"[1,0,0,0,0,0,1,1,1,1,1,1,1,0,0,0,1,0,1]","location_rts":"[596,665,424,516,409,435,379,370,478,479,429,464,809,374,404,362,395,384,343]","trial_type":"fractal-mutation","trial_index":95,"time_elapsed":2079056,"internal_node_id":"0.0-5.0-41.0"},{"group":"hexagon_bi","fractal_assignment":["../images/gry_blk.png","../images/cyn_red.png","../images/org_blu.png","../images/ylw_slt.png","../images/pnk_blu.png","../images/blu_wht.png"],"mutagen_generator_assignment":[1,0],"goal":0,"start":2,"action_noise":0.15,"location_history":"[2,1,0]","action_history":"[0,1]","mutagen_history":"[1,0]","location_rts":"[1000,552]","trial_type":"fractal-mutation","trial_index":96,"time_elapsed":2086276,"internal_node_id":"0.0-5.0-42.0"},{"group":"hexagon_bi","fractal_assignment":["../images/gry_blk.png","../images/cyn_red.png","../images/org_blu.png","../images/ylw_slt.png","../images/pnk_blu.png","../images/blu_wht.png"],"mutagen_generator_assignment":[1,0],"goal":5,"start":0,"action_noise":0.15,"location_history":"[0,5]","action_history":"[0]","mutagen_history":"[1]","location_rts":"[492]","trial_type":"fractal-mutation","trial_index":97,"time_elapsed":2091379,"internal_node_id":"0.0-5.0-43.0"},{"group":"hexagon_bi","fractal_assignment":["../images/gry_blk.png","../images/cyn_red.png","../images/org_blu.png","../images/ylw_slt.png","../images/pnk_blu.png","../images/blu_wht.png"],"mutagen_generator_assignment":[1,0],"goal":0,"start":5,"action_noise":0.15,"location_history":"[5,0]","action_history":"[0]","mutagen_history":"[1]","location_rts":"[477]","trial_type":"fractal-mutation","trial_index":98,"time_elapsed":2096477,"internal_node_id":"0.0-5.0-44.0"},{"group":"hexagon_bi","fractal_assignment":["../images/gry_blk.png","../images/cyn_red.png","../images/org_blu.png","../images/ylw_slt.png","../images/pnk_blu.png","../images/blu_wht.png"],"mutagen_generator_assignment":[1,0],"goal":2,"start":0,"action_noise":0.15,"location_history":"[0,1,2]","action_history":"[1,0]","mutagen_history":"[0,1]","location_rts":"[969,982]","trial_type":"fractal-mutation","trial_index":99,"time_elapsed":2104107,"internal_node_id":"0.0-5.0-45.0"},{"group":"hexagon_bi","fractal_assignment":["../images/gry_blk.png","../images/cyn_red.png","../images/org_blu.png","../images/ylw_slt.png","../images/pnk_blu.png","../images/blu_wht.png"],"mutagen_generator_assignment":[1,0],"goal":4,"start":2,"action_noise":0.15,"location_history":"[2,3,4]","action_history":"[0,1]","mutagen_history":"[1,0]","location_rts":"[1134,626]","trial_type":"fractal-mutation","trial_index":100,"time_elapsed":2111523,"internal_node_id":"0.0-5.0-46.0"},{"group":"hexagon_bi","fractal_assignment":["../images/gry_blk.png","../images/cyn_red.png","../images/org_blu.png","../images/ylw_slt.png","../images/pnk_blu.png","../images/blu_wht.png"],"mutagen_generator_assignment":[1,0],"goal":1,"start":4,"action_noise":0.15,"location_history":"[4,3,2,1]","action_history":"[0,1,0]","mutagen_history":"[1,0,1]","location_rts":"[693,1329,946]","trial_type":"fractal-mutation","trial_index":101,"time_elapsed":2121255,"internal_node_id":"0.0-5.0-47.0"},{"group":"hexagon_bi","fractal_assignment":["../images/gry_blk.png","../images/cyn_red.png","../images/org_blu.png","../images/ylw_slt.png","../images/pnk_blu.png","../images/blu_wht.png"],"mutagen_generator_assignment":[1,0],"goal":5,"start":1,"action_noise":0.15,"location_history":"[1,2,1,2,1,2,3,2,3,2,3,2,3,2,1,0,5]","action_history":"[0,1,0,1,0,1,0,1,1,1,1,1,1,0,0,0]","mutagen_history":"[1,0,1,0,1,0,1,0,0,0,0,0,0,1,1,1]","location_rts":"[4209,594,465,1264,513,446,404,449,386,330,358,349,436,1462,345,320]","trial_type":"fractal-mutation","trial_index":102,"time_elapsed":2154491,"internal_node_id":"0.0-5.0-48.0"},{"group":"hexagon_bi","fractal_assignment":["../images/gry_blk.png","../images/cyn_red.png","../images/org_blu.png","../images/ylw_slt.png","../images/pnk_blu.png","../images/blu_wht.png"],"mutagen_generator_assignment":[1,0],"goal":3,"start":5,"action_noise":0.15,"location_history":"[5,4,3]","action_history":"[1,0]","mutagen_history":"[0,1]","location_rts":"[789,463]","trial_type":"fractal-mutation","trial_index":103,"time_elapsed":2161421,"internal_node_id":"0.0-5.0-49.0"},{"view_history":"[{\"page_index\":0,\"viewing_time\":6621}]","rt":6621,"trial_type":"instructions","trial_index":104,"time_elapsed":2169043,"internal_node_id":"0.0-6.0"},{"rt":5749,"responses":"{\"Q0\":\"no\"}","trial_type":"survey-text","trial_index":105,"time_elapsed":2175797,"internal_node_id":"0.0-7.0"}]