[{"view_history":"[{\"page_index\":0,\"viewing_time\":31569},{\"page_index\":1,\"viewing_time\":18318}]","rt":49887,"trial_type":"instructions","trial_index":0,"time_elapsed":49888,"internal_node_id":"0.0-0.0"},{"view_history":"[{\"page_index\":0,\"viewing_time\":2672},{\"page_index\":1,\"viewing_time\":4876}]","rt":7548,"trial_type":"instructions","trial_index":1,"time_elapsed":58438,"internal_node_id":"0.0-1.0"},{"group":"hexagon_tri","room_assignment":["green","grey","purple","red","yellow","blue"],"door_color_assignment":["black","white"],"door_generator_assignment":[0,1],"goal":3,"start":5,"action_noise":0.15,"location_history":"[5,4,0,5,0,5,0,1,5,4,0,5,4,0,5,4,0,5,0,5,0,1,5,0,1,5,0,5,4,2,1,5,0,1,5,0,1,5,4,0,1,3]","action_history":"[0,0,0,1,1,1,1,1,0,0,0,0,0,0,0,0,0,0,0,0,1,1,1,1,1,1,1,0,1,0,1,1,1,1,1,1,1,0,0,1,1]","door_history":"[0,0,0,1,1,1,1,1,0,0,0,0,0,0,0,0,0,0,0,0,1,1,1,1,1,1,1,0,1,0,1,1,1,1,1,1,1,0,0,1,1]","location_rts":"[9031,1203,687,8710,1101,686,682,644,604,578,525,566,514,435,468,537,329,498,497,426,337,543,495,420,588,461,479,439,545,449,617,494,443,407,283,449,498,168,548,511,542]","trial_type":"two-door-navigation","trial_index":2,"time_elapsed":142316,"internal_node_id":"0.0-2.0-0.0"},{"group":"hexagon_tri","room_assignment":["green","grey","purple","red","yellow","blue"],"door_color_assignment":["black","white"],"door_generator_assignment":[0,1],"goal":1,"start":3,"action_noise":0.15,"location_history":"[3,2,1]","action_history":"[0,0]","door_history":"[0,0]","location_rts":"[6946,639]","trial_type":"two-door-navigation","trial_index":3,"time_elapsed":155447,"internal_node_id":"0.0-2.0-1.0"},{"group":"hexagon_tri","room_assignment":["green","grey","purple","red","yellow","blue"],"door_color_assignment":["black","white"],"door_generator_assignment":[0,1],"goal":0,"start":1,"action_noise":0.15,"location_history":"[1,5,0]","action_history":"[1,1]","door_history":"[1,1]","location_rts":"[1225,547]","trial_type":"two-door-navigation","trial_index":4,"time_elapsed":162772,"internal_node_id":"0.0-2.0-2.0"},{"group":"hexagon_tri","room_assignment":["green","grey","purple","red","yellow","blue"],"door_color_assignment":["black","white"],"door_generator_assignment":[0,1],"goal":3,"start":0,"action_noise":0.15,"location_history":"[0,5,4,0,5,0,1,3]","action_history":"[0,0,0,1,1,0,0]","door_history":"[0,0,0,1,1,0,0]","location_rts":"[999,601,651,589,509,721,770]","trial_type":"two-door-navigation","trial_index":5,"time_elapsed":178279,"internal_node_id":"0.0-2.0-3.0"},{"group":"hexagon_tri","room_assignment":["green","grey","purple","red","yellow","blue"],"door_color_assignment":["black","white"],"door_generator_assignment":[0,1],"goal":4,"start":3,"action_noise":0.15,"location_history":"[3,4]","action_history":"[1]","door_history":"[1]","location_rts":"[26515]","trial_type":"two-door-navigation","trial_index":6,"time_elapsed":209323,"internal_node_id":"0.0-2.0-4.0"},{"group":"hexagon_tri","room_assignment":["green","grey","purple","red","yellow","blue"],"door_color_assignment":["black","white"],"door_generator_assignment":[0,1],"goal":2,"start":4,"action_noise":0.15,"location_history":"[4,0,1,3,2]","action_history":"[0,0,0,0]","door_history":"[0,0,0,0]","location_rts":"[1714,581,863,557]","trial_type":"two-door-navigation","trial_index":7,"time_elapsed":220638,"internal_node_id":"0.0-2.0-5.0"},{"group":"hexagon_tri","room_assignment":["green","grey","purple","red","yellow","blue"],"door_color_assignment":["black","white"],"door_generator_assignment":[0,1],"goal":1,"start":2,"action_noise":0.15,"location_history":"[2,1]","action_history":"[1]","door_history":"[1]","location_rts":"[6515]","trial_type":"two-door-navigation","trial_index":8,"time_elapsed":231682,"internal_node_id":"0.0-2.0-6.0"},{"group":"hexagon_tri","room_assignment":["green","grey","purple","red","yellow","blue"],"door_color_assignment":["black","white"],"door_generator_assignment":[0,1],"goal":5,"start":1,"action_noise":0.15,"location_history":"[1,3,2,3,2,3,4,0,1,3,2,1,3,2,3,4,0,1,5]","action_history":"[0,0,1,1,1,1,0,0,0,0,0,0,1,1,1,0,0,0]","door_history":"[0,0,1,1,1,1,0,0,0,0,0,0,1,1,1,0,0,0]","location_rts":"[2971,14516,2286,1145,953,819,780,515,596,576,568,592,523,924,2753,26907,753,960]","trial_type":"two-door-navigation","trial_index":9,"time_elapsed":312726,"internal_node_id":"0.0-2.0-7.0"},{"group":"hexagon_tri","room_assignment":["green","grey","purple","red","yellow","blue"],"door_color_assignment":["black","white"],"door_generator_assignment":[0,1],"goal":4,"start":5,"action_noise":0.15,"location_history":"[5,4]","action_history":"[1]","door_history":"[1]","location_rts":"[6248]","trial_type":"two-door-navigation","trial_index":10,"time_elapsed":323500,"internal_node_id":"0.0-2.0-8.0"},{"group":"hexagon_tri","room_assignment":["green","grey","purple","red","yellow","blue"],"door_color_assignment":["black","white"],"door_generator_assignment":[0,1],"goal":2,"start":4,"action_noise":0.15,"location_history":"[4,0,5,4,0,5,0,1,5,0,1,5,4,2]","action_history":"[0,0,0,0,0,1,1,1,1,1,1,1,1]","door_history":"[0,0,0,0,0,1,1,1,1,1,1,1,1]","location_rts":"[38137,733,783,703,972,1574,3908,538,593,802,568,662,632]","trial_type":"two-door-navigation","trial_index":11,"time_elapsed":390898,"internal_node_id":"0.0-2.0-9.0"},{"group":"hexagon_tri","room_assignment":["green","grey","purple","red","yellow","blue"],"door_color_assignment":["black","white"],"door_generator_assignment":[0,1],"goal":0,"start":2,"action_noise":0.15,"location_history":"[2,1,5,4,2,1,5,4,2,3,4,0]","action_history":"[0,0,0,0,0,1,1,1,1,1,0]","door_history":"[0,0,0,0,0,1,1,1,1,1,0]","location_rts":"[6432,554,14340,499,1065,588,324,598,597,626,548]","trial_type":"two-door-navigation","trial_index":12,"time_elapsed":431819,"internal_node_id":"0.0-2.0-10.0"},{"group":"hexagon_tri","room_assignment":["green","grey","purple","red","yellow","blue"],"door_color_assignment":["black","white"],"door_generator_assignment":[0,1],"goal":1,"start":0,"action_noise":0.15,"location_history":"[0,5,0,5,4,0,5,4,0,1]","action_history":"[1,1,0,0,0,0,0,0,1]","door_history":"[1,1,0,0,0,0,0,0,1]","location_rts":"[8792,570,690,499,731,686,657,922,963]","trial_type":"two-door-navigation","trial_index":13,"time_elapsed":459036,"internal_node_id":"0.0-2.0-11.0"},{"group":"hexagon_tri","room_assignment":["green","grey","purple","red","yellow","blue"],"door_color_assignment":["black","white"],"door_generator_assignment":[0,1],"goal":3,"start":1,"action_noise":0.15,"location_history":"[1,5,0,5,4,0,5,4,0,5,0,1,5,0,1,3]","action_history":"[1,1,0,0,0,0,0,0,0,1,1,1,1,1,1]","door_history":"[1,1,0,0,0,0,0,0,0,1,1,1,1,1,1]","location_rts":"[50863,8440,3157,609,747,9308,1406,851,1106,8260,582,536,588,583,501]","trial_type":"two-door-navigation","trial_index":14,"time_elapsed":565405,"internal_node_id":"0.0-2.0-12.0"},{"group":"hexagon_tri","room_assignment":["green","grey","purple","red","yellow","blue"],"door_color_assignment":["black","white"],"door_generator_assignment":[0,1],"goal":5,"start":3,"action_noise":0.15,"location_history":"[3,2,1,3,2,1,5]","action_history":"[0,0,0,0,0,1]","door_history":"[0,0,0,0,0,1]","location_rts":"[9511,737,815,849,2641,16952]","trial_type":"two-door-navigation","trial_index":15,"time_elapsed":606546,"internal_node_id":"0.0-2.0-13.0"},{"group":"hexagon_tri","room_assignment":["green","grey","purple","red","yellow","blue"],"door_color_assignment":["black","white"],"door_generator_assignment":[0,1],"goal":4,"start":5,"action_noise":0.15,"location_history":"[5,4]","action_history":"[0]","door_history":"[0]","location_rts":"[4913]","trial_type":"two-door-navigation","trial_index":16,"time_elapsed":615982,"internal_node_id":"0.0-2.0-14.0"},{"group":"hexagon_tri","room_assignment":["green","grey","purple","red","yellow","blue"],"door_color_assignment":["black","white"],"door_generator_assignment":[0,1],"goal":0,"start":4,"action_noise":0.15,"location_history":"[4,0]","action_history":"[0]","door_history":"[0]","location_rts":"[36801]","trial_type":"two-door-navigation","trial_index":17,"time_elapsed":657311,"internal_node_id":"0.0-2.0-15.0"},{"group":"hexagon_tri","room_assignment":["green","grey","purple","red","yellow","blue"],"door_color_assignment":["black","white"],"door_generator_assignment":[0,1],"goal":3,"start":0,"action_noise":0.15,"location_history":"[0,1,5,0,5,0,1,5,0,1,3]","action_history":"[1,1,1,1,1,1,1,1,1,1]","door_history":"[1,1,1,1,1,1,1,1,1,1]","location_rts":"[1941,930,19752,710,603,605,877,2305,11434,1470]","trial_type":"two-door-navigation","trial_index":18,"time_elapsed":711670,"internal_node_id":"0.0-2.0-16.0"},{"group":"hexagon_tri","room_assignment":["green","grey","purple","red","yellow","blue"],"door_color_assignment":["black","white"],"door_generator_assignment":[0,1],"goal":1,"start":3,"action_noise":0.15,"location_history":"[3,2,1]","action_history":"[0,0]","door_history":"[0,0]","location_rts":"[2169,889]","trial_type":"two-door-navigation","trial_index":19,"time_elapsed":720269,"internal_node_id":"0.0-2.0-17.0"},{"group":"hexagon_tri","room_assignment":["green","grey","purple","red","yellow","blue"],"door_color_assignment":["black","white"],"door_generator_assignment":[0,1],"goal":5,"start":1,"action_noise":0.15,"location_history":"[1,3,2,1,3,2,1,3,2,1,3,2,1,3,4,0,5]","action_history":"[0,0,0,0,0,0,0,0,0,0,0,0,0,0,0,0]","door_history":"[0,0,0,0,0,0,0,0,0,0,0,0,0,0,0,0]","location_rts":"[1877,1184,3922,5312,15950,700,602,217,601,146,170,265,567,511,470,111]","trial_type":"two-door-navigation","trial_index":20,"time_elapsed":772739,"internal_node_id":"0.0-2.0-18.0"},{"group":"hexagon_tri","room_assignment":["green","grey","purple","red","yellow","blue"],"door_color_assignment":["black","white"],"door_generator_assignment":[0,1],"goal":2,"start":5,"action_noise":0.15,"location_history":"[5,0,5,4,0,5,0,1,3,4,2]","action_history":"[0,0,0,0,0,1,1,1,1,1]","door_history":"[0,0,0,0,0,1,1,1,1,1]","location_rts":"[1729,647,690,1040,1039,42141,901,1563,537,3329]","trial_type":"two-door-navigation","trial_index":21,"time_elapsed":840091,"internal_node_id":"0.0-2.0-19.0"},{"group":"hexagon_tri","room_assignment":["green","grey","purple","red","yellow","blue"],"door_color_assignment":["black","white"],"door_generator_assignment":[0,1],"goal":4,"start":2,"action_noise":0.15,"location_history":"[2,1,5,0,1,3,2,1,3,2,1,3,2,1,3,2,1,3,2,3,2,3,4]","action_history":"[1,1,1,0,0,0,0,0,0,0,0,0,0,0,0,0,0,0,0,0,1,1]","door_history":"[1,1,1,0,0,0,0,0,0,0,0,0,0,0,0,0,0,0,0,0,1,1]","location_rts":"[13397,4706,3805,5020,710,652,803,666,819,659,908,702,1015,769,539,858,591,662,548,610,1146,516]","trial_type":"two-door-navigation","trial_index":22,"time_elapsed":906201,"internal_node_id":"0.0-2.0-20.0"},{"group":"hexagon_tri","room_assignment":["green","grey","purple","red","yellow","blue"],"door_color_assignment":["black","white"],"door_generator_assignment":[0,1],"goal":1,"start":4,"action_noise":0.15,"location_history":"[4,2,3,2,1]","action_history":"[1,1,0,0]","door_history":"[1,1,0,0]","location_rts":"[1509,485,761,498]","trial_type":"two-door-navigation","trial_index":23,"time_elapsed":917047,"internal_node_id":"0.0-2.0-21.0"},{"group":"hexagon_tri","room_assignment":["green","grey","purple","red","yellow","blue"],"door_color_assignment":["black","white"],"door_generator_assignment":[0,1],"goal":3,"start":1,"action_noise":0.15,"location_history":"[1,5,0,1,5,0,1,3]","action_history":"[1,1,1,1,1,1,1]","door_history":"[1,1,1,1,1,1,1]","location_rts":"[1560,514,588,504,539,580,475]","trial_type":"two-door-navigation","trial_index":24,"time_elapsed":932477,"internal_node_id":"0.0-2.0-22.0"},{"group":"hexagon_tri","room_assignment":["green","grey","purple","red","yellow","blue"],"door_color_assignment":["black","white"],"door_generator_assignment":[0,1],"goal":2,"start":3,"action_noise":0.15,"location_history":"[3,2]","action_history":"[0]","door_history":"[0]","location_rts":"[1583]","trial_type":"two-door-navigation","trial_index":25,"time_elapsed":938587,"internal_node_id":"0.0-2.0-23.0"},{"group":"hexagon_tri","room_assignment":["green","grey","purple","red","yellow","blue"],"door_color_assignment":["black","white"],"door_generator_assignment":[0,1],"goal":0,"start":2,"action_noise":0.15,"location_history":"[2,3,4,2,3,4,0]","action_history":"[1,1,1,1,1,1]","door_history":"[1,1,1,1,1,1]","location_rts":"[1353,559,990,542,596,701]","trial_type":"two-door-navigation","trial_index":26,"time_elapsed":952972,"internal_node_id":"0.0-2.0-24.0"},{"group":"hexagon_tri","room_assignment":["green","grey","purple","red","yellow","blue"],"door_color_assignment":["black","white"],"door_generator_assignment":[0,1],"goal":5,"start":0,"action_noise":0.15,"location_history":"[0,5]","action_history":"[0]","door_history":"[0]","location_rts":"[4715]","trial_type":"two-door-navigation","trial_index":27,"time_elapsed":962217,"internal_node_id":"0.0-2.0-25.0"},{"group":"hexagon_tri","room_assignment":["green","grey","purple","red","yellow","blue"],"door_color_assignment":["black","white"],"door_generator_assignment":[0,1],"goal":2,"start":5,"action_noise":0.15,"location_history":"[5,4,0,1,5,0,5,4,2]","action_history":"[0,0,1,1,1,1,1,1]","door_history":"[0,0,1,1,1,1,1,1]","location_rts":"[876,587,1589,591,742,578,582,603]","trial_type":"two-door-navigation","trial_index":28,"time_elapsed":980045,"internal_node_id":"0.0-2.0-26.0"},{"group":"hexagon_tri","room_assignment":["green","grey","purple","red","yellow","blue"],"door_color_assignment":["black","white"],"door_generator_assignment":[0,1],"goal":3,"start":2,"action_noise":0.15,"location_history":"[2,1,5,0,5,4,2,3]","action_history":"[0,1,0,0,1,1,1]","door_history":"[0,1,0,0,1,1,1]","location_rts":"[28921,713,837,443,541,476,707]","trial_type":"two-door-navigation","trial_index":29,"time_elapsed":1023346,"internal_node_id":"0.0-2.0-27.0"},{"group":"hexagon_tri","room_assignment":["green","grey","purple","red","yellow","blue"],"door_color_assignment":["black","white"],"door_generator_assignment":[0,1],"goal":0,"start":3,"action_noise":0.15,"location_history":"[3,4,0]","action_history":"[1,1]","door_history":"[1,1]","location_rts":"[15791,885]","trial_type":"two-door-navigation","trial_index":30,"time_elapsed":1045573,"internal_node_id":"0.0-2.0-28.0"},{"group":"hexagon_tri","room_assignment":["green","grey","purple","red","yellow","blue"],"door_color_assignment":["black","white"],"door_generator_assignment":[0,1],"goal":1,"start":0,"action_noise":0.15,"location_history":"[0,1]","action_history":"[1]","door_history":"[1]","location_rts":"[1744]","trial_type":"two-door-navigation","trial_index":31,"time_elapsed":1051843,"internal_node_id":"0.0-2.0-29.0"},{"group":"hexagon_tri","room_assignment":["green","grey","purple","red","yellow","blue"],"door_color_assignment":["black","white"],"door_generator_assignment":[0,1],"goal":4,"start":1,"action_noise":0.15,"location_history":"[1,5,0,5,4]","action_history":"[1,1,1,0]","door_history":"[1,1,1,0]","location_rts":"[1866,634,726,1049]","trial_type":"two-door-navigation","trial_index":32,"time_elapsed":1063705,"internal_node_id":"0.0-2.0-30.0"},{"group":"hexagon_tri","room_assignment":["green","grey","purple","red","yellow","blue"],"door_color_assignment":["black","white"],"door_generator_assignment":[0,1],"goal":5,"start":4,"action_noise":0.15,"location_history":"[4,2,3,4,2,3,4,2,3,4,2,1,3,2,1,3,2,1,3,4,2,1,5]","action_history":"[1,1,1,1,1,1,1,1,1,0,0,0,0,0,0,0,0,0,1,1,1,1]","door_history":"[1,1,1,1,1,1,1,1,1,0,0,0,0,0,0,0,0,0,1,1,1,1]","location_rts":"[2233,636,528,848,1219,1324,1209,653,660,510,529,603,495,631,513,486,529,586,929,593,693,553]","trial_type":"two-door-navigation","trial_index":33,"time_elapsed":1106650,"internal_node_id":"0.0-2.0-31.0"},{"group":"hexagon_tri","room_assignment":["green","grey","purple","red","yellow","blue"],"door_color_assignment":["black","white"],"door_generator_assignment":[0,1],"goal":0,"start":5,"action_noise":0.15,"location_history":"[5,0]","action_history":"[1]","door_history":"[1]","location_rts":"[5704]","trial_type":"two-door-navigation","trial_index":34,"time_elapsed":1116879,"internal_node_id":"0.0-2.0-32.0"},{"group":"hexagon_tri","room_assignment":["green","grey","purple","red","yellow","blue"],"door_color_assignment":["black","white"],"door_generator_assignment":[0,1],"goal":3,"start":0,"action_noise":0.15,"location_history":"[0,5,4,0,5,4,0,5,0,1,3]","action_history":"[0,0,0,0,0,0,0,1,1,1]","door_history":"[0,0,0,0,0,0,0,1,1,1]","location_rts":"[1255,1033,842,797,640,864,421,500,484,801]","trial_type":"two-door-navigation","trial_index":35,"time_elapsed":1138222,"internal_node_id":"0.0-2.0-33.0"},{"group":"hexagon_tri","room_assignment":["green","grey","purple","red","yellow","blue"],"door_color_assignment":["black","white"],"door_generator_assignment":[0,1],"goal":1,"start":3,"action_noise":0.15,"location_history":"[3,4,2,1]","action_history":"[1,1,0]","door_history":"[1,1,0]","location_rts":"[2222,598,456]","trial_type":"two-door-navigation","trial_index":36,"time_elapsed":1148064,"internal_node_id":"0.0-2.0-34.0"},{"group":"hexagon_tri","room_assignment":["green","grey","purple","red","yellow","blue"],"door_color_assignment":["black","white"],"door_generator_assignment":[0,1],"goal":2,"start":1,"action_noise":0.15,"location_history":"[1,3,2]","action_history":"[1,0]","door_history":"[1,0]","location_rts":"[1693,1268]","trial_type":"two-door-navigation","trial_index":37,"time_elapsed":1156576,"internal_node_id":"0.0-2.0-35.0"},{"group":"hexagon_tri","room_assignment":["green","grey","purple","red","yellow","blue"],"door_color_assignment":["black","white"],"door_generator_assignment":[0,1],"goal":4,"start":2,"action_noise":0.15,"location_history":"[2,3,4]","action_history":"[1,1]","door_history":"[1,1]","location_rts":"[1405,655]","trial_type":"two-door-navigation","trial_index":38,"time_elapsed":1164186,"internal_node_id":"0.0-2.0-36.0"},{"group":"hexagon_tri","room_assignment":["green","grey","purple","red","yellow","blue"],"door_color_assignment":["black","white"],"door_generator_assignment":[0,1],"goal":5,"start":4,"action_noise":0.15,"location_history":"[4,2,1,3,2,1,3,4,0,5]","action_history":"[1,0,0,0,0,0,0,0,0]","door_history":"[1,0,0,0,0,0,0,0,0]","location_rts":"[1520,1278,987,1079,858,613,575,617,645]","trial_type":"two-door-navigation","trial_index":39,"time_elapsed":1185060,"internal_node_id":"0.0-2.0-37.0"},{"group":"hexagon_tri","room_assignment":["green","grey","purple","red","yellow","blue"],"door_color_assignment":["black","white"],"door_generator_assignment":[0,1],"goal":1,"start":5,"action_noise":0.15,"location_history":"[5,0,5,4,2,3,4,2,1]","action_history":"[1,1,1,1,1,1,1,0]","door_history":"[1,1,1,1,1,1,1,0]","location_rts":"[1376,718,782,1405,796,3014,965,689]","trial_type":"two-door-navigation","trial_index":40,"time_elapsed":1206482,"internal_node_id":"0.0-2.0-38.0"},{"group":"hexagon_tri","room_assignment":["green","grey","purple","red","yellow","blue"],"door_color_assignment":["black","white"],"door_generator_assignment":[0,1],"goal":4,"start":1,"action_noise":0.15,"location_history":"[1,5,0,1,5,0,1,5,4]","action_history":"[1,1,1,1,1,1,1,0]","door_history":"[1,1,1,1,1,1,1,0]","location_rts":"[1313,653,956,1033,786,945,563,796]","trial_type":"two-door-navigation","trial_index":41,"time_elapsed":1225200,"internal_node_id":"0.0-2.0-39.0"},{"group":"hexagon_tri","room_assignment":["green","grey","purple","red","yellow","blue"],"door_color_assignment":["black","white"],"door_generator_assignment":[0,1],"goal":3,"start":4,"action_noise":0.15,"location_history":"[4,2,3]","action_history":"[1,1]","door_history":"[1,1]","location_rts":"[1474,735]","trial_type":"two-door-navigation","trial_index":42,"time_elapsed":1232957,"internal_node_id":"0.0-2.0-40.0"},{"group":"hexagon_tri","room_assignment":["green","grey","purple","red","yellow","blue"],"door_color_assignment":["black","white"],"door_generator_assignment":[0,1],"goal":2,"start":3,"action_noise":0.15,"location_history":"[3,2]","action_history":"[0]","door_history":"[0]","location_rts":"[1972]","trial_type":"two-door-navigation","trial_index":43,"time_elapsed":1239455,"internal_node_id":"0.0-2.0-41.0"},{"group":"hexagon_tri","room_assignment":["green","grey","purple","red","yellow","blue"],"door_color_assignment":["black","white"],"door_generator_assignment":[0,1],"goal":0,"start":2,"action_noise":0.15,"location_history":"[2,3,4,2,1,3,2,3,4,2,1,3,2,1,3,2,1,5,0]","action_history":"[1,1,1,0,0,0,1,1,1,1,1,0,0,0,0,0,1,1]","door_history":"[1,1,1,0,0,0,1,1,1,1,1,0,0,0,0,0,1,1]","location_rts":"[1221,852,943,580,522,649,698,711,766,878,641,1652,765,620,574,778,346,493]","trial_type":"two-door-navigation","trial_index":44,"time_elapsed":1275048,"internal_node_id":"0.0-2.0-42.0"},{"group":"hexagon_tri","room_assignment":["green","grey","purple","red","yellow","blue"],"door_color_assignment":["black","white"],"door_generator_assignment":[0,1],"goal":5,"start":0,"action_noise":0.15,"location_history":"[0,1,5]","action_history":"[1,1]","door_history":"[1,1]","location_rts":"[1596,525]","trial_type":"two-door-navigation","trial_index":45,"time_elapsed":1282718,"internal_node_id":"0.0-2.0-43.0"},{"group":"hexagon_tri","room_assignment":["green","grey","purple","red","yellow","blue"],"door_color_assignment":["black","white"],"door_generator_assignment":[0,1],"goal":0,"start":5,"action_noise":0.15,"location_history":"[5,0]","action_history":"[0]","door_history":"[0]","location_rts":"[1587]","trial_type":"two-door-navigation","trial_index":46,"time_elapsed":1288831,"internal_node_id":"0.0-2.0-44.0"},{"group":"hexagon_tri","room_assignment":["green","grey","purple","red","yellow","blue"],"door_color_assignment":["black","white"],"door_generator_assignment":[0,1],"goal":2,"start":0,"action_noise":0.15,"location_history":"[0,1,3,2]","action_history":"[1,0,0]","door_history":"[1,0,0]","location_rts":"[1251,1110,749]","trial_type":"two-door-navigation","trial_index":47,"time_elapsed":1298510,"internal_node_id":"0.0-2.0-45.0"},{"group":"hexagon_tri","room_assignment":["green","grey","purple","red","yellow","blue"],"door_color_assignment":["black","white"],"door_generator_assignment":[0,1],"goal":4,"start":2,"action_noise":0.15,"location_history":"[2,1,5,0,1,3,4]","action_history":"[1,1,1,1,1,1]","door_history":"[1,1,1,1,1,1]","location_rts":"[1364,1622,693,940,1290,966]","trial_type":"two-door-navigation","trial_index":48,"time_elapsed":1315038,"internal_node_id":"0.0-2.0-46.0"},{"group":"hexagon_tri","room_assignment":["green","grey","purple","red","yellow","blue"],"door_color_assignment":["black","white"],"door_generator_assignment":[0,1],"goal":1,"start":4,"action_noise":0.15,"location_history":"[4,2,3,4,0,5,4,0,1]","action_history":"[1,1,1,0,0,0,0,0]","door_history":"[1,1,1,0,0,0,0,0]","location_rts":"[1604,860,2022,1267,1459,591,636,566]","trial_type":"two-door-navigation","trial_index":49,"time_elapsed":1335720,"internal_node_id":"0.0-2.0-47.0"},{"group":"hexagon_tri","room_assignment":["green","grey","purple","red","yellow","blue"],"door_color_assignment":["black","white"],"door_generator_assignment":[0,1],"goal":5,"start":1,"action_noise":0.15,"location_history":"[1,3,2,1,3,2,3,4,2,1,3,2,1,5]","action_history":"[0,0,0,0,1,1,1,1,1,0,0,0,1]","door_history":"[0,0,0,0,1,1,1,1,1,0,0,0,1]","location_rts":"[2555,534,597,624,464,567,575,579,711,1149,582,656,450]","trial_type":"two-door-navigation","trial_index":50,"time_elapsed":1363346,"internal_node_id":"0.0-2.0-48.0"},{"group":"hexagon_tri","room_assignment":["green","grey","purple","red","yellow","blue"],"door_color_assignment":["black","white"],"door_generator_assignment":[0,1],"goal":3,"start":5,"action_noise":0.15,"location_history":"[5,0,1,5,4,0,5,4,2,3]","action_history":"[1,1,1,0,0,0,0,1,1]","door_history":"[1,1,1,0,0,0,0,1,1]","location_rts":"[1080,984,647,531,668,534,701,603,638]","trial_type":"two-door-navigation","trial_index":51,"time_elapsed":1382445,"internal_node_id":"0.0-2.0-49.0"},{"view_history":"[{\"page_index\":0,\"viewing_time\":4401}]","rt":4401,"trial_type":"instructions","trial_index":52,"time_elapsed":1387846,"internal_node_id":"0.0-3.0"},{"view_history":"[{\"page_index\":0,\"viewing_time\":1360},{\"page_index\":1,\"viewing_time\":7991}]","rt":9351,"trial_type":"instructions","trial_index":53,"time_elapsed":1398198,"internal_node_id":"0.0-4.0"},{"group":"hexagon_bi","fractal_assignment":["../images/blu_wht.png","../images/cyn_red.png","../images/gry_blk.png","../images/org_blu.png","../images/ylw_slt.png","../images/pnk_blu.png"],"mutagen_generator_assignment":[1,0],"goal":3,"start":5,"action_noise":0.15,"location_history":"[5,4,5,0,1,2,3]","action_history":"[1,1,1,1,1,1]","mutagen_history":"[0,0,0,0,0,0]","location_rts":"[4814,1123,743,402,1166,39]","trial_type":"fractal-mutation","trial_index":54,"time_elapsed":1416211,"internal_node_id":"0.0-5.0-0.0"},{"group":"hexagon_bi","fractal_assignment":["../images/blu_wht.png","../images/cyn_red.png","../images/gry_blk.png","../images/org_blu.png","../images/ylw_slt.png","../images/pnk_blu.png"],"mutagen_generator_assignment":[1,0],"goal":1,"start":3,"action_noise":0.15,"location_history":"[3,2,3,4,5,4,5,4,5,4,3,2,1]","action_history":"[1,1,1,1,1,1,1,1,1,1,1,0]","mutagen_history":"[0,0,0,0,0,0,0,0,0,0,0,1]","location_rts":"[613,492,420,425,604,609,611,1012,553,463,398,489]","trial_type":"fractal-mutation","trial_index":55,"time_elapsed":1438870,"internal_node_id":"0.0-5.0-1.0"},{"group":"hexagon_bi","fractal_assignment":["../images/blu_wht.png","../images/cyn_red.png","../images/gry_blk.png","../images/org_blu.png","../images/ylw_slt.png","../images/pnk_blu.png"],"mutagen_generator_assignment":[1,0],"goal":0,"start":1,"action_noise":0.15,"location_history":"[1,0]","action_history":"[0]","mutagen_history":"[1]","location_rts":"[888]","trial_type":"fractal-mutation","trial_index":56,"time_elapsed":1444306,"internal_node_id":"0.0-5.0-2.0"},{"group":"hexagon_bi","fractal_assignment":["../images/blu_wht.png","../images/cyn_red.png","../images/gry_blk.png","../images/org_blu.png","../images/ylw_slt.png","../images/pnk_blu.png"],"mutagen_generator_assignment":[1,0],"goal":3,"start":0,"action_noise":0.15,"location_history":"[0,5,4,5,4,5,4,5,4,5,4,5,4,3]","action_history":"[0,1,1,1,1,1,1,1,1,1,1,0,0]","mutagen_history":"[1,0,0,0,0,0,0,0,0,0,0,1,1]","location_rts":"[6676,448,412,1170,530,3389,1271,2397,1165,626,585,730,1209]","trial_type":"fractal-mutation","trial_index":57,"time_elapsed":1481888,"internal_node_id":"0.0-5.0-3.0"},{"group":"hexagon_bi","fractal_assignment":["../images/blu_wht.png","../images/cyn_red.png","../images/gry_blk.png","../images/org_blu.png","../images/ylw_slt.png","../images/pnk_blu.png"],"mutagen_generator_assignment":[1,0],"goal":4,"start":3,"action_noise":0.15,"location_history":"[3,2,1,2,1,0,1,0,1,0,1,0,1,2,1,2,1,2,3,4]","action_history":"[0,0,0,0,0,0,1,1,1,1,1,1,1,0,0,0,0,1,0]","mutagen_history":"[1,1,1,1,1,1,0,0,0,0,0,0,0,1,1,1,1,0,1]","location_rts":"[795,3268,1443,2503,1823,579,525,1250,799,841,1596,1223,512,467,1680,2815,1157,482,5426]","trial_type":"fractal-mutation","trial_index":58,"time_elapsed":1534275,"internal_node_id":"0.0-5.0-4.0"},{"group":"hexagon_bi","fractal_assignment":["../images/blu_wht.png","../images/cyn_red.png","../images/gry_blk.png","../images/org_blu.png","../images/ylw_slt.png","../images/pnk_blu.png"],"mutagen_generator_assignment":[1,0],"goal":2,"start":4,"action_noise":0.15,"location_history":"[4,3,2]","action_history":"[0,0]","mutagen_history":"[1,1]","location_rts":"[1334,975]","trial_type":"fractal-mutation","trial_index":59,"time_elapsed":1542180,"internal_node_id":"0.0-5.0-5.0"},{"group":"hexagon_bi","fractal_assignment":["../images/blu_wht.png","../images/cyn_red.png","../images/gry_blk.png","../images/org_blu.png","../images/ylw_slt.png","../images/pnk_blu.png"],"mutagen_generator_assignment":[1,0],"goal":1,"start":2,"action_noise":0.15,"location_history":"[2,3,2,3,2,1]","action_history":"[1,1,1,1,1]","mutagen_history":"[0,0,0,0,0]","location_rts":"[1530,1104,748,442,705]","trial_type":"fractal-mutation","trial_index":60,"time_elapsed":1555372,"internal_node_id":"0.0-5.0-6.0"},{"group":"hexagon_bi","fractal_assignment":["../images/blu_wht.png","../images/cyn_red.png","../images/gry_blk.png","../images/org_blu.png","../images/ylw_slt.png","../images/pnk_blu.png"],"mutagen_generator_assignment":[1,0],"goal":5,"start":1,"action_noise":0.15,"location_history":"[1,2,3,4,3,4,3,4,5]","action_history":"[1,1,1,0,0,0,0,0]","mutagen_history":"[0,0,0,1,1,1,1,1]","location_rts":"[123,402,965,404,490,466,460,461]","trial_type":"fractal-mutation","trial_index":61,"time_elapsed":1570987,"internal_node_id":"0.0-5.0-7.0"},{"group":"hexagon_bi","fractal_assignment":["../images/blu_wht.png","../images/cyn_red.png","../images/gry_blk.png","../images/org_blu.png","../images/ylw_slt.png","../images/pnk_blu.png"],"mutagen_generator_assignment":[1,0],"goal":4,"start":5,"action_noise":0.15,"location_history":"[5,4]","action_history":"[1]","mutagen_history":"[0]","location_rts":"[538]","trial_type":"fractal-mutation","trial_index":62,"time_elapsed":1576068,"internal_node_id":"0.0-5.0-8.0"},{"group":"hexagon_bi","fractal_assignment":["../images/blu_wht.png","../images/cyn_red.png","../images/gry_blk.png","../images/org_blu.png","../images/ylw_slt.png","../images/pnk_blu.png"],"mutagen_generator_assignment":[1,0],"goal":2,"start":4,"action_noise":0.15,"location_history":"[4,3,4,5,0,5,0,5,0,5,4,3,4,3,4,3,2]","action_history":"[0,0,0,0,0,0,0,0,0,0,0,0,0,0,0,0]","mutagen_history":"[1,1,1,1,1,1,1,1,1,1,1,1,1,1,1,1]","location_rts":"[1731,457,603,718,2741,497,938,518,1176,720,908,666,399,586,557,400]","trial_type":"fractal-mutation","trial_index":63,"time_elapsed":1609864,"internal_node_id":"0.0-5.0-9.0"},{"group":"hexagon_bi","fractal_assignment":["../images/blu_wht.png","../images/cyn_red.png","../images/gry_blk.png","../images/org_blu.png","../images/ylw_slt.png","../images/pnk_blu.png"],"mutagen_generator_assignment":[1,0],"goal":0,"start":2,"action_noise":0.15,"location_history":"[2,3,2,3,4,3,4,3,4,3,2,3,2,3,2,3,2,3,4,3,4,3,4,3,2,1,2,1,2,1,2,3,4,5,0]","action_history":"[1,1,1,0,0,0,0,0,0,1,1,1,1,1,1,1,1,1,0,0,0,0,0,0,0,0,0,0,0,0,0,0,1,1]","mutagen_history":"[0,0,0,1,1,1,1,1,1,0,0,0,0,0,0,0,0,0,1,1,1,1,1,1,1,1,1,1,1,1,1,1,0,0]","location_rts":"[496,448,340,188,488,2306,421,1007,663,381,883,456,620,1361,1461,345,864,2809,3742,548,455,550,776,657,2798,1069,511,482,456,1251,647,1181,581,2835]","trial_type":"fractal-mutation","trial_index":64,"time_elapsed":1682764,"internal_node_id":"0.0-5.0-10.0"},{"group":"hexagon_bi","fractal_assignment":["../images/blu_wht.png","../images/cyn_red.png","../images/gry_blk.png","../images/org_blu.png","../images/ylw_slt.png","../images/pnk_blu.png"],"mutagen_generator_assignment":[1,0],"goal":1,"start":0,"action_noise":0.15,"location_history":"[0,1]","action_history":"[1]","mutagen_history":"[0]","location_rts":"[1474]","trial_type":"fractal-mutation","trial_index":65,"time_elapsed":1688768,"internal_node_id":"0.0-5.0-11.0"},{"group":"hexagon_bi","fractal_assignment":["../images/blu_wht.png","../images/cyn_red.png","../images/gry_blk.png","../images/org_blu.png","../images/ylw_slt.png","../images/pnk_blu.png"],"mutagen_generator_assignment":[1,0],"goal":3,"start":1,"action_noise":0.15,"location_history":"[1,2,1,2,1,2,1,2,1,0,5,0,5,4,5,4,5,4,3]","action_history":"[0,0,0,0,0,0,0,0,0,0,0,0,1,1,1,1,1,1]","mutagen_history":"[1,1,1,1,1,1,1,1,1,1,1,1,0,0,0,0,0,0]","location_rts":"[3950,442,483,584,518,2524,1700,749,962,633,137,471,654,1542,617,63,663,319]","trial_type":"fractal-mutation","trial_index":66,"time_elapsed":1727941,"internal_node_id":"0.0-5.0-12.0"},{"group":"hexagon_bi","fractal_assignment":["../images/blu_wht.png","../images/cyn_red.png","../images/gry_blk.png","../images/org_blu.png","../images/ylw_slt.png","../images/pnk_blu.png"],"mutagen_generator_assignment":[1,0],"goal":5,"start":3,"action_noise":0.15,"location_history":"[3,2,3,4,3,2,3,2,3,2,3,2,3,2,3,2,3,2,1,2,3,4,3,4,3,4,3,4,5]","action_history":"[1,1,1,1,1,1,1,1,1,1,1,1,1,1,1,1,1,0,0,0,0,0,0,0,0,0,0,0]","mutagen_history":"[0,0,0,0,0,0,0,0,0,0,0,0,0,0,0,0,0,1,1,1,1,1,1,1,1,1,1,1]","location_rts":"[1385,484,3734,542,1551,1077,2010,623,317,888,1284,743,472,1781,550,1158,1412,474,687,592,727,673,2761,999,1413,1633,470,403]","trial_type":"fractal-mutation","trial_index":67,"time_elapsed":1791271,"internal_node_id":"0.0-5.0-13.0"},{"group":"hexagon_bi","fractal_assignment":["../images/blu_wht.png","../images/cyn_red.png","../images/gry_blk.png","../images/org_blu.png","../images/ylw_slt.png","../images/pnk_blu.png"],"mutagen_generator_assignment":[1,0],"goal":4,"start":5,"action_noise":0.15,"location_history":"[5,0,5,0,1,2,1,2,1,2,1,0,1,0,1,0,1,2,3,4]","action_history":"[0,0,0,0,0,0,0,0,0,1,1,1,1,1,1,1,1,1,1]","mutagen_history":"[1,1,1,1,1,1,1,1,1,0,0,0,0,0,0,0,0,0,0]","location_rts":"[1793,610,1634,1902,536,634,227,679,602,481,116,1299,745,437,1506,300,452,412,498]","trial_type":"fractal-mutation","trial_index":68,"time_elapsed":1829336,"internal_node_id":"0.0-5.0-14.0"},{"group":"hexagon_bi","fractal_assignment":["../images/blu_wht.png","../images/cyn_red.png","../images/gry_blk.png","../images/org_blu.png","../images/ylw_slt.png","../images/pnk_blu.png"],"mutagen_generator_assignment":[1,0],"goal":0,"start":4,"action_noise":0.15,"location_history":"[4,3,2,3,2,1,0]","action_history":"[0,1,1,0,0,1]","mutagen_history":"[1,0,0,1,1,0]","location_rts":"[1376,449,365,425,353,534]","trial_type":"fractal-mutation","trial_index":69,"time_elapsed":1842567,"internal_node_id":"0.0-5.0-15.0"},{"group":"hexagon_bi","fractal_assignment":["../images/blu_wht.png","../images/cyn_red.png","../images/gry_blk.png","../images/org_blu.png","../images/ylw_slt.png","../images/pnk_blu.png"],"mutagen_generator_assignment":[1,0],"goal":3,"start":0,"action_noise":0.15,"location_history":"[0,1,0,1,0,5,0,1,0,5,4,3]","action_history":"[1,1,1,1,1,1,1,1,1,1,0]","mutagen_history":"[0,0,0,0,0,0,0,0,0,0,1]","location_rts":"[1390,466,469,450,702,528,517,605,545,604,395]","trial_type":"fractal-mutation","trial_index":70,"time_elapsed":1864099,"internal_node_id":"0.0-5.0-16.0"},{"group":"hexagon_bi","fractal_assignment":["../images/blu_wht.png","../images/cyn_red.png","../images/gry_blk.png","../images/org_blu.png","../images/ylw_slt.png","../images/pnk_blu.png"],"mutagen_generator_assignment":[1,0],"goal":1,"start":3,"action_noise":0.15,"location_history":"[3,2,3,2,1]","action_history":"[1,1,1,1]","mutagen_history":"[0,0,0,0]","location_rts":"[1415,584,411,565]","trial_type":"fractal-mutation","trial_index":71,"time_elapsed":1874718,"internal_node_id":"0.0-5.0-17.0"},{"group":"hexagon_bi","fractal_assignment":["../images/blu_wht.png","../images/cyn_red.png","../images/gry_blk.png","../images/org_blu.png","../images/ylw_slt.png","../images/pnk_blu.png"],"mutagen_generator_assignment":[1,0],"goal":5,"start":1,"action_noise":0.15,"location_history":"[1,0,1,2,1,0,5]","action_history":"[0,0,0,1,1,0]","mutagen_history":"[1,1,1,0,0,1]","location_rts":"[994,1246,670,349,291,478]","trial_type":"fractal-mutation","trial_index":72,"time_elapsed":1888466,"internal_node_id":"0.0-5.0-18.0"},{"group":"hexagon_bi","fractal_assignment":["../images/blu_wht.png","../images/cyn_red.png","../images/gry_blk.png","../images/org_blu.png","../images/ylw_slt.png","../images/pnk_blu.png"],"mutagen_generator_assignment":[1,0],"goal":2,"start":5,"action_noise":0.15,"location_history":"[5,4,3,2]","action_history":"[1,1,1]","mutagen_history":"[0,0,0]","location_rts":"[1529,490,446]","trial_type":"fractal-mutation","trial_index":73,"time_elapsed":1897542,"internal_node_id":"0.0-5.0-19.0"},{"group":"hexagon_bi","fractal_assignment":["../images/blu_wht.png","../images/cyn_red.png","../images/gry_blk.png","../images/org_blu.png","../images/ylw_slt.png","../images/pnk_blu.png"],"mutagen_generator_assignment":[1,0],"goal":4,"start":2,"action_noise":0.15,"location_history":"[2,3,4]","action_history":"[0,0]","mutagen_history":"[1,1]","location_rts":"[1119,371]","trial_type":"fractal-mutation","trial_index":74,"time_elapsed":1904617,"internal_node_id":"0.0-5.0-20.0"},{"group":"hexagon_bi","fractal_assignment":["../images/blu_wht.png","../images/cyn_red.png","../images/gry_blk.png","../images/org_blu.png","../images/ylw_slt.png","../images/pnk_blu.png"],"mutagen_generator_assignment":[1,0],"goal":1,"start":4,"action_noise":0.15,"location_history":"[4,5,4,5,0,5,4,5,4,5,4,5,4,3,4,5,0,1]","action_history":"[1,1,1,0,1,1,1,1,1,1,1,0,1,1,1,0,1]","mutagen_history":"[0,0,0,1,0,0,0,0,0,0,0,1,0,0,0,1,0]","location_rts":"[1010,632,475,581,335,409,705,487,402,503,323,359,402,378,546,390,385]","trial_type":"fractal-mutation","trial_index":75,"time_elapsed":1934058,"internal_node_id":"0.0-5.0-21.0"},{"group":"hexagon_bi","fractal_assignment":["../images/blu_wht.png","../images/cyn_red.png","../images/gry_blk.png","../images/org_blu.png","../images/ylw_slt.png","../images/pnk_blu.png"],"mutagen_generator_assignment":[1,0],"goal":3,"start":1,"action_noise":0.15,"location_history":"[1,0,1,2,1,2,3]","action_history":"[1,1,1,0,0,1]","mutagen_history":"[0,0,0,1,1,0]","location_rts":"[1552,554,1134,276,1109,435]","trial_type":"fractal-mutation","trial_index":76,"time_elapsed":1948841,"internal_node_id":"0.0-5.0-22.0"},{"group":"hexagon_bi","fractal_assignment":["../images/blu_wht.png","../images/cyn_red.png","../images/gry_blk.png","../images/org_blu.png","../images/ylw_slt.png","../images/pnk_blu.png"],"mutagen_generator_assignment":[1,0],"goal":2,"start":3,"action_noise":0.15,"location_history":"[3,2]","action_history":"[0]","mutagen_history":"[1]","location_rts":"[1530]","trial_type":"fractal-mutation","trial_index":77,"time_elapsed":1954916,"internal_node_id":"0.0-5.0-23.0"},{"group":"hexagon_bi","fractal_assignment":["../images/blu_wht.png","../images/cyn_red.png","../images/gry_blk.png","../images/org_blu.png","../images/ylw_slt.png","../images/pnk_blu.png"],"mutagen_generator_assignment":[1,0],"goal":0,"start":2,"action_noise":0.15,"location_history":"[2,1,0]","action_history":"[1,1]","mutagen_history":"[0,0]","location_rts":"[24926,74]","trial_type":"fractal-mutation","trial_index":78,"time_elapsed":1985475,"internal_node_id":"0.0-5.0-24.0"},{"group":"hexagon_bi","fractal_assignment":["../images/blu_wht.png","../images/cyn_red.png","../images/gry_blk.png","../images/org_blu.png","../images/ylw_slt.png","../images/pnk_blu.png"],"mutagen_generator_assignment":[1,0],"goal":5,"start":0,"action_noise":0.15,"location_history":"[0,5]","action_history":"[0]","mutagen_history":"[1]","location_rts":"[735]","trial_type":"fractal-mutation","trial_index":79,"time_elapsed":1990749,"internal_node_id":"0.0-5.0-25.0"},{"group":"hexagon_bi","fractal_assignment":["../images/blu_wht.png","../images/cyn_red.png","../images/gry_blk.png","../images/org_blu.png","../images/ylw_slt.png","../images/pnk_blu.png"],"mutagen_generator_assignment":[1,0],"goal":2,"start":5,"action_noise":0.15,"location_history":"[5,4,5,0,1,0,1,0,1,2]","action_history":"[1,1,0,1,1,0,1,1,0]","mutagen_history":"[0,0,1,0,0,1,0,0,1]","location_rts":"[389,961,433,446,563,782,477,507,798]","trial_type":"fractal-mutation","trial_index":80,"time_elapsed":2008923,"internal_node_id":"0.0-5.0-26.0"},{"group":"hexagon_bi","fractal_assignment":["../images/blu_wht.png","../images/cyn_red.png","../images/gry_blk.png","../images/org_blu.png","../images/ylw_slt.png","../images/pnk_blu.png"],"mutagen_generator_assignment":[1,0],"goal":3,"start":2,"action_noise":0.15,"location_history":"[2,3]","action_history":"[1]","mutagen_history":"[0]","location_rts":"[2832]","trial_type":"fractal-mutation","trial_index":81,"time_elapsed":2016290,"internal_node_id":"0.0-5.0-27.0"},{"group":"hexagon_bi","fractal_assignment":["../images/blu_wht.png","../images/cyn_red.png","../images/gry_blk.png","../images/org_blu.png","../images/ylw_slt.png","../images/pnk_blu.png"],"mutagen_generator_assignment":[1,0],"goal":0,"start":3,"action_noise":0.15,"location_history":"[3,4,5,4,5,4,3,2,3,4,5,4,3,4,3,4,5,0]","action_history":"[0,0,1,1,0,0,0,1,0,1,1,0,0,0,0,1,0]","mutagen_history":"[1,1,0,0,1,1,1,0,1,0,0,1,1,1,1,0,1]","location_rts":"[945,577,1260,446,482,545,940,1210,533,832,874,574,620,603,338,567,319]","trial_type":"fractal-mutation","trial_index":82,"time_elapsed":2049058,"internal_node_id":"0.0-5.0-28.0"},{"group":"hexagon_bi","fractal_assignment":["../images/blu_wht.png","../images/cyn_red.png","../images/gry_blk.png","../images/org_blu.png","../images/ylw_slt.png","../images/pnk_blu.png"],"mutagen_generator_assignment":[1,0],"goal":1,"start":0,"action_noise":0.15,"location_history":"[0,1]","action_history":"[1]","mutagen_history":"[0]","location_rts":"[14304]","trial_type":"fractal-mutation","trial_index":83,"time_elapsed":2067895,"internal_node_id":"0.0-5.0-29.0"},{"group":"hexagon_bi","fractal_assignment":["../images/blu_wht.png","../images/cyn_red.png","../images/gry_blk.png","../images/org_blu.png","../images/ylw_slt.png","../images/pnk_blu.png"],"mutagen_generator_assignment":[1,0],"goal":4,"start":1,"action_noise":0.15,"location_history":"[1,2,1,2,1,2,3,2,1,0,1,0,1,2,1,2,1,0,5,4]","action_history":"[0,0,0,0,0,1,1,0,0,1,1,1,0,0,0,0,1,1,1]","mutagen_history":"[1,1,1,1,1,0,0,1,1,0,0,0,1,1,1,1,0,0,0]","location_rts":"[1170,616,560,238,621,449,703,805,742,1111,554,384,391,423,778,836,500,1004,822]","trial_type":"fractal-mutation","trial_index":84,"time_elapsed":2103794,"internal_node_id":"0.0-5.0-30.0"},{"group":"hexagon_bi","fractal_assignment":["../images/blu_wht.png","../images/cyn_red.png","../images/gry_blk.png","../images/org_blu.png","../images/ylw_slt.png","../images/pnk_blu.png"],"mutagen_generator_assignment":[1,0],"goal":5,"start":4,"action_noise":0.15,"location_history":"[4,3,4,3,4,5]","action_history":"[0,0,0,1,1]","mutagen_history":"[1,1,1,0,0]","location_rts":"[1190,599,694,1241,774]","trial_type":"fractal-mutation","trial_index":85,"time_elapsed":2116984,"internal_node_id":"0.0-5.0-31.0"},{"group":"hexagon_bi","fractal_assignment":["../images/blu_wht.png","../images/cyn_red.png","../images/gry_blk.png","../images/org_blu.png","../images/ylw_slt.png","../images/pnk_blu.png"],"mutagen_generator_assignment":[1,0],"goal":0,"start":5,"action_noise":0.15,"location_history":"[5,4,3,4,5,4,5,0]","action_history":"[1,0,0,1,1,1,0]","mutagen_history":"[0,1,1,0,0,0,1]","location_rts":"[1180,699,1082,1227,893,691,789]","trial_type":"fractal-mutation","trial_index":86,"time_elapsed":2134283,"internal_node_id":"0.0-5.0-32.0"},{"group":"hexagon_bi","fractal_assignment":["../images/blu_wht.png","../images/cyn_red.png","../images/gry_blk.png","../images/org_blu.png","../images/ylw_slt.png","../images/pnk_blu.png"],"mutagen_generator_assignment":[1,0],"goal":3,"start":0,"action_noise":0.15,"location_history":"[0,1,2,3]","action_history":"[0,0,1]","mutagen_history":"[1,1,0]","location_rts":"[1510,778,553]","trial_type":"fractal-mutation","trial_index":87,"time_elapsed":2143740,"internal_node_id":"0.0-5.0-33.0"},{"group":"hexagon_bi","fractal_assignment":["../images/blu_wht.png","../images/cyn_red.png","../images/gry_blk.png","../images/org_blu.png","../images/ylw_slt.png","../images/pnk_blu.png"],"mutagen_generator_assignment":[1,0],"goal":1,"start":3,"action_noise":0.15,"location_history":"[3,4,3,4,3,2,1]","action_history":"[0,0,0,0,1,0]","mutagen_history":"[1,1,1,1,0,1]","location_rts":"[1978,517,1313,820,509,321]","trial_type":"fractal-mutation","trial_index":88,"time_elapsed":2158932,"internal_node_id":"0.0-5.0-34.0"},{"group":"hexagon_bi","fractal_assignment":["../images/blu_wht.png","../images/cyn_red.png","../images/gry_blk.png","../images/org_blu.png","../images/ylw_slt.png","../images/pnk_blu.png"],"mutagen_generator_assignment":[1,0],"goal":2,"start":1,"action_noise":0.15,"location_history":"[1,0,5,4,5,4,3,4,5,4,5,4,5,4,5,0,1,2]","action_history":"[0,0,0,1,1,0,0,1,1,1,1,1,1,1,0,0,0]","mutagen_history":"[1,1,1,0,0,1,1,0,0,0,0,0,0,0,1,1,1]","location_rts":"[1117,1847,2331,1404,1010,701,433,705,354,618,549,418,397,469,475,704,1607]","trial_type":"fractal-mutation","trial_index":89,"time_elapsed":2195179,"internal_node_id":"0.0-5.0-35.0"},{"group":"hexagon_bi","fractal_assignment":["../images/blu_wht.png","../images/cyn_red.png","../images/gry_blk.png","../images/org_blu.png","../images/ylw_slt.png","../images/pnk_blu.png"],"mutagen_generator_assignment":[1,0],"goal":4,"start":2,"action_noise":0.15,"location_history":"[2,1,2,1,2,1,0,5,4]","action_history":"[0,0,0,0,0,1,1,1]","mutagen_history":"[1,1,1,1,1,0,0,0]","location_rts":"[7932,759,1123,585,650,603,483,172]","trial_type":"fractal-mutation","trial_index":90,"time_elapsed":2219272,"internal_node_id":"0.0-5.0-36.0"},{"group":"hexagon_bi","fractal_assignment":["../images/blu_wht.png","../images/cyn_red.png","../images/gry_blk.png","../images/org_blu.png","../images/ylw_slt.png","../images/pnk_blu.png"],"mutagen_generator_assignment":[1,0],"goal":5,"start":4,"action_noise":0.15,"location_history":"[4,3,4,5]","action_history":"[0,0,0]","mutagen_history":"[1,1,1]","location_rts":"[866,499,524]","trial_type":"fractal-mutation","trial_index":91,"time_elapsed":2227780,"internal_node_id":"0.0-5.0-37.0"},{"group":"hexagon_bi","fractal_assignment":["../images/blu_wht.png","../images/cyn_red.png","../images/gry_blk.png","../images/org_blu.png","../images/ylw_slt.png","../images/pnk_blu.png"],"mutagen_generator_assignment":[1,0],"goal":1,"start":5,"action_noise":0.15,"location_history":"[5,4,5,4,5,4,3,4,5,0,1]","action_history":"[1,1,1,1,1,0,0,0,0,1]","mutagen_history":"[0,0,0,0,0,1,1,1,1,0]","location_rts":"[881,374,541,415,716,322,581,448,515,363]","trial_type":"fractal-mutation","trial_index":92,"time_elapsed":2246778,"internal_node_id":"0.0-5.0-38.0"},{"group":"hexagon_bi","fractal_assignment":["../images/blu_wht.png","../images/cyn_red.png","../images/gry_blk.png","../images/org_blu.png","../images/ylw_slt.png","../images/pnk_blu.png"],"mutagen_generator_assignment":[1,0],"goal":4,"start":1,"action_noise":0.15,"location_history":"[1,2,3,4]","action_history":"[0,1,1]","mutagen_history":"[1,0,0]","location_rts":"[1268,2175,367]","trial_type":"fractal-mutation","trial_index":93,"time_elapsed":2257192,"internal_node_id":"0.0-5.0-39.0"},{"group":"hexagon_bi","fractal_assignment":["../images/blu_wht.png","../images/cyn_red.png","../images/gry_blk.png","../images/org_blu.png","../images/ylw_slt.png","../images/pnk_blu.png"],"mutagen_generator_assignment":[1,0],"goal":3,"start":4,"action_noise":0.15,"location_history":"[4,5,4,3]","action_history":"[1,1,0]","mutagen_history":"[0,0,1]","location_rts":"[9037,676,505]","trial_type":"fractal-mutation","trial_index":94,"time_elapsed":2274011,"internal_node_id":"0.0-5.0-40.0"},{"group":"hexagon_bi","fractal_assignment":["../images/blu_wht.png","../images/cyn_red.png","../images/gry_blk.png","../images/org_blu.png","../images/ylw_slt.png","../images/pnk_blu.png"],"mutagen_generator_assignment":[1,0],"goal":2,"start":3,"action_noise":0.15,"location_history":"[3,4,5,0,1,2]","action_history":"[0,0,0,0,0]","mutagen_history":"[1,1,1,1,1]","location_rts":"[734,472,928,421,608]","trial_type":"fractal-mutation","trial_index":95,"time_elapsed":2285878,"internal_node_id":"0.0-5.0-41.0"},{"group":"hexagon_bi","fractal_assignment":["../images/blu_wht.png","../images/cyn_red.png","../images/gry_blk.png","../images/org_blu.png","../images/ylw_slt.png","../images/pnk_blu.png"],"mutagen_generator_assignment":[1,0],"goal":0,"start":2,"action_noise":0.15,"location_history":"[2,1,2,1,0]","action_history":"[0,0,0,1]","mutagen_history":"[1,1,1,0]","location_rts":"[1127,399,1395,351]","trial_type":"fractal-mutation","trial_index":96,"time_elapsed":2296800,"internal_node_id":"0.0-5.0-42.0"},{"group":"hexagon_bi","fractal_assignment":["../images/blu_wht.png","../images/cyn_red.png","../images/gry_blk.png","../images/org_blu.png","../images/ylw_slt.png","../images/pnk_blu.png"],"mutagen_generator_assignment":[1,0],"goal":5,"start":0,"action_noise":0.15,"location_history":"[0,5]","action_history":"[0]","mutagen_history":"[1]","location_rts":"[923]","trial_type":"fractal-mutation","trial_index":97,"time_elapsed":2302267,"internal_node_id":"0.0-5.0-43.0"},{"group":"hexagon_bi","fractal_assignment":["../images/blu_wht.png","../images/cyn_red.png","../images/gry_blk.png","../images/org_blu.png","../images/ylw_slt.png","../images/pnk_blu.png"],"mutagen_generator_assignment":[1,0],"goal":0,"start":5,"action_noise":0.15,"location_history":"[5,0]","action_history":"[0]","mutagen_history":"[1]","location_rts":"[1158]","trial_type":"fractal-mutation","trial_index":98,"time_elapsed":2307968,"internal_node_id":"0.0-5.0-44.0"},{"group":"hexagon_bi","fractal_assignment":["../images/blu_wht.png","../images/cyn_red.png","../images/gry_blk.png","../images/org_blu.png","../images/ylw_slt.png","../images/pnk_blu.png"],"mutagen_generator_assignment":[1,0],"goal":2,"start":0,"action_noise":0.15,"location_history":"[0,1,0,1,0,1,2]","action_history":"[1,1,1,1,1,0]","mutagen_history":"[0,0,0,0,0,1]","location_rts":"[1418,510,509,627,1796,388]","trial_type":"fractal-mutation","trial_index":99,"time_elapsed":2322928,"internal_node_id":"0.0-5.0-45.0"},{"group":"hexagon_bi","fractal_assignment":["../images/blu_wht.png","../images/cyn_red.png","../images/gry_blk.png","../images/org_blu.png","../images/ylw_slt.png","../images/pnk_blu.png"],"mutagen_generator_assignment":[1,0],"goal":4,"start":2,"action_noise":0.15,"location_history":"[2,3,4]","action_history":"[0,0]","mutagen_history":"[1,1]","location_rts":"[1061,660]","trial_type":"fractal-mutation","trial_index":100,"time_elapsed":2330224,"internal_node_id":"0.0-5.0-46.0"},{"group":"hexagon_bi","fractal_assignment":["../images/blu_wht.png","../images/cyn_red.png","../images/gry_blk.png","../images/org_blu.png","../images/ylw_slt.png","../images/pnk_blu.png"],"mutagen_generator_assignment":[1,0],"goal":1,"start":4,"action_noise":0.15,"location_history":"[4,5,4,3,2,3,4,3,4,3,4,5,4,5,4,5,4,5,0,1]","action_history":"[1,1,1,1,1,0,0,0,0,0,1,1,1,1,1,1,1,0,0]","mutagen_history":"[0,0,0,0,0,1,1,1,1,1,0,0,0,0,0,0,0,1,1]","location_rts":"[1028,385,546,1859,648,532,677,814,1823,705,55,454,434,1027,891,477,505,323,781]","trial_type":"fractal-mutation","trial_index":101,"time_elapsed":2367386,"internal_node_id":"0.0-5.0-47.0"},{"group":"hexagon_bi","fractal_assignment":["../images/blu_wht.png","../images/cyn_red.png","../images/gry_blk.png","../images/org_blu.png","../images/ylw_slt.png","../images/pnk_blu.png"],"mutagen_generator_assignment":[1,0],"goal":5,"start":1,"action_noise":0.15,"location_history":"[1,2,1,2,1,2,1,0,5]","action_history":"[0,0,0,0,0,1,1,0]","mutagen_history":"[1,1,1,1,1,0,0,1]","location_rts":"[17794,332,561,914,1032,2647,1226,682]","trial_type":"fractal-mutation","trial_index":102,"time_elapsed":2404390,"internal_node_id":"0.0-5.0-48.0"},{"group":"hexagon_bi","fractal_assignment":["../images/blu_wht.png","../images/cyn_red.png","../images/gry_blk.png","../images/org_blu.png","../images/ylw_slt.png","../images/pnk_blu.png"],"mutagen_generator_assignment":[1,0],"goal":3,"start":5,"action_noise":0.15,"location_history":"[5,0,5,0,5,4,5,4,5,4,5,0,5,0,5,0,1,0,1,0,5,0,5,0,5,4,5,0,1,2,1,0,1,0,1,2,1,2,3]","action_history":"[1,1,1,0,1,1,1,1,0,1,0,0,0,0,0,1,1,0,1,1,0,0,0,1,1,0,0,1,0,0,1,1,1,1,0,0,0,1]","mutagen_history":"[0,0,0,1,0,0,0,0,1,0,1,1,1,1,1,0,0,1,0,0,1,1,1,0,0,1,1,0,1,1,0,0,0,0,1,1,1,0]","location_rts":"[1222,351,571,1439,2952,2297,1235,1592,1434,2127,467,486,1378,441,1625,848,898,3726,1892,873,745,545,548,453,551,693,626,3078,1120,676,1174,518,1656,398,656,840,771,908]","trial_type":"fractal-mutation","trial_index":103,"time_elapsed":2491011,"internal_node_id":"0.0-5.0-49.0"},{"view_history":"[{\"page_index\":0,\"viewing_time\":3686}]","rt":3686,"trial_type":"instructions","trial_index":104,"time_elapsed":2495697,"internal_node_id":"0.0-6.0"},{"rt":1781,"responses":"{\"Q0\":\"\"}","trial_type":"survey-text","trial_index":105,"time_elapsed":2498486,"internal_node_id":"0.0-7.0"}]