[{"view_history":"[{\"page_index\":0,\"viewing_time\":1505},{\"page_index\":1,\"viewing_time\":11401}]","rt":12907,"trial_type":"instructions","trial_index":0,"time_elapsed":12908,"internal_node_id":"0.0-0.0"},{"view_history":"[{\"page_index\":0,\"viewing_time\":4187},{\"page_index\":1,\"viewing_time\":11489}]","rt":15676,"trial_type":"instructions","trial_index":1,"time_elapsed":29584,"internal_node_id":"0.0-1.0"},{"group":"hexagon_bi","room_assignment":["red","grey","yellow","purple","green","blue"],"door_color_assignment":["black","white"],"door_generator_assignment":[1,0],"goal":3,"start":5,"action_noise":0.15,"location_history":"[5,0,1,0,1,2,1,2,3]","action_history":"[1,1,0,1,0,0,0,1]","door_history":"[0,0,1,0,1,1,1,0]","location_rts":"[3578,1731,1875,3755,1487,943,2274,1518]","trial_type":"two-door-navigation","trial_index":2,"time_elapsed":58449,"internal_node_id":"0.0-2.0-0.0"},{"group":"hexagon_bi","room_assignment":["red","grey","yellow","purple","green","blue"],"door_color_assignment":["black","white"],"door_generator_assignment":[1,0],"goal":1,"start":3,"action_noise":0.15,"location_history":"[3,2,3,4,3,2,1]","action_history":"[0,1,0,0,1,0]","door_history":"[1,0,1,1,0,1]","location_rts":"[4476,3229,1857,798,1639,1273]","trial_type":"two-door-navigation","trial_index":3,"time_elapsed":81377,"internal_node_id":"0.0-2.0-1.0"},{"group":"hexagon_bi","room_assignment":["red","grey","yellow","purple","green","blue"],"door_color_assignment":["black","white"],"door_generator_assignment":[1,0],"goal":0,"start":1,"action_noise":0.15,"location_history":"[1,0]","action_history":"[1]","door_history":"[0]","location_rts":"[30711]","trial_type":"two-door-navigation","trial_index":4,"time_elapsed":116618,"internal_node_id":"0.0-2.0-2.0"},{"group":"hexagon_bi","room_assignment":["red","grey","yellow","purple","green","blue"],"door_color_assignment":["black","white"],"door_generator_assignment":[1,0],"goal":3,"start":0,"action_noise":0.15,"location_history":"[0,1,0,5,4,5,0,5,0,5,4,3]","action_history":"[1,1,0,0,1,0,0,0,0,1,0]","door_history":"[0,0,1,1,0,1,1,1,1,0,1]","location_rts":"[12803,1649,1159,1900,624,1126,996,1060,1271,714,3205]","trial_type":"two-door-navigation","trial_index":5,"time_elapsed":157912,"internal_node_id":"0.0-2.0-3.0"},{"group":"hexagon_bi","room_assignment":["red","grey","yellow","purple","green","blue"],"door_color_assignment":["black","white"],"door_generator_assignment":[1,0],"goal":4,"start":3,"action_noise":0.15,"location_history":"[3,2,3,4]","action_history":"[1,1,0]","door_history":"[0,0,1]","location_rts":"[19534,1325,1471]","trial_type":"two-door-navigation","trial_index":6,"time_elapsed":186822,"internal_node_id":"0.0-2.0-4.0"},{"group":"hexagon_bi","room_assignment":["red","grey","yellow","purple","green","blue"],"door_color_assignment":["black","white"],"door_generator_assignment":[1,0],"goal":2,"start":4,"action_noise":0.15,"location_history":"[4,5,4,5,0,1,0,1,0,1,0,5,0,5,0,1,2]","action_history":"[1,1,1,0,1,0,1,1,1,0,0,1,0,0,1,0]","door_history":"[0,0,0,1,0,1,0,0,0,1,1,0,1,1,0,1]","location_rts":"[21841,3209,1970,1147,1520,2149,1983,2337,1435,680,1229,941,923,646,2379,1271]","trial_type":"two-door-navigation","trial_index":7,"time_elapsed":252387,"internal_node_id":"0.0-2.0-5.0"},{"group":"hexagon_bi","room_assignment":["red","grey","yellow","purple","green","blue"],"door_color_assignment":["black","white"],"door_generator_assignment":[1,0],"goal":1,"start":2,"action_noise":0.15,"location_history":"[2,1]","action_history":"[0]","door_history":"[1]","location_rts":"[1969]","trial_type":"two-door-navigation","trial_index":8,"time_elapsed":258882,"internal_node_id":"0.0-2.0-6.0"},{"group":"hexagon_bi","room_assignment":["red","grey","yellow","purple","green","blue"],"door_color_assignment":["black","white"],"door_generator_assignment":[1,0],"goal":5,"start":1,"action_noise":0.15,"location_history":"[1,0,5]","action_history":"[1,0]","door_history":"[0,1]","location_rts":"[1668,1727]","trial_type":"two-door-navigation","trial_index":9,"time_elapsed":267828,"internal_node_id":"0.0-2.0-7.0"},{"group":"hexagon_bi","room_assignment":["red","grey","yellow","purple","green","blue"],"door_color_assignment":["black","white"],"door_generator_assignment":[1,0],"goal":4,"start":5,"action_noise":0.15,"location_history":"[5,4]","action_history":"[1]","door_history":"[0]","location_rts":"[1675]","trial_type":"two-door-navigation","trial_index":10,"time_elapsed":274035,"internal_node_id":"0.0-2.0-8.0"},{"group":"hexagon_bi","room_assignment":["red","grey","yellow","purple","green","blue"],"door_color_assignment":["black","white"],"door_generator_assignment":[1,0],"goal":2,"start":4,"action_noise":0.15,"location_history":"[4,5,4,5,4,5,0,1,2]","action_history":"[1,1,0,1,1,0,0,0]","door_history":"[0,0,1,0,0,1,1,1]","location_rts":"[2311,1417,1479,1738,2819,1252,1157,3686]","trial_type":"two-door-navigation","trial_index":11,"time_elapsed":301610,"internal_node_id":"0.0-2.0-9.0"},{"group":"hexagon_bi","room_assignment":["red","grey","yellow","purple","green","blue"],"door_color_assignment":["black","white"],"door_generator_assignment":[1,0],"goal":0,"start":2,"action_noise":0.15,"location_history":"[2,1,0]","action_history":"[1,1]","door_history":"[0,0]","location_rts":"[2153,2584]","trial_type":"two-door-navigation","trial_index":12,"time_elapsed":311905,"internal_node_id":"0.0-2.0-10.0"},{"group":"hexagon_bi","room_assignment":["red","grey","yellow","purple","green","blue"],"door_color_assignment":["black","white"],"door_generator_assignment":[1,0],"goal":1,"start":0,"action_noise":0.15,"location_history":"[0,1]","action_history":"[1]","door_history":"[0]","location_rts":"[4917]","trial_type":"two-door-navigation","trial_index":13,"time_elapsed":321351,"internal_node_id":"0.0-2.0-11.0"},{"group":"hexagon_bi","room_assignment":["red","grey","yellow","purple","green","blue"],"door_color_assignment":["black","white"],"door_generator_assignment":[1,0],"goal":3,"start":1,"action_noise":0.15,"location_history":"[1,0,5,4,3]","action_history":"[1,0,1,0]","door_history":"[0,1,0,1]","location_rts":"[1479,1601,1674,1294]","trial_type":"two-door-navigation","trial_index":14,"time_elapsed":335009,"internal_node_id":"0.0-2.0-12.0"},{"group":"hexagon_bi","room_assignment":["red","grey","yellow","purple","green","blue"],"door_color_assignment":["black","white"],"door_generator_assignment":[1,0],"goal":5,"start":3,"action_noise":0.15,"location_history":"[3,4,5]","action_history":"[1,1]","door_history":"[0,0]","location_rts":"[1448,1765]","trial_type":"two-door-navigation","trial_index":15,"time_elapsed":343776,"internal_node_id":"0.0-2.0-13.0"},{"group":"hexagon_bi","room_assignment":["red","grey","yellow","purple","green","blue"],"door_color_assignment":["black","white"],"door_generator_assignment":[1,0],"goal":4,"start":5,"action_noise":0.15,"location_history":"[5,4]","action_history":"[1]","door_history":"[0]","location_rts":"[3390]","trial_type":"two-door-navigation","trial_index":16,"time_elapsed":351694,"internal_node_id":"0.0-2.0-14.0"},{"group":"hexagon_bi","room_assignment":["red","grey","yellow","purple","green","blue"],"door_color_assignment":["black","white"],"door_generator_assignment":[1,0],"goal":0,"start":4,"action_noise":0.15,"location_history":"[4,5,4,3,2,3,4,3,4,5,0]","action_history":"[1,0,1,1,1,0,0,0,1,0]","door_history":"[0,1,0,0,0,1,1,1,0,1]","location_rts":"[2538,8377,1242,978,1290,1432,1847,1196,865,1134]","trial_type":"two-door-navigation","trial_index":17,"time_elapsed":386350,"internal_node_id":"0.0-2.0-15.0"},{"group":"hexagon_bi","room_assignment":["red","grey","yellow","purple","green","blue"],"door_color_assignment":["black","white"],"door_generator_assignment":[1,0],"goal":3,"start":0,"action_noise":0.15,"location_history":"[0,1,0,1,0,5,4,3]","action_history":"[1,1,1,1,0,1,0]","door_history":"[0,0,0,0,1,0,1]","location_rts":"[1758,1386,1890,1292,743,635,911]","trial_type":"two-door-navigation","trial_index":18,"time_elapsed":405645,"internal_node_id":"0.0-2.0-16.0"},{"group":"hexagon_bi","room_assignment":["red","grey","yellow","purple","green","blue"],"door_color_assignment":["black","white"],"door_generator_assignment":[1,0],"goal":1,"start":3,"action_noise":0.15,"location_history":"[3,2,1]","action_history":"[1,0]","door_history":"[0,1]","location_rts":"[1958,1990]","trial_type":"two-door-navigation","trial_index":19,"time_elapsed":415147,"internal_node_id":"0.0-2.0-17.0"},{"group":"hexagon_bi","room_assignment":["red","grey","yellow","purple","green","blue"],"door_color_assignment":["black","white"],"door_generator_assignment":[1,0],"goal":5,"start":1,"action_noise":0.15,"location_history":"[1,0,5]","action_history":"[1,0]","door_history":"[0,1]","location_rts":"[2084,1312]","trial_type":"two-door-navigation","trial_index":20,"time_elapsed":424090,"internal_node_id":"0.0-2.0-18.0"},{"group":"hexagon_bi","room_assignment":["red","grey","yellow","purple","green","blue"],"door_color_assignment":["black","white"],"door_generator_assignment":[1,0],"goal":2,"start":5,"action_noise":0.15,"location_history":"[5,4,5,4,3,2]","action_history":"[1,0,1,1,1]","door_history":"[0,1,0,0,0]","location_rts":"[1706,2952,1251,1131,1415]","trial_type":"two-door-navigation","trial_index":21,"time_elapsed":441167,"internal_node_id":"0.0-2.0-19.0"},{"group":"hexagon_bi","room_assignment":["red","grey","yellow","purple","green","blue"],"door_color_assignment":["black","white"],"door_generator_assignment":[1,0],"goal":4,"start":2,"action_noise":0.15,"location_history":"[2,3,4]","action_history":"[1,0]","door_history":"[0,1]","location_rts":"[1428,1630]","trial_type":"two-door-navigation","trial_index":22,"time_elapsed":449777,"internal_node_id":"0.0-2.0-20.0"},{"group":"hexagon_bi","room_assignment":["red","grey","yellow","purple","green","blue"],"door_color_assignment":["black","white"],"door_generator_assignment":[1,0],"goal":1,"start":4,"action_noise":0.15,"location_history":"[4,5,4,3,4,5,4,5,0,1]","action_history":"[1,1,1,0,1,1,1,1,0]","door_history":"[0,0,0,1,0,0,0,0,1]","location_rts":"[1719,1770,2128,1480,766,1425,1485,1926,987]","trial_type":"two-door-navigation","trial_index":23,"time_elapsed":476171,"internal_node_id":"0.0-2.0-21.0"},{"group":"hexagon_bi","room_assignment":["red","grey","yellow","purple","green","blue"],"door_color_assignment":["black","white"],"door_generator_assignment":[1,0],"goal":3,"start":1,"action_noise":0.15,"location_history":"[1,2,3]","action_history":"[1,1]","door_history":"[0,0]","location_rts":"[1587,1558]","trial_type":"two-door-navigation","trial_index":24,"time_elapsed":484869,"internal_node_id":"0.0-2.0-22.0"},{"group":"hexagon_bi","room_assignment":["red","grey","yellow","purple","green","blue"],"door_color_assignment":["black","white"],"door_generator_assignment":[1,0],"goal":2,"start":3,"action_noise":0.15,"location_history":"[3,2]","action_history":"[1]","door_history":"[0]","location_rts":"[2788]","trial_type":"two-door-navigation","trial_index":25,"time_elapsed":492182,"internal_node_id":"0.0-2.0-23.0"},{"group":"hexagon_bi","room_assignment":["red","grey","yellow","purple","green","blue"],"door_color_assignment":["black","white"],"door_generator_assignment":[1,0],"goal":0,"start":2,"action_noise":0.15,"location_history":"[2,3,2,1,0]","action_history":"[1,1,1,0]","door_history":"[0,0,0,1]","location_rts":"[1405,1555,2201,1812]","trial_type":"two-door-navigation","trial_index":26,"time_elapsed":506763,"internal_node_id":"0.0-2.0-24.0"},{"group":"hexagon_bi","room_assignment":["red","grey","yellow","purple","green","blue"],"door_color_assignment":["black","white"],"door_generator_assignment":[1,0],"goal":5,"start":0,"action_noise":0.15,"location_history":"[0,1,2,1,0,5]","action_history":"[1,0,0,1,0]","door_history":"[0,1,1,0,1]","location_rts":"[1713,1421,3194,1150,2834]","trial_type":"two-door-navigation","trial_index":27,"time_elapsed":525705,"internal_node_id":"0.0-2.0-25.0"},{"group":"hexagon_bi","room_assignment":["red","grey","yellow","purple","green","blue"],"door_color_assignment":["black","white"],"door_generator_assignment":[1,0],"goal":2,"start":5,"action_noise":0.15,"location_history":"[5,4,3,2]","action_history":"[1,0,1]","door_history":"[0,1,0]","location_rts":"[2498,1346,1071]","trial_type":"two-door-navigation","trial_index":28,"time_elapsed":537198,"internal_node_id":"0.0-2.0-26.0"},{"group":"hexagon_bi","room_assignment":["red","grey","yellow","purple","green","blue"],"door_color_assignment":["black","white"],"door_generator_assignment":[1,0],"goal":3,"start":2,"action_noise":0.15,"location_history":"[2,1,0,1,2,1,0,1,0,5,4,3]","action_history":"[0,1,1,0,0,1,1,1,0,1,0]","door_history":"[1,0,0,1,1,0,0,0,1,0,1]","location_rts":"[1557,961,1835,983,1202,980,1308,1121,1233,1364,1754]","trial_type":"two-door-navigation","trial_index":29,"time_elapsed":566282,"internal_node_id":"0.0-2.0-27.0"},{"group":"hexagon_bi","room_assignment":["red","grey","yellow","purple","green","blue"],"door_color_assignment":["black","white"],"door_generator_assignment":[1,0],"goal":0,"start":3,"action_noise":0.15,"location_history":"[3,2,3,4,5,4,3,2,1,2,1,0]","action_history":"[1,1,0,1,0,0,1,1,0,0,1]","door_history":"[0,0,1,0,1,1,0,0,1,1,0]","location_rts":"[2932,1800,4146,1717,1041,1780,853,1402,1680,1165,1517]","trial_type":"two-door-navigation","trial_index":30,"time_elapsed":601093,"internal_node_id":"0.0-2.0-28.0"},{"group":"hexagon_bi","room_assignment":["red","grey","yellow","purple","green","blue"],"door_color_assignment":["black","white"],"door_generator_assignment":[1,0],"goal":1,"start":0,"action_noise":0.15,"location_history":"[0,1]","action_history":"[1]","door_history":"[0]","location_rts":"[3467]","trial_type":"two-door-navigation","trial_index":31,"time_elapsed":609092,"internal_node_id":"0.0-2.0-29.0"},{"group":"hexagon_bi","room_assignment":["red","grey","yellow","purple","green","blue"],"door_color_assignment":["black","white"],"door_generator_assignment":[1,0],"goal":4,"start":1,"action_noise":0.15,"location_history":"[1,0,5,0,1,0,1,2,3,2,1,0,5,4]","action_history":"[1,0,1,0,1,1,0,0,1,0,0,0,1]","door_history":"[0,1,0,1,0,0,1,1,0,1,1,1,0]","location_rts":"[1790,1776,2067,1206,1491,1493,978,1090,761,1029,886,976,2383]","trial_type":"two-door-navigation","trial_index":32,"time_elapsed":643846,"internal_node_id":"0.0-2.0-30.0"},{"group":"hexagon_bi","room_assignment":["red","grey","yellow","purple","green","blue"],"door_color_assignment":["black","white"],"door_generator_assignment":[1,0],"goal":5,"start":4,"action_noise":0.15,"location_history":"[4,5]","action_history":"[0]","door_history":"[1]","location_rts":"[3130]","trial_type":"two-door-navigation","trial_index":33,"time_elapsed":651503,"internal_node_id":"0.0-2.0-31.0"},{"group":"hexagon_bi","room_assignment":["red","grey","yellow","purple","green","blue"],"door_color_assignment":["black","white"],"door_generator_assignment":[1,0],"goal":0,"start":5,"action_noise":0.15,"location_history":"[5,4,3,2,1,2,1,0]","action_history":"[1,0,1,1,0,0,1]","door_history":"[0,1,0,0,1,1,0]","location_rts":"[2782,1278,924,1492,848,928,851]","trial_type":"two-door-navigation","trial_index":34,"time_elapsed":671285,"internal_node_id":"0.0-2.0-32.0"},{"group":"hexagon_bi","room_assignment":["red","grey","yellow","purple","green","blue"],"door_color_assignment":["black","white"],"door_generator_assignment":[1,0],"goal":3,"start":0,"action_noise":0.15,"location_history":"[0,1,2,1,0,5,0,1,0,1,0,5,0,5,0,1,0,5,0,1,0,1,0,5,4,3]","action_history":"[1,0,0,1,0,1,0,1,1,1,0,0,1,1,1,0,0,1,1,1,1,1,0,1,0]","door_history":"[0,1,1,0,1,0,1,0,0,0,1,1,0,0,0,1,1,0,0,0,0,0,1,0,1]","location_rts":"[1728,1016,1159,761,2325,1885,1270,1134,1088,1231,801,1840,1149,1137,1125,1414,1258,1091,1063,558,924,1735,427,1995,1993]","trial_type":"two-door-navigation","trial_index":35,"time_elapsed":732512,"internal_node_id":"0.0-2.0-33.0"},{"group":"hexagon_bi","room_assignment":["red","grey","yellow","purple","green","blue"],"door_color_assignment":["black","white"],"door_generator_assignment":[1,0],"goal":1,"start":3,"action_noise":0.15,"location_history":"[3,4,5,4,3,4,5,0,5,4,5,0,1]","action_history":"[0,1,1,0,0,1,0,0,1,1,0,1]","door_history":"[1,0,0,1,1,0,1,1,0,0,1,0]","location_rts":"[3352,1190,2250,934,1955,1486,1883,1000,1069,1024,1007,811]","trial_type":"two-door-navigation","trial_index":36,"time_elapsed":766279,"internal_node_id":"0.0-2.0-34.0"},{"group":"hexagon_bi","room_assignment":["red","grey","yellow","purple","green","blue"],"door_color_assignment":["black","white"],"door_generator_assignment":[1,0],"goal":2,"start":1,"action_noise":0.15,"location_history":"[1,2]","action_history":"[0]","door_history":"[1]","location_rts":"[2260]","trial_type":"two-door-navigation","trial_index":37,"time_elapsed":773066,"internal_node_id":"0.0-2.0-35.0"},{"group":"hexagon_bi","room_assignment":["red","grey","yellow","purple","green","blue"],"door_color_assignment":["black","white"],"door_generator_assignment":[1,0],"goal":4,"start":2,"action_noise":0.15,"location_history":"[2,1,0,1,2,3,2,1,2,3,2,3,2,3,4]","action_history":"[0,1,1,1,0,1,0,0,1,0,1,1,1,0]","door_history":"[1,0,0,0,1,0,1,1,0,1,0,0,0,1]","location_rts":"[2159,834,2282,1515,869,1629,1332,976,871,1691,1502,2325,1312,737]","trial_type":"two-door-navigation","trial_index":38,"time_elapsed":810949,"internal_node_id":"0.0-2.0-36.0"},{"group":"hexagon_bi","room_assignment":["red","grey","yellow","purple","green","blue"],"door_color_assignment":["black","white"],"door_generator_assignment":[1,0],"goal":5,"start":4,"action_noise":0.15,"location_history":"[4,3,2,3,4,5]","action_history":"[0,1,1,0,1]","door_history":"[1,0,0,1,0]","location_rts":"[2765,1589,1369,2609,3050]","trial_type":"two-door-navigation","trial_index":39,"time_elapsed":830949,"internal_node_id":"0.0-2.0-37.0"},{"group":"hexagon_bi","room_assignment":["red","grey","yellow","purple","green","blue"],"door_color_assignment":["black","white"],"door_generator_assignment":[1,0],"goal":1,"start":5,"action_noise":0.15,"location_history":"[5,4,5,4,3,4,5,4,3,4,5,4,3,2,3,2,1]","action_history":"[1,1,1,0,0,1,1,0,0,1,1,0,1,1,1,0]","door_history":"[0,0,0,1,1,0,0,1,1,0,0,1,0,0,0,1]","location_rts":"[8243,2067,4870,3332,1310,813,1310,975,1512,1334,1370,1244,1133,521,1048,755]","trial_type":"two-door-navigation","trial_index":40,"time_elapsed":882674,"internal_node_id":"0.0-2.0-38.0"},{"group":"hexagon_bi","room_assignment":["red","grey","yellow","purple","green","blue"],"door_color_assignment":["black","white"],"door_generator_assignment":[1,0],"goal":4,"start":1,"action_noise":0.15,"location_history":"[1,0,1,0,1,2,3,4]","action_history":"[1,0,1,1,0,1,0]","door_history":"[0,1,0,0,1,0,1]","location_rts":"[1995,2169,1157,1022,1173,1399,2220]","trial_type":"two-door-navigation","trial_index":41,"time_elapsed":904484,"internal_node_id":"0.0-2.0-39.0"},{"group":"hexagon_bi","room_assignment":["red","grey","yellow","purple","green","blue"],"door_color_assignment":["black","white"],"door_generator_assignment":[1,0],"goal":3,"start":4,"action_noise":0.15,"location_history":"[4,5,4,3]","action_history":"[1,1,0]","door_history":"[0,0,1]","location_rts":"[2282,1771,1660]","trial_type":"two-door-navigation","trial_index":42,"time_elapsed":916775,"internal_node_id":"0.0-2.0-40.0"},{"group":"hexagon_bi","room_assignment":["red","grey","yellow","purple","green","blue"],"door_color_assignment":["black","white"],"door_generator_assignment":[1,0],"goal":2,"start":3,"action_noise":0.15,"location_history":"[3,4,3,2]","action_history":"[1,0,1]","door_history":"[0,1,0]","location_rts":"[2034,2145,1538]","trial_type":"two-door-navigation","trial_index":43,"time_elapsed":929075,"internal_node_id":"0.0-2.0-41.0"},{"group":"hexagon_bi","room_assignment":["red","grey","yellow","purple","green","blue"],"door_color_assignment":["black","white"],"door_generator_assignment":[1,0],"goal":0,"start":2,"action_noise":0.15,"location_history":"[2,3,2,3,4,5,4,3,2,3,2,3,4,5,0]","action_history":"[1,1,1,0,1,0,0,1,1,0,1,0,0,1]","door_history":"[0,0,0,1,0,1,1,0,0,1,0,1,1,0]","location_rts":"[1754,1871,1522,1041,3140,2564,1283,957,1587,6382,1914,1335,1509,1304]","trial_type":"two-door-navigation","trial_index":44,"time_elapsed":975095,"internal_node_id":"0.0-2.0-42.0"},{"group":"hexagon_bi","room_assignment":["red","grey","yellow","purple","green","blue"],"door_color_assignment":["black","white"],"door_generator_assignment":[1,0],"goal":5,"start":0,"action_noise":0.15,"location_history":"[0,5]","action_history":"[0]","door_history":"[1]","location_rts":"[2368]","trial_type":"two-door-navigation","trial_index":45,"time_elapsed":981987,"internal_node_id":"0.0-2.0-43.0"},{"group":"hexagon_bi","room_assignment":["red","grey","yellow","purple","green","blue"],"door_color_assignment":["black","white"],"door_generator_assignment":[1,0],"goal":0,"start":5,"action_noise":0.15,"location_history":"[5,0]","action_history":"[0]","door_history":"[1]","location_rts":"[2002]","trial_type":"two-door-navigation","trial_index":46,"time_elapsed":988514,"internal_node_id":"0.0-2.0-44.0"},{"group":"hexagon_bi","room_assignment":["red","grey","yellow","purple","green","blue"],"door_color_assignment":["black","white"],"door_generator_assignment":[1,0],"goal":2,"start":0,"action_noise":0.15,"location_history":"[0,5,4,5,0,5,0,5,4,3,2]","action_history":"[0,1,1,0,1,0,0,1,0,1]","door_history":"[1,0,0,1,0,1,1,0,1,0]","location_rts":"[2078,3295,1839,1572,1008,1636,1973,2724,2702,753]","trial_type":"two-door-navigation","trial_index":47,"time_elapsed":1021831,"internal_node_id":"0.0-2.0-45.0"},{"group":"hexagon_bi","room_assignment":["red","grey","yellow","purple","green","blue"],"door_color_assignment":["black","white"],"door_generator_assignment":[1,0],"goal":4,"start":2,"action_noise":0.15,"location_history":"[2,1,0,1,0,5,4]","action_history":"[1,0,1,1,0,1]","door_history":"[0,1,0,0,1,0]","location_rts":"[2342,1560,1990,1992,1518,3227]","trial_type":"two-door-navigation","trial_index":48,"time_elapsed":1044113,"internal_node_id":"0.0-2.0-46.0"},{"group":"hexagon_bi","room_assignment":["red","grey","yellow","purple","green","blue"],"door_color_assignment":["black","white"],"door_generator_assignment":[1,0],"goal":1,"start":4,"action_noise":0.15,"location_history":"[4,5,4,3,2,1]","action_history":"[1,1,0,1,0]","door_history":"[0,0,1,0,1]","location_rts":"[5696,1458,1059,1767,1280]","trial_type":"two-door-navigation","trial_index":49,"time_elapsed":1063999,"internal_node_id":"0.0-2.0-47.0"},{"group":"hexagon_bi","room_assignment":["red","grey","yellow","purple","green","blue"],"door_color_assignment":["black","white"],"door_generator_assignment":[1,0],"goal":5,"start":1,"action_noise":0.15,"location_history":"[1,0,5]","action_history":"[1,0]","door_history":"[0,1]","location_rts":"[1778,1373]","trial_type":"two-door-navigation","trial_index":50,"time_elapsed":1072706,"internal_node_id":"0.0-2.0-48.0"},{"group":"hexagon_bi","room_assignment":["red","grey","yellow","purple","green","blue"],"door_color_assignment":["black","white"],"door_generator_assignment":[1,0],"goal":3,"start":5,"action_noise":0.15,"location_history":"[5,0,1,0,5,0,1,0,5,4,5,0,5,0,1,2,1,2,3]","action_history":"[0,1,1,0,0,1,1,0,1,0,0,1,0,1,0,0,0,1]","door_history":"[1,0,0,1,1,0,0,1,0,1,1,0,1,0,1,1,1,0]","location_rts":"[2044,3249,2495,2190,1302,1110,1272,2296,1991,2120,1827,1087,1759,1143,1359,2490,2734,367]","trial_type":"two-door-navigation","trial_index":51,"time_elapsed":1127496,"internal_node_id":"0.0-2.0-49.0"},{"view_history":"[{\"page_index\":0,\"viewing_time\":2266}]","rt":2266,"trial_type":"instructions","trial_index":52,"time_elapsed":1130763,"internal_node_id":"0.0-3.0"},{"view_history":"[{\"page_index\":0,\"viewing_time\":3939},{\"page_index\":1,\"viewing_time\":40283}]","rt":44223,"trial_type":"instructions","trial_index":53,"time_elapsed":1175986,"internal_node_id":"0.0-4.0"},{"group":"hexagon_bi","fractal_assignment":["../images/org_blu.png","../images/cyn_red.png","../images/gry_blk.png","../images/ylw_slt.png","../images/blu_wht.png","../images/pnk_blu.png"],"mutagen_generator_assignment":[0,1],"goal":3,"start":5,"action_noise":0.15,"location_history":"[5,0,5,4,3]","action_history":"[0,1,1,0]","mutagen_history":"[0,1,1,0]","location_rts":"[7363,11204,3393,1063]","trial_type":"fractal-mutation","trial_index":54,"time_elapsed":1206655,"internal_node_id":"0.0-5.0-0.0"},{"group":"hexagon_bi","fractal_assignment":["../images/org_blu.png","../images/cyn_red.png","../images/gry_blk.png","../images/ylw_slt.png","../images/blu_wht.png","../images/pnk_blu.png"],"mutagen_generator_assignment":[0,1],"goal":1,"start":3,"action_noise":0.15,"location_history":"[3,4,5,4,3,2,1]","action_history":"[0,1,1,0,0,1]","mutagen_history":"[0,1,1,0,0,1]","location_rts":"[2292,2233,1727,1529,1204,870]","trial_type":"fractal-mutation","trial_index":55,"time_elapsed":1226218,"internal_node_id":"0.0-5.0-1.0"},{"group":"hexagon_bi","fractal_assignment":["../images/org_blu.png","../images/cyn_red.png","../images/gry_blk.png","../images/ylw_slt.png","../images/blu_wht.png","../images/pnk_blu.png"],"mutagen_generator_assignment":[0,1],"goal":0,"start":1,"action_noise":0.15,"location_history":"[1,0]","action_history":"[1]","mutagen_history":"[1]","location_rts":"[3049]","trial_type":"fractal-mutation","trial_index":56,"time_elapsed":1233814,"internal_node_id":"0.0-5.0-2.0"},{"group":"hexagon_bi","fractal_assignment":["../images/org_blu.png","../images/cyn_red.png","../images/gry_blk.png","../images/ylw_slt.png","../images/blu_wht.png","../images/pnk_blu.png"],"mutagen_generator_assignment":[0,1],"goal":3,"start":0,"action_noise":0.15,"location_history":"[0,1,2,1,0,1,2,3]","action_history":"[1,0,0,1,1,0,1]","mutagen_history":"[1,0,0,1,1,0,1]","location_rts":"[2033,1368,1402,1464,1010,1318,1605]","trial_type":"fractal-mutation","trial_index":57,"time_elapsed":1254759,"internal_node_id":"0.0-5.0-3.0"},{"group":"hexagon_bi","fractal_assignment":["../images/org_blu.png","../images/cyn_red.png","../images/gry_blk.png","../images/ylw_slt.png","../images/blu_wht.png","../images/pnk_blu.png"],"mutagen_generator_assignment":[0,1],"goal":4,"start":3,"action_noise":0.15,"location_history":"[3,2,1,0,1,2,3,2,3,2,3,4]","action_history":"[1,0,1,1,0,0,1,1,1,1,0]","mutagen_history":"[1,0,1,1,0,0,1,1,1,1,0]","location_rts":"[2921,858,2260,983,1660,1106,2414,1197,1681,975,1080]","trial_type":"fractal-mutation","trial_index":58,"time_elapsed":1286791,"internal_node_id":"0.0-5.0-4.0"},{"group":"hexagon_bi","fractal_assignment":["../images/org_blu.png","../images/cyn_red.png","../images/gry_blk.png","../images/ylw_slt.png","../images/blu_wht.png","../images/pnk_blu.png"],"mutagen_generator_assignment":[0,1],"goal":2,"start":4,"action_noise":0.15,"location_history":"[4,5,4,3,4,3,4,3,4,3,2]","action_history":"[1,1,0,0,1,1,0,0,1,1]","mutagen_history":"[1,1,0,0,1,1,0,0,1,1]","location_rts":"[2346,1813,1054,1582,921,935,633,997,1288,839]","trial_type":"fractal-mutation","trial_index":59,"time_elapsed":1313028,"internal_node_id":"0.0-5.0-5.0"},{"group":"hexagon_bi","fractal_assignment":["../images/org_blu.png","../images/cyn_red.png","../images/gry_blk.png","../images/ylw_slt.png","../images/blu_wht.png","../images/pnk_blu.png"],"mutagen_generator_assignment":[0,1],"goal":1,"start":2,"action_noise":0.15,"location_history":"[2,3,2,1]","action_history":"[1,1,0]","mutagen_history":"[1,1,0]","location_rts":"[1633,1334,1153]","trial_type":"fractal-mutation","trial_index":60,"time_elapsed":1323755,"internal_node_id":"0.0-5.0-6.0"},{"group":"hexagon_bi","fractal_assignment":["../images/org_blu.png","../images/cyn_red.png","../images/gry_blk.png","../images/ylw_slt.png","../images/blu_wht.png","../images/pnk_blu.png"],"mutagen_generator_assignment":[0,1],"goal":5,"start":1,"action_noise":0.15,"location_history":"[1,0,1,0,1,2,1,0,1,2,3,2,1,2,3,2,3,2,1,2,3,4,3,2,3,4,5]","action_history":"[1,0,1,1,0,0,1,1,1,1,1,0,0,1,1,1,0,0,0,1,1,1,1,1,0,1]","mutagen_history":"[1,0,1,1,0,0,1,1,1,1,1,0,0,1,1,1,0,0,0,1,1,1,1,1,0,1]","location_rts":"[1461,1463,815,754,1200,865,1332,550,761,869,1047,253,9892,833,1169,1135,1279,817,823,963,952,1250,1053,805,1346,876]","trial_type":"fractal-mutation","trial_index":61,"time_elapsed":1388699,"internal_node_id":"0.0-5.0-7.0"},{"group":"hexagon_bi","fractal_assignment":["../images/org_blu.png","../images/cyn_red.png","../images/gry_blk.png","../images/ylw_slt.png","../images/blu_wht.png","../images/pnk_blu.png"],"mutagen_generator_assignment":[0,1],"goal":4,"start":5,"action_noise":0.15,"location_history":"[5,4]","action_history":"[1]","mutagen_history":"[1]","location_rts":"[1339]","trial_type":"fractal-mutation","trial_index":62,"time_elapsed":1394579,"internal_node_id":"0.0-5.0-8.0"},{"group":"hexagon_bi","fractal_assignment":["../images/org_blu.png","../images/cyn_red.png","../images/gry_blk.png","../images/ylw_slt.png","../images/blu_wht.png","../images/pnk_blu.png"],"mutagen_generator_assignment":[0,1],"goal":2,"start":4,"action_noise":0.15,"location_history":"[4,5,0,5,4,3,2]","action_history":"[1,1,1,0,0,1]","mutagen_history":"[1,1,1,0,0,1]","location_rts":"[1347,510,1065,889,828,763]","trial_type":"fractal-mutation","trial_index":63,"time_elapsed":1409693,"internal_node_id":"0.0-5.0-9.0"},{"group":"hexagon_bi","fractal_assignment":["../images/org_blu.png","../images/cyn_red.png","../images/gry_blk.png","../images/ylw_slt.png","../images/blu_wht.png","../images/pnk_blu.png"],"mutagen_generator_assignment":[0,1],"goal":0,"start":2,"action_noise":0.15,"location_history":"[2,1,0]","action_history":"[0,1]","mutagen_history":"[0,1]","location_rts":"[3415,1043]","trial_type":"fractal-mutation","trial_index":64,"time_elapsed":1419724,"internal_node_id":"0.0-5.0-10.0"},{"group":"hexagon_bi","fractal_assignment":["../images/org_blu.png","../images/cyn_red.png","../images/gry_blk.png","../images/ylw_slt.png","../images/blu_wht.png","../images/pnk_blu.png"],"mutagen_generator_assignment":[0,1],"goal":1,"start":0,"action_noise":0.15,"location_history":"[0,1]","action_history":"[1]","mutagen_history":"[1]","location_rts":"[1499]","trial_type":"fractal-mutation","trial_index":65,"time_elapsed":1425767,"internal_node_id":"0.0-5.0-11.0"},{"group":"hexagon_bi","fractal_assignment":["../images/org_blu.png","../images/cyn_red.png","../images/gry_blk.png","../images/ylw_slt.png","../images/blu_wht.png","../images/pnk_blu.png"],"mutagen_generator_assignment":[0,1],"goal":3,"start":1,"action_noise":0.15,"location_history":"[1,0,1,2,3]","action_history":"[1,0,0,1]","mutagen_history":"[1,0,0,1]","location_rts":"[1591,912,902,798]","trial_type":"fractal-mutation","trial_index":66,"time_elapsed":1437600,"internal_node_id":"0.0-5.0-12.0"},{"group":"hexagon_bi","fractal_assignment":["../images/org_blu.png","../images/cyn_red.png","../images/gry_blk.png","../images/ylw_slt.png","../images/blu_wht.png","../images/pnk_blu.png"],"mutagen_generator_assignment":[0,1],"goal":5,"start":3,"action_noise":0.15,"location_history":"[3,2,3,2,1,0,1,0,1,2,1,2,1,2,3,2,3,2,3,2,3,2,3,4,5]","action_history":"[1,1,0,0,1,1,1,0,0,0,1,0,0,1,1,1,1,0,1,1,1,1,0,1]","mutagen_history":"[1,1,0,0,1,1,1,0,0,0,1,0,0,1,1,1,1,0,1,1,1,1,0,1]","location_rts":"[2440,832,765,1347,866,786,760,828,1,786,2386,2308,1722,2147,1667,765,1617,482,764,781,874,585,417,646]","trial_type":"fractal-mutation","trial_index":67,"time_elapsed":1492500,"internal_node_id":"0.0-5.0-13.0"},{"group":"hexagon_bi","fractal_assignment":["../images/org_blu.png","../images/cyn_red.png","../images/gry_blk.png","../images/ylw_slt.png","../images/blu_wht.png","../images/pnk_blu.png"],"mutagen_generator_assignment":[0,1],"goal":4,"start":5,"action_noise":0.15,"location_history":"[5,4]","action_history":"[1]","mutagen_history":"[1]","location_rts":"[2268]","trial_type":"fractal-mutation","trial_index":68,"time_elapsed":1499304,"internal_node_id":"0.0-5.0-14.0"},{"group":"hexagon_bi","fractal_assignment":["../images/org_blu.png","../images/cyn_red.png","../images/gry_blk.png","../images/ylw_slt.png","../images/blu_wht.png","../images/pnk_blu.png"],"mutagen_generator_assignment":[0,1],"goal":0,"start":4,"action_noise":0.15,"location_history":"[4,3,2,3,2,1,2,3,4,3,4,3,2,1,0]","action_history":"[0,1,0,1,0,0,1,0,0,0,1,1,0,1]","mutagen_history":"[0,1,0,1,0,0,1,0,0,0,1,1,0,1]","location_rts":"[1716,1375,2867,1167,973,722,912,1678,1987,1032,426,1400,600,681]","trial_type":"fractal-mutation","trial_index":69,"time_elapsed":1534818,"internal_node_id":"0.0-5.0-15.0"},{"group":"hexagon_bi","fractal_assignment":["../images/org_blu.png","../images/cyn_red.png","../images/gry_blk.png","../images/ylw_slt.png","../images/blu_wht.png","../images/pnk_blu.png"],"mutagen_generator_assignment":[0,1],"goal":3,"start":0,"action_noise":0.15,"location_history":"[0,5,4,3]","action_history":"[0,1,0]","mutagen_history":"[0,1,0]","location_rts":"[2247,1249,920]","trial_type":"fractal-mutation","trial_index":70,"time_elapsed":1545833,"internal_node_id":"0.0-5.0-16.0"},{"group":"hexagon_bi","fractal_assignment":["../images/org_blu.png","../images/cyn_red.png","../images/gry_blk.png","../images/ylw_slt.png","../images/blu_wht.png","../images/pnk_blu.png"],"mutagen_generator_assignment":[0,1],"goal":1,"start":3,"action_noise":0.15,"location_history":"[3,2,1]","action_history":"[1,0]","mutagen_history":"[1,0]","location_rts":"[1787,2643]","trial_type":"fractal-mutation","trial_index":71,"time_elapsed":1555833,"internal_node_id":"0.0-5.0-17.0"},{"group":"hexagon_bi","fractal_assignment":["../images/org_blu.png","../images/cyn_red.png","../images/gry_blk.png","../images/ylw_slt.png","../images/blu_wht.png","../images/pnk_blu.png"],"mutagen_generator_assignment":[0,1],"goal":5,"start":1,"action_noise":0.15,"location_history":"[1,0,5]","action_history":"[1,0]","mutagen_history":"[1,0]","location_rts":"[1402,2626]","trial_type":"fractal-mutation","trial_index":72,"time_elapsed":1565427,"internal_node_id":"0.0-5.0-18.0"},{"group":"hexagon_bi","fractal_assignment":["../images/org_blu.png","../images/cyn_red.png","../images/gry_blk.png","../images/ylw_slt.png","../images/blu_wht.png","../images/pnk_blu.png"],"mutagen_generator_assignment":[0,1],"goal":2,"start":5,"action_noise":0.15,"location_history":"[5,4,5,4,3,2]","action_history":"[1,1,0,0,1]","mutagen_history":"[1,1,0,0,1]","location_rts":"[1558,1764,463,835,799]","trial_type":"fractal-mutation","trial_index":73,"time_elapsed":1579510,"internal_node_id":"0.0-5.0-19.0"},{"group":"hexagon_bi","fractal_assignment":["../images/org_blu.png","../images/cyn_red.png","../images/gry_blk.png","../images/ylw_slt.png","../images/blu_wht.png","../images/pnk_blu.png"],"mutagen_generator_assignment":[0,1],"goal":4,"start":2,"action_noise":0.15,"location_history":"[2,3,2,3,2,1,2,3,2,1,0,5,0,1,2,1,0,1,2,1,2,3,4]","action_history":"[0,1,1,1,0,0,1,1,0,1,1,0,1,0,1,1,1,0,0,1,1,1]","mutagen_history":"[0,1,1,1,0,0,1,1,0,1,1,0,1,0,1,1,1,0,0,1,1,1]","location_rts":"[2549,752,822,2939,1161,1044,579,921,1290,866,927,1861,1365,1219,828,706,705,1192,1463,570,1007,2270]","trial_type":"fractal-mutation","trial_index":74,"time_elapsed":1632792,"internal_node_id":"0.0-5.0-20.0"},{"group":"hexagon_bi","fractal_assignment":["../images/org_blu.png","../images/cyn_red.png","../images/gry_blk.png","../images/ylw_slt.png","../images/blu_wht.png","../images/pnk_blu.png"],"mutagen_generator_assignment":[0,1],"goal":1,"start":4,"action_noise":0.15,"location_history":"[4,3,4,5,4,5,4,3,4,5,0,1]","action_history":"[0,1,0,1,1,1,1,0,1,0,1]","mutagen_history":"[0,1,0,1,1,1,1,0,1,0,1]","location_rts":"[2627,1523,887,768,677,1312,823,84,936,1006,1032]","trial_type":"fractal-mutation","trial_index":75,"time_elapsed":1659350,"internal_node_id":"0.0-5.0-21.0"},{"group":"hexagon_bi","fractal_assignment":["../images/org_blu.png","../images/cyn_red.png","../images/gry_blk.png","../images/ylw_slt.png","../images/blu_wht.png","../images/pnk_blu.png"],"mutagen_generator_assignment":[0,1],"goal":3,"start":1,"action_noise":0.15,"location_history":"[1,0,1,2,3]","action_history":"[0,1,0,1]","mutagen_history":"[0,1,0,1]","location_rts":"[1861,1045,1175,1021]","trial_type":"fractal-mutation","trial_index":76,"time_elapsed":1672085,"internal_node_id":"0.0-5.0-22.0"},{"group":"hexagon_bi","fractal_assignment":["../images/org_blu.png","../images/cyn_red.png","../images/gry_blk.png","../images/ylw_slt.png","../images/blu_wht.png","../images/pnk_blu.png"],"mutagen_generator_assignment":[0,1],"goal":2,"start":3,"action_noise":0.15,"location_history":"[3,2]","action_history":"[1]","mutagen_history":"[1]","location_rts":"[1564]","trial_type":"fractal-mutation","trial_index":77,"time_elapsed":1678191,"internal_node_id":"0.0-5.0-23.0"},{"group":"hexagon_bi","fractal_assignment":["../images/org_blu.png","../images/cyn_red.png","../images/gry_blk.png","../images/ylw_slt.png","../images/blu_wht.png","../images/pnk_blu.png"],"mutagen_generator_assignment":[0,1],"goal":0,"start":2,"action_noise":0.15,"location_history":"[2,1,0]","action_history":"[0,0]","mutagen_history":"[0,0]","location_rts":"[1498,1343]","trial_type":"fractal-mutation","trial_index":78,"time_elapsed":1686607,"internal_node_id":"0.0-5.0-24.0"},{"group":"hexagon_bi","fractal_assignment":["../images/org_blu.png","../images/cyn_red.png","../images/gry_blk.png","../images/ylw_slt.png","../images/blu_wht.png","../images/pnk_blu.png"],"mutagen_generator_assignment":[0,1],"goal":5,"start":0,"action_noise":0.15,"location_history":"[0,1,2,1,0,5]","action_history":"[1,0,1,1,0]","mutagen_history":"[1,0,1,1,0]","location_rts":"[1245,1306,899,865,1260]","trial_type":"fractal-mutation","trial_index":79,"time_elapsed":1700845,"internal_node_id":"0.0-5.0-25.0"},{"group":"hexagon_bi","fractal_assignment":["../images/org_blu.png","../images/cyn_red.png","../images/gry_blk.png","../images/ylw_slt.png","../images/blu_wht.png","../images/pnk_blu.png"],"mutagen_generator_assignment":[0,1],"goal":2,"start":5,"action_noise":0.15,"location_history":"[5,4,3,2]","action_history":"[1,0,1]","mutagen_history":"[1,0,1]","location_rts":"[1327,1519,829]","trial_type":"fractal-mutation","trial_index":80,"time_elapsed":1711129,"internal_node_id":"0.0-5.0-26.0"},{"group":"hexagon_bi","fractal_assignment":["../images/org_blu.png","../images/cyn_red.png","../images/gry_blk.png","../images/ylw_slt.png","../images/blu_wht.png","../images/pnk_blu.png"],"mutagen_generator_assignment":[0,1],"goal":3,"start":2,"action_noise":0.15,"location_history":"[2,3]","action_history":"[1]","mutagen_history":"[1]","location_rts":"[848]","trial_type":"fractal-mutation","trial_index":81,"time_elapsed":1716521,"internal_node_id":"0.0-5.0-27.0"},{"group":"hexagon_bi","fractal_assignment":["../images/org_blu.png","../images/cyn_red.png","../images/gry_blk.png","../images/ylw_slt.png","../images/blu_wht.png","../images/pnk_blu.png"],"mutagen_generator_assignment":[0,1],"goal":0,"start":3,"action_noise":0.15,"location_history":"[3,4,5,0]","action_history":"[0,1,0]","mutagen_history":"[0,1,0]","location_rts":"[1257,924,2502]","trial_type":"fractal-mutation","trial_index":82,"time_elapsed":1727804,"internal_node_id":"0.0-5.0-28.0"},{"group":"hexagon_bi","fractal_assignment":["../images/org_blu.png","../images/cyn_red.png","../images/gry_blk.png","../images/ylw_slt.png","../images/blu_wht.png","../images/pnk_blu.png"],"mutagen_generator_assignment":[0,1],"goal":1,"start":0,"action_noise":0.15,"location_history":"[0,1]","action_history":"[1]","mutagen_history":"[1]","location_rts":"[1013]","trial_type":"fractal-mutation","trial_index":83,"time_elapsed":1733359,"internal_node_id":"0.0-5.0-29.0"},{"group":"hexagon_bi","fractal_assignment":["../images/org_blu.png","../images/cyn_red.png","../images/gry_blk.png","../images/ylw_slt.png","../images/blu_wht.png","../images/pnk_blu.png"],"mutagen_generator_assignment":[0,1],"goal":4,"start":1,"action_noise":0.15,"location_history":"[1,0,5,0,1,0,5,4]","action_history":"[1,0,0,1,1,0,0]","mutagen_history":"[1,0,0,1,1,0,0]","location_rts":"[1213,972,1509,858,1170,1078,1392]","trial_type":"fractal-mutation","trial_index":84,"time_elapsed":1752287,"internal_node_id":"0.0-5.0-30.0"},{"group":"hexagon_bi","fractal_assignment":["../images/org_blu.png","../images/cyn_red.png","../images/gry_blk.png","../images/ylw_slt.png","../images/blu_wht.png","../images/pnk_blu.png"],"mutagen_generator_assignment":[0,1],"goal":5,"start":4,"action_noise":0.15,"location_history":"[4,5]","action_history":"[1]","mutagen_history":"[1]","location_rts":"[1169]","trial_type":"fractal-mutation","trial_index":85,"time_elapsed":1758002,"internal_node_id":"0.0-5.0-31.0"},{"group":"hexagon_bi","fractal_assignment":["../images/org_blu.png","../images/cyn_red.png","../images/gry_blk.png","../images/ylw_slt.png","../images/blu_wht.png","../images/pnk_blu.png"],"mutagen_generator_assignment":[0,1],"goal":0,"start":5,"action_noise":0.15,"location_history":"[5,0]","action_history":"[0]","mutagen_history":"[0]","location_rts":"[1958]","trial_type":"fractal-mutation","trial_index":86,"time_elapsed":1764493,"internal_node_id":"0.0-5.0-32.0"},{"group":"hexagon_bi","fractal_assignment":["../images/org_blu.png","../images/cyn_red.png","../images/gry_blk.png","../images/ylw_slt.png","../images/blu_wht.png","../images/pnk_blu.png"],"mutagen_generator_assignment":[0,1],"goal":3,"start":0,"action_noise":0.15,"location_history":"[0,1,2,1,2,3]","action_history":"[1,0,0,0,1]","mutagen_history":"[1,0,0,0,1]","location_rts":"[1189,823,1099,2085,1220]","trial_type":"fractal-mutation","trial_index":87,"time_elapsed":1779573,"internal_node_id":"0.0-5.0-33.0"},{"group":"hexagon_bi","fractal_assignment":["../images/org_blu.png","../images/cyn_red.png","../images/gry_blk.png","../images/ylw_slt.png","../images/blu_wht.png","../images/pnk_blu.png"],"mutagen_generator_assignment":[0,1],"goal":1,"start":3,"action_noise":0.15,"location_history":"[3,2,3,4,5,0,5,4,3,2,3,4,3,2,3,2,3,2,1]","action_history":"[1,1,0,1,1,0,1,0,1,1,0,0,1,1,1,0,1,0]","mutagen_history":"[1,1,0,1,1,0,1,0,1,1,0,0,1,1,1,0,1,0]","location_rts":"[1746,2005,845,622,826,1669,977,636,761,855,835,103,594,740,879,1186,1508,857]","trial_type":"fractal-mutation","trial_index":88,"time_elapsed":1819316,"internal_node_id":"0.0-5.0-34.0"},{"group":"hexagon_bi","fractal_assignment":["../images/org_blu.png","../images/cyn_red.png","../images/gry_blk.png","../images/ylw_slt.png","../images/blu_wht.png","../images/pnk_blu.png"],"mutagen_generator_assignment":[0,1],"goal":2,"start":1,"action_noise":0.15,"location_history":"[1,0,5,0,5,4,5,0,1,2]","action_history":"[1,0,1,0,0,1,0,1,1]","mutagen_history":"[1,0,1,0,0,1,0,1,1]","location_rts":"[6845,1160,2991,1089,577,1599,1810,1495,1135]","trial_type":"fractal-mutation","trial_index":89,"time_elapsed":1850821,"internal_node_id":"0.0-5.0-35.0"},{"group":"hexagon_bi","fractal_assignment":["../images/org_blu.png","../images/cyn_red.png","../images/gry_blk.png","../images/ylw_slt.png","../images/blu_wht.png","../images/pnk_blu.png"],"mutagen_generator_assignment":[0,1],"goal":4,"start":2,"action_noise":0.15,"location_history":"[2,3,2,3,2,1,0,5,0,1,0,5,4]","action_history":"[1,0,1,1,0,1,0,0,1,1,1,1]","mutagen_history":"[1,0,1,1,0,1,0,0,1,1,1,1]","location_rts":"[1290,1357,1738,975,1973,781,1337,617,564,810,584,1081]","trial_type":"fractal-mutation","trial_index":90,"time_elapsed":1879847,"internal_node_id":"0.0-5.0-36.0"},{"group":"hexagon_bi","fractal_assignment":["../images/org_blu.png","../images/cyn_red.png","../images/gry_blk.png","../images/ylw_slt.png","../images/blu_wht.png","../images/pnk_blu.png"],"mutagen_generator_assignment":[0,1],"goal":5,"start":4,"action_noise":0.15,"location_history":"[4,3,2,3,2,1,0,5]","action_history":"[1,1,1,1,0,1,1]","mutagen_history":"[1,1,1,1,0,1,1]","location_rts":"[2930,1235,1222,1714,1296,839,754]","trial_type":"fractal-mutation","trial_index":91,"time_elapsed":1900601,"internal_node_id":"0.0-5.0-37.0"},{"group":"hexagon_bi","fractal_assignment":["../images/org_blu.png","../images/cyn_red.png","../images/gry_blk.png","../images/ylw_slt.png","../images/blu_wht.png","../images/pnk_blu.png"],"mutagen_generator_assignment":[0,1],"goal":1,"start":5,"action_noise":0.15,"location_history":"[5,4,3,4,5,4,3,4,5,4,3,4,5,4,5,0,5,4,3,2,3,2,1]","action_history":"[1,0,0,1,1,0,1,1,1,0,0,1,1,1,0,1,1,0,0,1,1,0]","mutagen_history":"[1,0,0,1,1,0,1,1,1,0,0,1,1,1,0,1,1,0,0,1,1,0]","location_rts":"[1582,1148,4625,727,804,2092,777,683,1930,384,705,2866,1185,1217,1303,1103,1174,1588,1121,1522,1514,2011]","trial_type":"fractal-mutation","trial_index":92,"time_elapsed":1958919,"internal_node_id":"0.0-5.0-38.0"},{"group":"hexagon_bi","fractal_assignment":["../images/org_blu.png","../images/cyn_red.png","../images/gry_blk.png","../images/ylw_slt.png","../images/blu_wht.png","../images/pnk_blu.png"],"mutagen_generator_assignment":[0,1],"goal":4,"start":1,"action_noise":0.15,"location_history":"[1,0,5,0,5,4]","action_history":"[1,0,0,0,1]","mutagen_history":"[1,0,0,0,1]","location_rts":"[2553,686,421,707,711]","trial_type":"fractal-mutation","trial_index":93,"time_elapsed":1972659,"internal_node_id":"0.0-5.0-39.0"},{"group":"hexagon_bi","fractal_assignment":["../images/org_blu.png","../images/cyn_red.png","../images/gry_blk.png","../images/ylw_slt.png","../images/blu_wht.png","../images/pnk_blu.png"],"mutagen_generator_assignment":[0,1],"goal":3,"start":4,"action_noise":0.15,"location_history":"[4,5,0,5,0,1,2,3]","action_history":"[1,0,1,1,1,0,1]","mutagen_history":"[1,0,1,1,1,0,1]","location_rts":"[2054,1040,1954,2347,3152,701,1420]","trial_type":"fractal-mutation","trial_index":94,"time_elapsed":1996055,"internal_node_id":"0.0-5.0-40.0"},{"group":"hexagon_bi","fractal_assignment":["../images/org_blu.png","../images/cyn_red.png","../images/gry_blk.png","../images/ylw_slt.png","../images/blu_wht.png","../images/pnk_blu.png"],"mutagen_generator_assignment":[0,1],"goal":2,"start":3,"action_noise":0.15,"location_history":"[3,4,5,4,5,0,1,2]","action_history":"[0,1,1,0,0,1,0]","mutagen_history":"[0,1,1,0,0,1,0]","location_rts":"[1245,956,1135,1614,1542,1116,1373]","trial_type":"fractal-mutation","trial_index":95,"time_elapsed":2015777,"internal_node_id":"0.0-5.0-41.0"},{"group":"hexagon_bi","fractal_assignment":["../images/org_blu.png","../images/cyn_red.png","../images/gry_blk.png","../images/ylw_slt.png","../images/blu_wht.png","../images/pnk_blu.png"],"mutagen_generator_assignment":[0,1],"goal":0,"start":2,"action_noise":0.15,"location_history":"[2,1,0]","action_history":"[0,1]","mutagen_history":"[0,1]","location_rts":"[5227,1483]","trial_type":"fractal-mutation","trial_index":96,"time_elapsed":2028058,"internal_node_id":"0.0-5.0-42.0"},{"group":"hexagon_bi","fractal_assignment":["../images/org_blu.png","../images/cyn_red.png","../images/gry_blk.png","../images/ylw_slt.png","../images/blu_wht.png","../images/pnk_blu.png"],"mutagen_generator_assignment":[0,1],"goal":5,"start":0,"action_noise":0.15,"location_history":"[0,5]","action_history":"[0]","mutagen_history":"[0]","location_rts":"[2374]","trial_type":"fractal-mutation","trial_index":97,"time_elapsed":2034965,"internal_node_id":"0.0-5.0-43.0"},{"group":"hexagon_bi","fractal_assignment":["../images/org_blu.png","../images/cyn_red.png","../images/gry_blk.png","../images/ylw_slt.png","../images/blu_wht.png","../images/pnk_blu.png"],"mutagen_generator_assignment":[0,1],"goal":0,"start":5,"action_noise":0.15,"location_history":"[5,0]","action_history":"[0]","mutagen_history":"[0]","location_rts":"[1602]","trial_type":"fractal-mutation","trial_index":98,"time_elapsed":2041095,"internal_node_id":"0.0-5.0-44.0"},{"group":"hexagon_bi","fractal_assignment":["../images/org_blu.png","../images/cyn_red.png","../images/gry_blk.png","../images/ylw_slt.png","../images/blu_wht.png","../images/pnk_blu.png"],"mutagen_generator_assignment":[0,1],"goal":2,"start":0,"action_noise":0.15,"location_history":"[0,1,2]","action_history":"[1,0]","mutagen_history":"[1,0]","location_rts":"[1826,1009]","trial_type":"fractal-mutation","trial_index":99,"time_elapsed":2049495,"internal_node_id":"0.0-5.0-45.0"},{"group":"hexagon_bi","fractal_assignment":["../images/org_blu.png","../images/cyn_red.png","../images/gry_blk.png","../images/ylw_slt.png","../images/blu_wht.png","../images/pnk_blu.png"],"mutagen_generator_assignment":[0,1],"goal":4,"start":2,"action_noise":0.15,"location_history":"[2,1,0,5,4]","action_history":"[1,1,0,1]","mutagen_history":"[1,1,0,1]","location_rts":"[1590,1923,768,816]","trial_type":"fractal-mutation","trial_index":100,"time_elapsed":2062224,"internal_node_id":"0.0-5.0-46.0"},{"group":"hexagon_bi","fractal_assignment":["../images/org_blu.png","../images/cyn_red.png","../images/gry_blk.png","../images/ylw_slt.png","../images/blu_wht.png","../images/pnk_blu.png"],"mutagen_generator_assignment":[0,1],"goal":1,"start":4,"action_noise":0.15,"location_history":"[4,3,4,5,4,3,4,3,2,3,2,1]","action_history":"[0,0,1,1,1,0,0,1,1,1,0]","mutagen_history":"[0,0,1,1,1,0,0,1,1,1,0]","location_rts":"[2696,1443,678,864,950,569,1157,805,872,891,861]","trial_type":"fractal-mutation","trial_index":101,"time_elapsed":2088883,"internal_node_id":"0.0-5.0-47.0"},{"group":"hexagon_bi","fractal_assignment":["../images/org_blu.png","../images/cyn_red.png","../images/gry_blk.png","../images/ylw_slt.png","../images/blu_wht.png","../images/pnk_blu.png"],"mutagen_generator_assignment":[0,1],"goal":5,"start":1,"action_noise":0.15,"location_history":"[1,2,3,2,3,4,5]","action_history":"[0,1,1,0,0,1]","mutagen_history":"[0,1,1,0,0,1]","location_rts":"[1890,723,873,782,1581,505]","trial_type":"fractal-mutation","trial_index":102,"time_elapsed":2104928,"internal_node_id":"0.0-5.0-48.0"},{"group":"hexagon_bi","fractal_assignment":["../images/org_blu.png","../images/cyn_red.png","../images/gry_blk.png","../images/ylw_slt.png","../images/blu_wht.png","../images/pnk_blu.png"],"mutagen_generator_assignment":[0,1],"goal":3,"start":5,"action_noise":0.15,"location_history":"[5,4,3]","action_history":"[1,0]","mutagen_history":"[1,0]","location_rts":"[2081,1394]","trial_type":"fractal-mutation","trial_index":103,"time_elapsed":2113973,"internal_node_id":"0.0-5.0-49.0"},{"view_history":"[{\"page_index\":0,\"viewing_time\":8462}]","rt":8463,"trial_type":"instructions","trial_index":104,"time_elapsed":2123436,"internal_node_id":"0.0-6.0"},{"rt":36050,"responses":"{\"Q0\":\"A little bit better on the second experiment this time, still not great..\"}","trial_type":"survey-text","trial_index":105,"time_elapsed":2160489,"internal_node_id":"0.0-7.0"}]