[{"view_history":"[{\"page_index\":0,\"viewing_time\":18059},{\"page_index\":1,\"viewing_time\":14006}]","rt":32065,"trial_type":"instructions","trial_index":0,"time_elapsed":32066,"internal_node_id":"0.0-0.0"},{"view_history":"[{\"page_index\":0,\"viewing_time\":2272},{\"page_index\":1,\"viewing_time\":3655}]","rt":5927,"trial_type":"instructions","trial_index":1,"time_elapsed":38995,"internal_node_id":"0.0-1.0"},{"group":"hexagon_tri","room_assignment":["blue","yellow","grey","green","purple","red"],"door_color_assignment":["black","white"],"door_generator_assignment":[1,0],"goal":3,"start":5,"action_noise":0.15,"location_history":"[5,4,0,1,5,4,2,1,3]","action_history":"[0,0,1,1,1,0,0,0]","door_history":"[1,1,0,0,0,1,1,1]","location_rts":"[592,317,268,268,355,319,247,281]","trial_type":"two-door-navigation","trial_index":2,"time_elapsed":53642,"internal_node_id":"0.0-2.0-0.0"},{"group":"hexagon_tri","room_assignment":["blue","yellow","grey","green","purple","red"],"door_color_assignment":["black","white"],"door_generator_assignment":[1,0],"goal":1,"start":3,"action_noise":0.15,"location_history":"[3,2,1]","action_history":"[0,0]","door_history":"[1,1]","location_rts":"[4046,309]","trial_type":"two-door-navigation","trial_index":3,"time_elapsed":63642,"internal_node_id":"0.0-2.0-1.0"},{"group":"hexagon_tri","room_assignment":["blue","yellow","grey","green","purple","red"],"door_color_assignment":["black","white"],"door_generator_assignment":[1,0],"goal":0,"start":1,"action_noise":0.15,"location_history":"[1,5,4,2,1,5,4,0]","action_history":"[1,0,0,0,1,0,0]","door_history":"[0,1,1,1,0,1,1]","location_rts":"[776,80,467,526,341,237,446]","trial_type":"two-door-navigation","trial_index":4,"time_elapsed":77363,"internal_node_id":"0.0-2.0-2.0"},{"group":"hexagon_tri","room_assignment":["blue","yellow","grey","green","purple","red"],"door_color_assignment":["black","white"],"door_generator_assignment":[1,0],"goal":3,"start":0,"action_noise":0.15,"location_history":"[0,5,4,0,1,3]","action_history":"[0,0,0,1,0]","door_history":"[1,1,1,0,1]","location_rts":"[645,170,182,271,658]","trial_type":"two-door-navigation","trial_index":5,"time_elapsed":88094,"internal_node_id":"0.0-2.0-3.0"},{"group":"hexagon_tri","room_assignment":["blue","yellow","grey","green","purple","red"],"door_color_assignment":["black","white"],"door_generator_assignment":[1,0],"goal":4,"start":3,"action_noise":0.15,"location_history":"[3,2,1,5,0,1,5,0,5,4]","action_history":"[0,0,0,1,1,1,1,0,0]","door_history":"[1,1,1,0,0,0,0,1,1]","location_rts":"[5730,294,282,338,227,232,283,280,290]","trial_type":"two-door-navigation","trial_index":6,"time_elapsed":109085,"internal_node_id":"0.0-2.0-4.0"},{"group":"hexagon_tri","room_assignment":["blue","yellow","grey","green","purple","red"],"door_color_assignment":["black","white"],"door_generator_assignment":[1,0],"goal":2,"start":4,"action_noise":0.15,"location_history":"[4,2]","action_history":"[1]","door_history":"[0]","location_rts":"[458]","trial_type":"two-door-navigation","trial_index":7,"time_elapsed":114113,"internal_node_id":"0.0-2.0-5.0"},{"group":"hexagon_tri","room_assignment":["blue","yellow","grey","green","purple","red"],"door_color_assignment":["black","white"],"door_generator_assignment":[1,0],"goal":1,"start":2,"action_noise":0.15,"location_history":"[2,3,2,3,2,3,4,2,3,2,1]","action_history":"[1,0,0,0,1,1,1,1,0,0]","door_history":"[0,1,1,1,0,0,0,0,1,1]","location_rts":"[401,178,306,345,319,466,603,981,231,291]","trial_type":"two-door-navigation","trial_index":8,"time_elapsed":132360,"internal_node_id":"0.0-2.0-6.0"},{"group":"hexagon_tri","room_assignment":["blue","yellow","grey","green","purple","red"],"door_color_assignment":["black","white"],"door_generator_assignment":[1,0],"goal":5,"start":1,"action_noise":0.15,"location_history":"[1,5]","action_history":"[1]","door_history":"[0]","location_rts":"[987]","trial_type":"two-door-navigation","trial_index":9,"time_elapsed":137936,"internal_node_id":"0.0-2.0-7.0"},{"group":"hexagon_tri","room_assignment":["blue","yellow","grey","green","purple","red"],"door_color_assignment":["black","white"],"door_generator_assignment":[1,0],"goal":4,"start":5,"action_noise":0.15,"location_history":"[5,4]","action_history":"[0]","door_history":"[1]","location_rts":"[5355]","trial_type":"two-door-navigation","trial_index":10,"time_elapsed":147854,"internal_node_id":"0.0-2.0-8.0"},{"group":"hexagon_tri","room_assignment":["blue","yellow","grey","green","purple","red"],"door_color_assignment":["black","white"],"door_generator_assignment":[1,0],"goal":2,"start":4,"action_noise":0.15,"location_history":"[4,0,5,4,2]","action_history":"[0,0,0,1]","door_history":"[1,1,1,0]","location_rts":"[611,313,241,285]","trial_type":"two-door-navigation","trial_index":11,"time_elapsed":157031,"internal_node_id":"0.0-2.0-9.0"},{"group":"hexagon_tri","room_assignment":["blue","yellow","grey","green","purple","red"],"door_color_assignment":["black","white"],"door_generator_assignment":[1,0],"goal":0,"start":2,"action_noise":0.15,"location_history":"[2,3,2,3,4,2,1,3,4,0]","action_history":"[0,0,1,1,1,0,0,1,0]","door_history":"[1,1,0,0,0,1,1,0,1]","location_rts":"[604,176,290,175,382,270,157,332,259]","trial_type":"two-door-navigation","trial_index":12,"time_elapsed":172781,"internal_node_id":"0.0-2.0-10.0"},{"group":"hexagon_tri","room_assignment":["blue","yellow","grey","green","purple","red"],"door_color_assignment":["black","white"],"door_generator_assignment":[1,0],"goal":1,"start":0,"action_noise":0.15,"location_history":"[0,5,0,5,4,0,5,4,0,5,4,2,1]","action_history":"[0,1,0,0,0,0,1,0,0,0,1,0]","door_history":"[1,0,1,1,1,1,0,1,1,1,0,1]","location_rts":"[535,520,308,25,307,325,234,93,52,350,301,444]","trial_type":"two-door-navigation","trial_index":13,"time_elapsed":192415,"internal_node_id":"0.0-2.0-11.0"},{"group":"hexagon_tri","room_assignment":["blue","yellow","grey","green","purple","red"],"door_color_assignment":["black","white"],"door_generator_assignment":[1,0],"goal":3,"start":1,"action_noise":0.15,"location_history":"[1,3]","action_history":"[0]","door_history":"[1]","location_rts":"[1061]","trial_type":"two-door-navigation","trial_index":14,"time_elapsed":198054,"internal_node_id":"0.0-2.0-12.0"},{"group":"hexagon_tri","room_assignment":["blue","yellow","grey","green","purple","red"],"door_color_assignment":["black","white"],"door_generator_assignment":[1,0],"goal":5,"start":3,"action_noise":0.15,"location_history":"[3,4,2,3,2,1,5]","action_history":"[0,1,1,0,0,1]","door_history":"[1,0,0,1,1,0]","location_rts":"[376,2930,2514,535,10,505]","trial_type":"two-door-navigation","trial_index":15,"time_elapsed":214777,"internal_node_id":"0.0-2.0-13.0"},{"group":"hexagon_tri","room_assignment":["blue","yellow","grey","green","purple","red"],"door_color_assignment":["black","white"],"door_generator_assignment":[1,0],"goal":4,"start":5,"action_noise":0.15,"location_history":"[5,0,5,4]","action_history":"[1,0,0]","door_history":"[0,1,1]","location_rts":"[356,324,275]","trial_type":"two-door-navigation","trial_index":16,"time_elapsed":222438,"internal_node_id":"0.0-2.0-14.0"},{"group":"hexagon_tri","room_assignment":["blue","yellow","grey","green","purple","red"],"door_color_assignment":["black","white"],"door_generator_assignment":[1,0],"goal":0,"start":4,"action_noise":0.15,"location_history":"[4,0]","action_history":"[0]","door_history":"[1]","location_rts":"[4119]","trial_type":"two-door-navigation","trial_index":17,"time_elapsed":231120,"internal_node_id":"0.0-2.0-15.0"},{"group":"hexagon_tri","room_assignment":["blue","yellow","grey","green","purple","red"],"door_color_assignment":["black","white"],"door_generator_assignment":[1,0],"goal":3,"start":0,"action_noise":0.15,"location_history":"[0,1,3]","action_history":"[1,0]","door_history":"[0,1]","location_rts":"[742,241]","trial_type":"two-door-navigation","trial_index":18,"time_elapsed":237696,"internal_node_id":"0.0-2.0-16.0"},{"group":"hexagon_tri","room_assignment":["blue","yellow","grey","green","purple","red"],"door_color_assignment":["black","white"],"door_generator_assignment":[1,0],"goal":1,"start":3,"action_noise":0.15,"location_history":"[3,2,1]","action_history":"[0,0]","door_history":"[1,1]","location_rts":"[2446,1203]","trial_type":"two-door-navigation","trial_index":19,"time_elapsed":246935,"internal_node_id":"0.0-2.0-17.0"},{"group":"hexagon_tri","room_assignment":["blue","yellow","grey","green","purple","red"],"door_color_assignment":["black","white"],"door_generator_assignment":[1,0],"goal":5,"start":1,"action_noise":0.15,"location_history":"[1,3,4,0,5]","action_history":"[1,1,0,0]","door_history":"[0,0,1,1]","location_rts":"[4119,455,173,157]","trial_type":"two-door-navigation","trial_index":20,"time_elapsed":259558,"internal_node_id":"0.0-2.0-18.0"},{"group":"hexagon_tri","room_assignment":["blue","yellow","grey","green","purple","red"],"door_color_assignment":["black","white"],"door_generator_assignment":[1,0],"goal":2,"start":5,"action_noise":0.15,"location_history":"[5,4,0,1,5,0,1,3,4,0,1,3,2]","action_history":"[0,0,1,1,1,1,0,0,0,1,0,0]","door_history":"[1,1,0,0,0,0,1,1,1,0,1,1]","location_rts":"[440,280,1106,711,2153,1578,1930,150,220,317,58,293]","trial_type":"two-door-navigation","trial_index":21,"time_elapsed":285066,"internal_node_id":"0.0-2.0-19.0"},{"group":"hexagon_tri","room_assignment":["blue","yellow","grey","green","purple","red"],"door_color_assignment":["black","white"],"door_generator_assignment":[1,0],"goal":4,"start":2,"action_noise":0.15,"location_history":"[2,1,5,0,5,0,5,4]","action_history":"[0,1,0,0,1,0,0]","door_history":"[1,0,1,1,0,1,1]","location_rts":"[953,814,206,315,339,36,312]","trial_type":"two-door-navigation","trial_index":22,"time_elapsed":298917,"internal_node_id":"0.0-2.0-20.0"},{"group":"hexagon_tri","room_assignment":["blue","yellow","grey","green","purple","red"],"door_color_assignment":["black","white"],"door_generator_assignment":[1,0],"goal":1,"start":4,"action_noise":0.15,"location_history":"[4,2,1]","action_history":"[1,0]","door_history":"[0,1]","location_rts":"[493,398]","trial_type":"two-door-navigation","trial_index":23,"time_elapsed":305448,"internal_node_id":"0.0-2.0-21.0"},{"group":"hexagon_tri","room_assignment":["blue","yellow","grey","green","purple","red"],"door_color_assignment":["black","white"],"door_generator_assignment":[1,0],"goal":3,"start":1,"action_noise":0.15,"location_history":"[1,3]","action_history":"[0]","door_history":"[1]","location_rts":"[803]","trial_type":"two-door-navigation","trial_index":24,"time_elapsed":310817,"internal_node_id":"0.0-2.0-22.0"},{"group":"hexagon_tri","room_assignment":["blue","yellow","grey","green","purple","red"],"door_color_assignment":["black","white"],"door_generator_assignment":[1,0],"goal":2,"start":3,"action_noise":0.15,"location_history":"[3,4,0,5,4,2]","action_history":"[1,0,0,0,1]","door_history":"[0,1,1,1,0]","location_rts":"[503,289,255,147,279]","trial_type":"two-door-navigation","trial_index":25,"time_elapsed":321121,"internal_node_id":"0.0-2.0-23.0"},{"group":"hexagon_tri","room_assignment":["blue","yellow","grey","green","purple","red"],"door_color_assignment":["black","white"],"door_generator_assignment":[1,0],"goal":0,"start":2,"action_noise":0.15,"location_history":"[2,3,4,2,3,2,1,5,0]","action_history":"[0,1,1,1,0,0,1,1]","door_history":"[1,0,0,0,1,1,0,0]","location_rts":"[3575,92,356,403,38,224,314,105]","trial_type":"two-door-navigation","trial_index":26,"time_elapsed":338191,"internal_node_id":"0.0-2.0-24.0"},{"group":"hexagon_tri","room_assignment":["blue","yellow","grey","green","purple","red"],"door_color_assignment":["black","white"],"door_generator_assignment":[1,0],"goal":5,"start":0,"action_noise":0.15,"location_history":"[0,5]","action_history":"[1]","door_history":"[0]","location_rts":"[481]","trial_type":"two-door-navigation","trial_index":27,"time_elapsed":343225,"internal_node_id":"0.0-2.0-25.0"},{"group":"hexagon_tri","room_assignment":["blue","yellow","grey","green","purple","red"],"door_color_assignment":["black","white"],"door_generator_assignment":[1,0],"goal":2,"start":5,"action_noise":0.15,"location_history":"[5,0,5,0,5,4,0,1,3,2]","action_history":"[1,0,0,0,0,0,1,0,0]","door_history":"[0,1,1,1,1,1,0,1,1]","location_rts":"[1035,128,45,27,443,200,249,290,321]","trial_type":"two-door-navigation","trial_index":28,"time_elapsed":359091,"internal_node_id":"0.0-2.0-26.0"},{"group":"hexagon_tri","room_assignment":["blue","yellow","grey","green","purple","red"],"door_color_assignment":["black","white"],"door_generator_assignment":[1,0],"goal":3,"start":2,"action_noise":0.15,"location_history":"[2,1,3]","action_history":"[0,0]","door_history":"[1,1]","location_rts":"[968,264]","trial_type":"two-door-navigation","trial_index":29,"time_elapsed":365954,"internal_node_id":"0.0-2.0-27.0"},{"group":"hexagon_tri","room_assignment":["blue","yellow","grey","green","purple","red"],"door_color_assignment":["black","white"],"door_generator_assignment":[1,0],"goal":0,"start":3,"action_noise":0.15,"location_history":"[3,4,0]","action_history":"[1,0]","door_history":"[0,1]","location_rts":"[1427,266]","trial_type":"two-door-navigation","trial_index":30,"time_elapsed":373242,"internal_node_id":"0.0-2.0-28.0"},{"group":"hexagon_tri","room_assignment":["blue","yellow","grey","green","purple","red"],"door_color_assignment":["black","white"],"door_generator_assignment":[1,0],"goal":1,"start":0,"action_noise":0.15,"location_history":"[0,5,0,5,4,2,1]","action_history":"[0,1,0,0,1,0]","door_history":"[1,0,1,1,0,1]","location_rts":"[689,761,262,88,328,259]","trial_type":"two-door-navigation","trial_index":31,"time_elapsed":385517,"internal_node_id":"0.0-2.0-29.0"},{"group":"hexagon_tri","room_assignment":["blue","yellow","grey","green","purple","red"],"door_color_assignment":["black","white"],"door_generator_assignment":[1,0],"goal":4,"start":1,"action_noise":0.15,"location_history":"[1,3,2,1,3,2,3,2,3,4]","action_history":"[1,0,0,1,0,1,0,0,1]","door_history":"[0,1,1,0,1,0,1,1,0]","location_rts":"[1596,359,199,252,699,587,323,42,292]","trial_type":"two-door-navigation","trial_index":32,"time_elapsed":402908,"internal_node_id":"0.0-2.0-30.0"},{"group":"hexagon_tri","room_assignment":["blue","yellow","grey","green","purple","red"],"door_color_assignment":["black","white"],"door_generator_assignment":[1,0],"goal":5,"start":4,"action_noise":0.15,"location_history":"[4,0,5]","action_history":"[0,0]","door_history":"[1,1]","location_rts":"[619,248]","trial_type":"two-door-navigation","trial_index":33,"time_elapsed":409402,"internal_node_id":"0.0-2.0-31.0"},{"group":"hexagon_tri","room_assignment":["blue","yellow","grey","green","purple","red"],"door_color_assignment":["black","white"],"door_generator_assignment":[1,0],"goal":0,"start":5,"action_noise":0.15,"location_history":"[5,0]","action_history":"[1]","door_history":"[0]","location_rts":"[955]","trial_type":"two-door-navigation","trial_index":34,"time_elapsed":414913,"internal_node_id":"0.0-2.0-32.0"},{"group":"hexagon_tri","room_assignment":["blue","yellow","grey","green","purple","red"],"door_color_assignment":["black","white"],"door_generator_assignment":[1,0],"goal":3,"start":0,"action_noise":0.15,"location_history":"[0,5,4,0,1,3]","action_history":"[0,0,0,1,0]","door_history":"[1,1,1,0,1]","location_rts":"[1122,301,426,547,302]","trial_type":"two-door-navigation","trial_index":35,"time_elapsed":426401,"internal_node_id":"0.0-2.0-33.0"},{"group":"hexagon_tri","room_assignment":["blue","yellow","grey","green","purple","red"],"door_color_assignment":["black","white"],"door_generator_assignment":[1,0],"goal":1,"start":3,"action_noise":0.15,"location_history":"[3,2,1]","action_history":"[0,0]","door_history":"[1,1]","location_rts":"[775,177]","trial_type":"two-door-navigation","trial_index":36,"time_elapsed":432974,"internal_node_id":"0.0-2.0-34.0"},{"group":"hexagon_tri","room_assignment":["blue","yellow","grey","green","purple","red"],"door_color_assignment":["black","white"],"door_generator_assignment":[1,0],"goal":2,"start":1,"action_noise":0.15,"location_history":"[1,5,0,5,4,0,5,0,5,0,1,5,4,2]","action_history":"[1,0,0,0,1,0,0,1,1,1,1,0,1]","door_history":"[0,1,1,1,0,1,1,0,0,0,0,1,0]","location_rts":"[568,782,111,235,441,604,235,180,278,139,155,150,264]","trial_type":"two-door-navigation","trial_index":37,"time_elapsed":454373,"internal_node_id":"0.0-2.0-35.0"},{"group":"hexagon_tri","room_assignment":["blue","yellow","grey","green","purple","red"],"door_color_assignment":["black","white"],"door_generator_assignment":[1,0],"goal":4,"start":2,"action_noise":0.15,"location_history":"[2,3,2,1,5,4]","action_history":"[1,0,0,1,0]","door_history":"[0,1,1,0,1]","location_rts":"[735,230,129,253,250]","trial_type":"two-door-navigation","trial_index":38,"time_elapsed":464764,"internal_node_id":"0.0-2.0-36.0"},{"group":"hexagon_tri","room_assignment":["blue","yellow","grey","green","purple","red"],"door_color_assignment":["black","white"],"door_generator_assignment":[1,0],"goal":5,"start":4,"action_noise":0.15,"location_history":"[4,0,5]","action_history":"[0,0]","door_history":"[1,1]","location_rts":"[652,221]","trial_type":"two-door-navigation","trial_index":39,"time_elapsed":471296,"internal_node_id":"0.0-2.0-37.0"},{"group":"hexagon_tri","room_assignment":["blue","yellow","grey","green","purple","red"],"door_color_assignment":["black","white"],"door_generator_assignment":[1,0],"goal":1,"start":5,"action_noise":0.15,"location_history":"[5,4,2,1]","action_history":"[0,1,0]","door_history":"[1,0,1]","location_rts":"[687,254,324]","trial_type":"two-door-navigation","trial_index":40,"time_elapsed":479255,"internal_node_id":"0.0-2.0-38.0"},{"group":"hexagon_tri","room_assignment":["blue","yellow","grey","green","purple","red"],"door_color_assignment":["black","white"],"door_generator_assignment":[1,0],"goal":4,"start":1,"action_noise":0.15,"location_history":"[1,3,2,3,2,1,5,4]","action_history":"[0,0,1,0,0,1,0]","door_history":"[1,1,0,1,1,0,1]","location_rts":"[638,242,623,309,413,249,1747]","trial_type":"two-door-navigation","trial_index":41,"time_elapsed":494412,"internal_node_id":"0.0-2.0-39.0"},{"group":"hexagon_tri","room_assignment":["blue","yellow","grey","green","purple","red"],"door_color_assignment":["black","white"],"door_generator_assignment":[1,0],"goal":3,"start":4,"action_noise":0.15,"location_history":"[4,2,3]","action_history":"[1,0]","door_history":"[0,1]","location_rts":"[846,560]","trial_type":"two-door-navigation","trial_index":42,"time_elapsed":501440,"internal_node_id":"0.0-2.0-40.0"},{"group":"hexagon_tri","room_assignment":["blue","yellow","grey","green","purple","red"],"door_color_assignment":["black","white"],"door_generator_assignment":[1,0],"goal":2,"start":3,"action_noise":0.15,"location_history":"[3,2]","action_history":"[0]","door_history":"[1]","location_rts":"[662]","trial_type":"two-door-navigation","trial_index":43,"time_elapsed":506677,"internal_node_id":"0.0-2.0-41.0"},{"group":"hexagon_tri","room_assignment":["blue","yellow","grey","green","purple","red"],"door_color_assignment":["black","white"],"door_generator_assignment":[1,0],"goal":0,"start":2,"action_noise":0.15,"location_history":"[2,1,3,4,0]","action_history":"[0,0,1,0]","door_history":"[1,1,0,1]","location_rts":"[654,359,391,105]","trial_type":"two-door-navigation","trial_index":44,"time_elapsed":515938,"internal_node_id":"0.0-2.0-42.0"},{"group":"hexagon_tri","room_assignment":["blue","yellow","grey","green","purple","red"],"door_color_assignment":["black","white"],"door_generator_assignment":[1,0],"goal":5,"start":0,"action_noise":0.15,"location_history":"[0,1,3,2,1,5]","action_history":"[0,0,0,1,1]","door_history":"[1,1,1,0,0]","location_rts":"[582,239,260,309,546]","trial_type":"two-door-navigation","trial_index":45,"time_elapsed":526693,"internal_node_id":"0.0-2.0-43.0"},{"group":"hexagon_tri","room_assignment":["blue","yellow","grey","green","purple","red"],"door_color_assignment":["black","white"],"door_generator_assignment":[1,0],"goal":0,"start":5,"action_noise":0.15,"location_history":"[5,0]","action_history":"[0]","door_history":"[1]","location_rts":"[482]","trial_type":"two-door-navigation","trial_index":46,"time_elapsed":531754,"internal_node_id":"0.0-2.0-44.0"},{"group":"hexagon_tri","room_assignment":["blue","yellow","grey","green","purple","red"],"door_color_assignment":["black","white"],"door_generator_assignment":[1,0],"goal":2,"start":0,"action_noise":0.15,"location_history":"[0,5,4,0,5,4,0,5,0,1,3,2]","action_history":"[0,0,0,1,0,0,0,1,1,0,0]","door_history":"[1,1,1,0,1,1,1,0,0,1,1]","location_rts":"[630,270,306,510,503,94,118,197,294,521,16]","trial_type":"two-door-navigation","trial_index":47,"time_elapsed":550418,"internal_node_id":"0.0-2.0-45.0"},{"group":"hexagon_tri","room_assignment":["blue","yellow","grey","green","purple","red"],"door_color_assignment":["black","white"],"door_generator_assignment":[1,0],"goal":4,"start":2,"action_noise":0.15,"location_history":"[2,1,5,4]","action_history":"[0,1,0]","door_history":"[1,0,1]","location_rts":"[595,510,338]","trial_type":"two-door-navigation","trial_index":48,"time_elapsed":558549,"internal_node_id":"0.0-2.0-46.0"},{"group":"hexagon_tri","room_assignment":["blue","yellow","grey","green","purple","red"],"door_color_assignment":["black","white"],"door_generator_assignment":[1,0],"goal":1,"start":4,"action_noise":0.15,"location_history":"[4,2,1]","action_history":"[1,0]","door_history":"[0,1]","location_rts":"[1091,879]","trial_type":"two-door-navigation","trial_index":49,"time_elapsed":566155,"internal_node_id":"0.0-2.0-47.0"},{"group":"hexagon_tri","room_assignment":["blue","yellow","grey","green","purple","red"],"door_color_assignment":["black","white"],"door_generator_assignment":[1,0],"goal":5,"start":1,"action_noise":0.15,"location_history":"[1,3,4,2,1,3,4,0,5]","action_history":"[0,1,0,0,0,1,0,0]","door_history":"[1,0,1,1,1,0,1,1]","location_rts":"[814,127,372,254,265,324,97,299]","trial_type":"two-door-navigation","trial_index":50,"time_elapsed":580704,"internal_node_id":"0.0-2.0-48.0"},{"group":"hexagon_tri","room_assignment":["blue","yellow","grey","green","purple","red"],"door_color_assignment":["black","white"],"door_generator_assignment":[1,0],"goal":3,"start":5,"action_noise":0.15,"location_history":"[5,0,5,0,5,0,5,4,0,1,5,4,0,5,4,2,1,5,4,0,5,0,5,0,1,3]","action_history":"[1,0,0,0,1,0,0,0,1,0,0,0,0,1,1,0,0,0,0,0,0,0,0,1,0]","door_history":"[0,1,1,1,0,1,1,1,0,1,1,1,1,0,0,1,1,1,1,1,1,1,1,0,1]","location_rts":"[709,103,57,298,408,19,278,722,216,264,296,322,292,304,575,233,138,348,293,291,323,329,354,771,363]","trial_type":"two-door-navigation","trial_index":51,"time_elapsed":619095,"internal_node_id":"0.0-2.0-49.0"},{"view_history":"[{\"page_index\":0,\"viewing_time\":1664}]","rt":1664,"trial_type":"instructions","trial_index":52,"time_elapsed":621761,"internal_node_id":"0.0-3.0"},{"view_history":"[{\"page_index\":0,\"viewing_time\":1673},{\"page_index\":1,\"viewing_time\":1722}]","rt":3395,"trial_type":"instructions","trial_index":53,"time_elapsed":626156,"internal_node_id":"0.0-4.0"},{"group":"hexagon_tri","fractal_assignment":["../images/org_blu.png","../images/blu_wht.png","../images/pnk_blu.png","../images/cyn_red.png","../images/gry_blk.png","../images/ylw_slt.png"],"mutagen_generator_assignment":[0,1],"goal":3,"start":5,"action_noise":0.15,"location_history":"[5,4,2,1,5,0,5,4,0,5,4,0,1,3]","action_history":"[0,0,0,1,0,0,0,0,0,0,0,1,0]","mutagen_history":"[0,0,0,1,0,0,0,0,0,0,0,1,0]","location_rts":"[5140,188,481,510,495,278,353,417,339,354,926,379,476]","trial_type":"fractal-mutation","trial_index":54,"time_elapsed":653993,"internal_node_id":"0.0-5.0-0.0"},{"group":"hexagon_tri","fractal_assignment":["../images/org_blu.png","../images/blu_wht.png","../images/pnk_blu.png","../images/cyn_red.png","../images/gry_blk.png","../images/ylw_slt.png"],"mutagen_generator_assignment":[0,1],"goal":1,"start":3,"action_noise":0.15,"location_history":"[3,2,1]","action_history":"[1,1]","mutagen_history":"[1,1]","location_rts":"[2165,454]","trial_type":"fractal-mutation","trial_index":55,"time_elapsed":662281,"internal_node_id":"0.0-5.0-1.0"},{"group":"hexagon_tri","fractal_assignment":["../images/org_blu.png","../images/blu_wht.png","../images/pnk_blu.png","../images/cyn_red.png","../images/gry_blk.png","../images/ylw_slt.png"],"mutagen_generator_assignment":[0,1],"goal":0,"start":1,"action_noise":0.15,"location_history":"[1,5,4,0]","action_history":"[1,1,0]","mutagen_history":"[1,1,0]","location_rts":"[221,400,382]","trial_type":"fractal-mutation","trial_index":56,"time_elapsed":670039,"internal_node_id":"0.0-5.0-2.0"},{"group":"hexagon_tri","fractal_assignment":["../images/org_blu.png","../images/blu_wht.png","../images/pnk_blu.png","../images/cyn_red.png","../images/gry_blk.png","../images/ylw_slt.png"],"mutagen_generator_assignment":[0,1],"goal":3,"start":0,"action_noise":0.15,"location_history":"[0,5,0,1,3]","action_history":"[0,1,1,0]","mutagen_history":"[0,1,1,0]","location_rts":"[482,341,360,505]","trial_type":"fractal-mutation","trial_index":57,"time_elapsed":679513,"internal_node_id":"0.0-5.0-3.0"},{"group":"hexagon_tri","fractal_assignment":["../images/org_blu.png","../images/blu_wht.png","../images/pnk_blu.png","../images/cyn_red.png","../images/gry_blk.png","../images/ylw_slt.png"],"mutagen_generator_assignment":[0,1],"goal":4,"start":3,"action_noise":0.15,"location_history":"[3,4]","action_history":"[1]","mutagen_history":"[1]","location_rts":"[620]","trial_type":"fractal-mutation","trial_index":58,"time_elapsed":684729,"internal_node_id":"0.0-5.0-4.0"},{"group":"hexagon_tri","fractal_assignment":["../images/org_blu.png","../images/blu_wht.png","../images/pnk_blu.png","../images/cyn_red.png","../images/gry_blk.png","../images/ylw_slt.png"],"mutagen_generator_assignment":[0,1],"goal":2,"start":4,"action_noise":0.15,"location_history":"[4,0,1,3,2]","action_history":"[1,1,0,0]","mutagen_history":"[1,1,0,0]","location_rts":"[681,331,479,66]","trial_type":"fractal-mutation","trial_index":59,"time_elapsed":694108,"internal_node_id":"0.0-5.0-5.0"},{"group":"hexagon_tri","fractal_assignment":["../images/org_blu.png","../images/blu_wht.png","../images/pnk_blu.png","../images/cyn_red.png","../images/gry_blk.png","../images/ylw_slt.png"],"mutagen_generator_assignment":[0,1],"goal":1,"start":2,"action_noise":0.15,"location_history":"[2,3,4,2,3,2,3,2,3,4,0,1]","action_history":"[1,1,1,1,0,1,1,1,1,0,1]","mutagen_history":"[1,1,1,1,0,1,1,1,1,0,1]","location_rts":"[765,313,476,416,397,324,293,605,322,247,197]","trial_type":"fractal-mutation","trial_index":60,"time_elapsed":713789,"internal_node_id":"0.0-5.0-6.0"},{"group":"hexagon_tri","fractal_assignment":["../images/org_blu.png","../images/blu_wht.png","../images/pnk_blu.png","../images/cyn_red.png","../images/gry_blk.png","../images/ylw_slt.png"],"mutagen_generator_assignment":[0,1],"goal":5,"start":1,"action_noise":0.15,"location_history":"[1,5]","action_history":"[1]","mutagen_history":"[1]","location_rts":"[546]","trial_type":"fractal-mutation","trial_index":61,"time_elapsed":718930,"internal_node_id":"0.0-5.0-7.0"},{"group":"hexagon_tri","fractal_assignment":["../images/org_blu.png","../images/blu_wht.png","../images/pnk_blu.png","../images/cyn_red.png","../images/gry_blk.png","../images/ylw_slt.png"],"mutagen_generator_assignment":[0,1],"goal":4,"start":5,"action_noise":0.15,"location_history":"[5,0,1,5,4]","action_history":"[1,1,1,0]","mutagen_history":"[1,1,1,0]","location_rts":"[1017,335,417,374]","trial_type":"fractal-mutation","trial_index":62,"time_elapsed":728867,"internal_node_id":"0.0-5.0-8.0"},{"group":"hexagon_tri","fractal_assignment":["../images/org_blu.png","../images/blu_wht.png","../images/pnk_blu.png","../images/cyn_red.png","../images/gry_blk.png","../images/ylw_slt.png"],"mutagen_generator_assignment":[0,1],"goal":2,"start":4,"action_noise":0.15,"location_history":"[4,2]","action_history":"[1]","mutagen_history":"[1]","location_rts":"[756]","trial_type":"fractal-mutation","trial_index":63,"time_elapsed":734211,"internal_node_id":"0.0-5.0-9.0"},{"group":"hexagon_tri","fractal_assignment":["../images/org_blu.png","../images/blu_wht.png","../images/pnk_blu.png","../images/cyn_red.png","../images/gry_blk.png","../images/ylw_slt.png"],"mutagen_generator_assignment":[0,1],"goal":0,"start":2,"action_noise":0.15,"location_history":"[2,3,4,0]","action_history":"[1,1,0]","mutagen_history":"[1,1,0]","location_rts":"[474,411,388]","trial_type":"fractal-mutation","trial_index":64,"time_elapsed":742227,"internal_node_id":"0.0-5.0-10.0"},{"group":"hexagon_tri","fractal_assignment":["../images/org_blu.png","../images/blu_wht.png","../images/pnk_blu.png","../images/cyn_red.png","../images/gry_blk.png","../images/ylw_slt.png"],"mutagen_generator_assignment":[0,1],"goal":1,"start":0,"action_noise":0.15,"location_history":"[0,1]","action_history":"[1]","mutagen_history":"[1]","location_rts":"[495]","trial_type":"fractal-mutation","trial_index":65,"time_elapsed":747313,"internal_node_id":"0.0-5.0-11.0"},{"group":"hexagon_tri","fractal_assignment":["../images/org_blu.png","../images/blu_wht.png","../images/pnk_blu.png","../images/cyn_red.png","../images/gry_blk.png","../images/ylw_slt.png"],"mutagen_generator_assignment":[0,1],"goal":3,"start":1,"action_noise":0.15,"location_history":"[1,5,0,1,5,0,1,5,0,5,0,5,0,5,4,2,3]","action_history":"[1,1,1,1,1,1,0,1,0,1,1,1,1,0,1,1]","mutagen_history":"[1,1,1,1,1,1,0,1,0,1,1,1,1,0,1,1]","location_rts":"[536,211,686,177,141,176,406,612,436,326,323,353,376,393,376,325]","trial_type":"fractal-mutation","trial_index":66,"time_elapsed":773851,"internal_node_id":"0.0-5.0-12.0"},{"group":"hexagon_tri","fractal_assignment":["../images/org_blu.png","../images/blu_wht.png","../images/pnk_blu.png","../images/cyn_red.png","../images/gry_blk.png","../images/ylw_slt.png"],"mutagen_generator_assignment":[0,1],"goal":5,"start":3,"action_noise":0.15,"location_history":"[3,4,2,1,5]","action_history":"[1,1,1,0]","mutagen_history":"[1,1,1,0]","location_rts":"[558,291,352,288]","trial_type":"fractal-mutation","trial_index":67,"time_elapsed":783143,"internal_node_id":"0.0-5.0-13.0"},{"group":"hexagon_tri","fractal_assignment":["../images/org_blu.png","../images/blu_wht.png","../images/pnk_blu.png","../images/cyn_red.png","../images/gry_blk.png","../images/ylw_slt.png"],"mutagen_generator_assignment":[0,1],"goal":4,"start":5,"action_noise":0.15,"location_history":"[5,0,1,5,0,1,5,0,5,4]","action_history":"[1,1,0,1,1,1,0,0,0]","mutagen_history":"[1,1,0,1,1,1,0,0,0]","location_rts":"[929,281,402,240,245,424,283,337,314]","trial_type":"fractal-mutation","trial_index":68,"time_elapsed":799794,"internal_node_id":"0.0-5.0-14.0"},{"group":"hexagon_tri","fractal_assignment":["../images/org_blu.png","../images/blu_wht.png","../images/pnk_blu.png","../images/cyn_red.png","../images/gry_blk.png","../images/ylw_slt.png"],"mutagen_generator_assignment":[0,1],"goal":0,"start":4,"action_noise":0.15,"location_history":"[4,2,3,4,2,3,4,0]","action_history":"[1,1,1,1,1,1,0]","mutagen_history":"[1,1,1,1,1,1,0]","location_rts":"[366,165,73,55,155,212,260]","trial_type":"fractal-mutation","trial_index":69,"time_elapsed":812127,"internal_node_id":"0.0-5.0-15.0"},{"group":"hexagon_tri","fractal_assignment":["../images/org_blu.png","../images/blu_wht.png","../images/pnk_blu.png","../images/cyn_red.png","../images/gry_blk.png","../images/ylw_slt.png"],"mutagen_generator_assignment":[0,1],"goal":3,"start":0,"action_noise":0.15,"location_history":"[0,1,3]","action_history":"[1,0]","mutagen_history":"[1,0]","location_rts":"[859,432]","trial_type":"fractal-mutation","trial_index":70,"time_elapsed":819091,"internal_node_id":"0.0-5.0-16.0"},{"group":"hexagon_tri","fractal_assignment":["../images/org_blu.png","../images/blu_wht.png","../images/pnk_blu.png","../images/cyn_red.png","../images/gry_blk.png","../images/ylw_slt.png"],"mutagen_generator_assignment":[0,1],"goal":1,"start":3,"action_noise":0.15,"location_history":"[3,4,2,3,4,0,5,0,5,4,0,1]","action_history":"[1,1,1,0,0,1,1,1,0,1,1]","mutagen_history":"[1,1,1,0,0,1,1,1,0,1,1]","location_rts":"[594,697,416,380,441,278,306,301,313,394,271]","trial_type":"fractal-mutation","trial_index":71,"time_elapsed":838824,"internal_node_id":"0.0-5.0-17.0"},{"group":"hexagon_tri","fractal_assignment":["../images/org_blu.png","../images/blu_wht.png","../images/pnk_blu.png","../images/cyn_red.png","../images/gry_blk.png","../images/ylw_slt.png"],"mutagen_generator_assignment":[0,1],"goal":5,"start":1,"action_noise":0.15,"location_history":"[1,3,2,1,5]","action_history":"[1,0,0,0]","mutagen_history":"[1,0,0,0]","location_rts":"[485,338,433,314]","trial_type":"fractal-mutation","trial_index":72,"time_elapsed":848228,"internal_node_id":"0.0-5.0-18.0"},{"group":"hexagon_tri","fractal_assignment":["../images/org_blu.png","../images/blu_wht.png","../images/pnk_blu.png","../images/cyn_red.png","../images/gry_blk.png","../images/ylw_slt.png"],"mutagen_generator_assignment":[0,1],"goal":2,"start":5,"action_noise":0.15,"location_history":"[5,0,5,4,0,1,5,4,2]","action_history":"[1,0,0,0,1,1,1,1]","mutagen_history":"[1,0,0,0,1,1,1,1]","location_rts":"[684,451,393,281,330,564,266,294]","trial_type":"fractal-mutation","trial_index":73,"time_elapsed":863635,"internal_node_id":"0.0-5.0-19.0"},{"group":"hexagon_tri","fractal_assignment":["../images/org_blu.png","../images/blu_wht.png","../images/pnk_blu.png","../images/cyn_red.png","../images/gry_blk.png","../images/ylw_slt.png"],"mutagen_generator_assignment":[0,1],"goal":4,"start":2,"action_noise":0.15,"location_history":"[2,1,5,4]","action_history":"[1,0,0]","mutagen_history":"[1,0,0]","location_rts":"[487,489,242]","trial_type":"fractal-mutation","trial_index":74,"time_elapsed":871591,"internal_node_id":"0.0-5.0-20.0"},{"group":"hexagon_tri","fractal_assignment":["../images/org_blu.png","../images/blu_wht.png","../images/pnk_blu.png","../images/cyn_red.png","../images/gry_blk.png","../images/ylw_slt.png"],"mutagen_generator_assignment":[0,1],"goal":1,"start":4,"action_noise":0.15,"location_history":"[4,2,1]","action_history":"[1,1]","mutagen_history":"[1,1]","location_rts":"[581,441]","trial_type":"fractal-mutation","trial_index":75,"time_elapsed":878288,"internal_node_id":"0.0-5.0-21.0"},{"group":"hexagon_tri","fractal_assignment":["../images/org_blu.png","../images/blu_wht.png","../images/pnk_blu.png","../images/cyn_red.png","../images/gry_blk.png","../images/ylw_slt.png"],"mutagen_generator_assignment":[0,1],"goal":3,"start":1,"action_noise":0.15,"location_history":"[1,5,0,1,3]","action_history":"[1,1,1,0]","mutagen_history":"[1,1,1,0]","location_rts":"[558,159,464,386]","trial_type":"fractal-mutation","trial_index":76,"time_elapsed":887657,"internal_node_id":"0.0-5.0-22.0"},{"group":"hexagon_tri","fractal_assignment":["../images/org_blu.png","../images/blu_wht.png","../images/pnk_blu.png","../images/cyn_red.png","../images/gry_blk.png","../images/ylw_slt.png"],"mutagen_generator_assignment":[0,1],"goal":2,"start":3,"action_noise":0.15,"location_history":"[3,4,0,1,5,0,5,4,0,1,5,4,0,1,3,2]","action_history":"[1,0,1,1,1,0,0,0,0,1,0,0,1,0,0]","mutagen_history":"[1,0,1,1,1,0,0,0,0,1,0,0,1,0,0]","location_rts":"[732,475,224,262,333,311,537,389,2,329,119,486,388,73,355]","trial_type":"fractal-mutation","trial_index":77,"time_elapsed":912299,"internal_node_id":"0.0-5.0-23.0"},{"group":"hexagon_tri","fractal_assignment":["../images/org_blu.png","../images/blu_wht.png","../images/pnk_blu.png","../images/cyn_red.png","../images/gry_blk.png","../images/ylw_slt.png"],"mutagen_generator_assignment":[0,1],"goal":0,"start":2,"action_noise":0.15,"location_history":"[2,1,3,2,3,2,1,5,0]","action_history":"[1,0,0,0,0,1,1,1]","mutagen_history":"[1,0,0,0,0,1,1,1]","location_rts":"[700,441,231,90,393,248,189,367]","trial_type":"fractal-mutation","trial_index":78,"time_elapsed":927095,"internal_node_id":"0.0-5.0-24.0"},{"group":"hexagon_tri","fractal_assignment":["../images/org_blu.png","../images/blu_wht.png","../images/pnk_blu.png","../images/cyn_red.png","../images/gry_blk.png","../images/ylw_slt.png"],"mutagen_generator_assignment":[0,1],"goal":5,"start":0,"action_noise":0.15,"location_history":"[0,1,3,2,1,5]","action_history":"[1,0,0,0,1]","mutagen_history":"[1,0,0,0,1]","location_rts":"[530,223,378,380,382]","trial_type":"fractal-mutation","trial_index":79,"time_elapsed":937857,"internal_node_id":"0.0-5.0-25.0"},{"group":"hexagon_tri","fractal_assignment":["../images/org_blu.png","../images/blu_wht.png","../images/pnk_blu.png","../images/cyn_red.png","../images/gry_blk.png","../images/ylw_slt.png"],"mutagen_generator_assignment":[0,1],"goal":2,"start":5,"action_noise":0.15,"location_history":"[5,0,1,3,2]","action_history":"[1,0,0,0]","mutagen_history":"[1,0,0,0]","location_rts":"[571,214,227,124]","trial_type":"fractal-mutation","trial_index":80,"time_elapsed":946794,"internal_node_id":"0.0-5.0-26.0"},{"group":"hexagon_tri","fractal_assignment":["../images/org_blu.png","../images/blu_wht.png","../images/pnk_blu.png","../images/cyn_red.png","../images/gry_blk.png","../images/ylw_slt.png"],"mutagen_generator_assignment":[0,1],"goal":3,"start":2,"action_noise":0.15,"location_history":"[2,1,5,4,0,1,3]","action_history":"[0,1,0,0,0,0]","mutagen_history":"[0,1,0,0,0,0]","location_rts":"[521,173,315,174,21,336]","trial_type":"fractal-mutation","trial_index":81,"time_elapsed":958247,"internal_node_id":"0.0-5.0-27.0"},{"group":"hexagon_tri","fractal_assignment":["../images/org_blu.png","../images/blu_wht.png","../images/pnk_blu.png","../images/cyn_red.png","../images/gry_blk.png","../images/ylw_slt.png"],"mutagen_generator_assignment":[0,1],"goal":0,"start":3,"action_noise":0.15,"location_history":"[3,2,3,2,3,4,2,3,2,1,3,4,2,1,5,0]","action_history":"[0,1,1,1,0,0,0,0,0,1,1,1,1,1,1]","mutagen_history":"[0,1,1,1,0,0,0,0,0,1,1,1,1,1,1]","location_rts":"[600,330,568,434,290,340,589,259,366,490,455,346,142,562,162]","trial_type":"fractal-mutation","trial_index":82,"time_elapsed":983803,"internal_node_id":"0.0-5.0-28.0"},{"group":"hexagon_tri","fractal_assignment":["../images/org_blu.png","../images/blu_wht.png","../images/pnk_blu.png","../images/cyn_red.png","../images/gry_blk.png","../images/ylw_slt.png"],"mutagen_generator_assignment":[0,1],"goal":1,"start":0,"action_noise":0.15,"location_history":"[0,1]","action_history":"[1]","mutagen_history":"[1]","location_rts":"[346]","trial_type":"fractal-mutation","trial_index":83,"time_elapsed":988737,"internal_node_id":"0.0-5.0-29.0"},{"group":"hexagon_tri","fractal_assignment":["../images/org_blu.png","../images/blu_wht.png","../images/pnk_blu.png","../images/cyn_red.png","../images/gry_blk.png","../images/ylw_slt.png"],"mutagen_generator_assignment":[0,1],"goal":4,"start":1,"action_noise":0.15,"location_history":"[1,5,4]","action_history":"[1,1]","mutagen_history":"[1,1]","location_rts":"[575,386]","trial_type":"fractal-mutation","trial_index":84,"time_elapsed":995379,"internal_node_id":"0.0-5.0-30.0"},{"group":"hexagon_tri","fractal_assignment":["../images/org_blu.png","../images/blu_wht.png","../images/pnk_blu.png","../images/cyn_red.png","../images/gry_blk.png","../images/ylw_slt.png"],"mutagen_generator_assignment":[0,1],"goal":5,"start":4,"action_noise":0.15,"location_history":"[4,2,3,2,1,3,2,1,5]","action_history":"[1,0,0,0,0,0,0,1]","mutagen_history":"[1,0,0,0,0,0,0,1]","location_rts":"[482,378,150,188,296,333,141,610]","trial_type":"fractal-mutation","trial_index":85,"time_elapsed":1010052,"internal_node_id":"0.0-5.0-31.0"},{"group":"hexagon_tri","fractal_assignment":["../images/org_blu.png","../images/blu_wht.png","../images/pnk_blu.png","../images/cyn_red.png","../images/gry_blk.png","../images/ylw_slt.png"],"mutagen_generator_assignment":[0,1],"goal":0,"start":5,"action_noise":0.15,"location_history":"[5,0]","action_history":"[1]","mutagen_history":"[1]","location_rts":"[509]","trial_type":"fractal-mutation","trial_index":86,"time_elapsed":1015148,"internal_node_id":"0.0-5.0-32.0"},{"group":"hexagon_tri","fractal_assignment":["../images/org_blu.png","../images/blu_wht.png","../images/pnk_blu.png","../images/cyn_red.png","../images/gry_blk.png","../images/ylw_slt.png"],"mutagen_generator_assignment":[0,1],"goal":3,"start":0,"action_noise":0.15,"location_history":"[0,1,3]","action_history":"[1,0]","mutagen_history":"[1,0]","location_rts":"[525,532]","trial_type":"fractal-mutation","trial_index":87,"time_elapsed":1021861,"internal_node_id":"0.0-5.0-33.0"},{"group":"hexagon_tri","fractal_assignment":["../images/org_blu.png","../images/blu_wht.png","../images/pnk_blu.png","../images/cyn_red.png","../images/gry_blk.png","../images/ylw_slt.png"],"mutagen_generator_assignment":[0,1],"goal":1,"start":3,"action_noise":0.15,"location_history":"[3,4,2,3,2,1]","action_history":"[1,1,1,1,0]","mutagen_history":"[1,1,1,1,0]","location_rts":"[561,374,460,683,122]","trial_type":"fractal-mutation","trial_index":88,"time_elapsed":1032975,"internal_node_id":"0.0-5.0-34.0"},{"group":"hexagon_tri","fractal_assignment":["../images/org_blu.png","../images/blu_wht.png","../images/pnk_blu.png","../images/cyn_red.png","../images/gry_blk.png","../images/ylw_slt.png"],"mutagen_generator_assignment":[0,1],"goal":2,"start":1,"action_noise":0.15,"location_history":"[1,5,0,5,4,0,5,4,2]","action_history":"[1,0,0,0,0,0,0,1]","mutagen_history":"[1,0,0,0,0,0,0,1]","location_rts":"[547,172,218,48,53,184,274,189]","trial_type":"fractal-mutation","trial_index":89,"time_elapsed":1046766,"internal_node_id":"0.0-5.0-35.0"},{"group":"hexagon_tri","fractal_assignment":["../images/org_blu.png","../images/blu_wht.png","../images/pnk_blu.png","../images/cyn_red.png","../images/gry_blk.png","../images/ylw_slt.png"],"mutagen_generator_assignment":[0,1],"goal":4,"start":2,"action_noise":0.15,"location_history":"[2,3,4]","action_history":"[1,1]","mutagen_history":"[1,1]","location_rts":"[556,351]","trial_type":"fractal-mutation","trial_index":90,"time_elapsed":1053331,"internal_node_id":"0.0-5.0-36.0"},{"group":"hexagon_tri","fractal_assignment":["../images/org_blu.png","../images/blu_wht.png","../images/pnk_blu.png","../images/cyn_red.png","../images/gry_blk.png","../images/ylw_slt.png"],"mutagen_generator_assignment":[0,1],"goal":5,"start":4,"action_noise":0.15,"location_history":"[4,0,1,3,2,3,4,2,3,2,1,3,2,1,5]","action_history":"[1,1,0,0,1,1,1,0,0,0,0,0,0,1]","mutagen_history":"[1,1,0,0,1,1,1,0,0,0,0,0,0,1]","location_rts":"[633,437,102,402,240,595,224,161,163,25,208,199,47,95]","trial_type":"fractal-mutation","trial_index":91,"time_elapsed":1075349,"internal_node_id":"0.0-5.0-37.0"},{"group":"hexagon_tri","fractal_assignment":["../images/org_blu.png","../images/blu_wht.png","../images/pnk_blu.png","../images/cyn_red.png","../images/gry_blk.png","../images/ylw_slt.png"],"mutagen_generator_assignment":[0,1],"goal":1,"start":5,"action_noise":0.15,"location_history":"[5,0,1]","action_history":"[1,1]","mutagen_history":"[1,1]","location_rts":"[472,255]","trial_type":"fractal-mutation","trial_index":92,"time_elapsed":1081733,"internal_node_id":"0.0-5.0-38.0"},{"group":"hexagon_tri","fractal_assignment":["../images/org_blu.png","../images/blu_wht.png","../images/pnk_blu.png","../images/cyn_red.png","../images/gry_blk.png","../images/ylw_slt.png"],"mutagen_generator_assignment":[0,1],"goal":4,"start":1,"action_noise":0.15,"location_history":"[1,5,0,1,3,4]","action_history":"[1,1,1,0,1]","mutagen_history":"[1,1,1,0,1]","location_rts":"[528,351,273,314,618]","trial_type":"fractal-mutation","trial_index":93,"time_elapsed":1092691,"internal_node_id":"0.0-5.0-39.0"},{"group":"hexagon_tri","fractal_assignment":["../images/org_blu.png","../images/blu_wht.png","../images/pnk_blu.png","../images/cyn_red.png","../images/gry_blk.png","../images/ylw_slt.png"],"mutagen_generator_assignment":[0,1],"goal":3,"start":4,"action_noise":0.15,"location_history":"[4,2,3]","action_history":"[1,1]","mutagen_history":"[1,1]","location_rts":"[333,360]","trial_type":"fractal-mutation","trial_index":94,"time_elapsed":1099060,"internal_node_id":"0.0-5.0-40.0"},{"group":"hexagon_tri","fractal_assignment":["../images/org_blu.png","../images/blu_wht.png","../images/pnk_blu.png","../images/cyn_red.png","../images/gry_blk.png","../images/ylw_slt.png"],"mutagen_generator_assignment":[0,1],"goal":2,"start":3,"action_noise":0.15,"location_history":"[3,4,0,5,4,0,5,0,5,4,2]","action_history":"[1,0,0,0,0,0,1,0,0,0]","mutagen_history":"[1,0,0,0,0,0,1,0,0,0]","location_rts":"[502,225,212,141,63,3,174,208,55,172]","trial_type":"fractal-mutation","trial_index":95,"time_elapsed":1115012,"internal_node_id":"0.0-5.0-41.0"},{"group":"hexagon_tri","fractal_assignment":["../images/org_blu.png","../images/blu_wht.png","../images/pnk_blu.png","../images/cyn_red.png","../images/gry_blk.png","../images/ylw_slt.png"],"mutagen_generator_assignment":[0,1],"goal":0,"start":2,"action_noise":0.15,"location_history":"[2,3,4,0]","action_history":"[1,1,0]","mutagen_history":"[1,1,0]","location_rts":"[486,215,593]","trial_type":"fractal-mutation","trial_index":96,"time_elapsed":1123045,"internal_node_id":"0.0-5.0-42.0"},{"group":"hexagon_tri","fractal_assignment":["../images/org_blu.png","../images/blu_wht.png","../images/pnk_blu.png","../images/cyn_red.png","../images/gry_blk.png","../images/ylw_slt.png"],"mutagen_generator_assignment":[0,1],"goal":5,"start":0,"action_noise":0.15,"location_history":"[0,1,3,2,1,3,4,0,5]","action_history":"[1,0,0,0,1,1,1,0]","mutagen_history":"[1,0,0,0,1,1,1,0]","location_rts":"[441,265,206,180,427,398,204,191]","trial_type":"fractal-mutation","trial_index":97,"time_elapsed":1137478,"internal_node_id":"0.0-5.0-43.0"},{"group":"hexagon_tri","fractal_assignment":["../images/org_blu.png","../images/blu_wht.png","../images/pnk_blu.png","../images/cyn_red.png","../images/gry_blk.png","../images/ylw_slt.png"],"mutagen_generator_assignment":[0,1],"goal":0,"start":5,"action_noise":0.15,"location_history":"[5,4,2,3,4,0]","action_history":"[1,1,1,1,0]","mutagen_history":"[1,1,1,1,0]","location_rts":"[469,329,102,112,247]","trial_type":"fractal-mutation","trial_index":98,"time_elapsed":1147600,"internal_node_id":"0.0-5.0-44.0"},{"group":"hexagon_tri","fractal_assignment":["../images/org_blu.png","../images/blu_wht.png","../images/pnk_blu.png","../images/cyn_red.png","../images/gry_blk.png","../images/ylw_slt.png"],"mutagen_generator_assignment":[0,1],"goal":2,"start":0,"action_noise":0.15,"location_history":"[0,5,4,0,5,4,2]","action_history":"[1,0,0,0,0,1]","mutagen_history":"[1,0,0,0,0,1]","location_rts":"[524,442,112,129,109,49]","trial_type":"fractal-mutation","trial_index":99,"time_elapsed":1158907,"internal_node_id":"0.0-5.0-45.0"},{"group":"hexagon_tri","fractal_assignment":["../images/org_blu.png","../images/blu_wht.png","../images/pnk_blu.png","../images/cyn_red.png","../images/gry_blk.png","../images/ylw_slt.png"],"mutagen_generator_assignment":[0,1],"goal":4,"start":2,"action_noise":0.15,"location_history":"[2,3,4]","action_history":"[1,1]","mutagen_history":"[1,1]","location_rts":"[757,590]","trial_type":"fractal-mutation","trial_index":100,"time_elapsed":1165916,"internal_node_id":"0.0-5.0-46.0"},{"group":"hexagon_tri","fractal_assignment":["../images/org_blu.png","../images/blu_wht.png","../images/pnk_blu.png","../images/cyn_red.png","../images/gry_blk.png","../images/ylw_slt.png"],"mutagen_generator_assignment":[0,1],"goal":1,"start":4,"action_noise":0.15,"location_history":"[4,2,3,4,2,1]","action_history":"[1,1,1,1,0]","mutagen_history":"[1,1,1,1,0]","location_rts":"[8145,172,212,317,1365]","trial_type":"fractal-mutation","trial_index":101,"time_elapsed":1185004,"internal_node_id":"0.0-5.0-47.0"},{"group":"hexagon_tri","fractal_assignment":["../images/org_blu.png","../images/blu_wht.png","../images/pnk_blu.png","../images/cyn_red.png","../images/gry_blk.png","../images/ylw_slt.png"],"mutagen_generator_assignment":[0,1],"goal":5,"start":1,"action_noise":0.15,"location_history":"[1,5]","action_history":"[1]","mutagen_history":"[1]","location_rts":"[607]","trial_type":"fractal-mutation","trial_index":102,"time_elapsed":1190188,"internal_node_id":"0.0-5.0-48.0"},{"group":"hexagon_tri","fractal_assignment":["../images/org_blu.png","../images/blu_wht.png","../images/pnk_blu.png","../images/cyn_red.png","../images/gry_blk.png","../images/ylw_slt.png"],"mutagen_generator_assignment":[0,1],"goal":3,"start":5,"action_noise":0.15,"location_history":"[5,0,1,5,0,5,4,0,5,0,1,3]","action_history":"[1,1,1,1,1,0,0,0,1,1,0]","mutagen_history":"[1,1,1,1,1,0,0,0,1,1,0]","location_rts":"[636,769,154,237,233,139,4,112,215,376,352]","trial_type":"fractal-mutation","trial_index":103,"time_elapsed":1208742,"internal_node_id":"0.0-5.0-49.0"},{"view_history":"[{\"page_index\":0,\"viewing_time\":3908}]","rt":3908,"trial_type":"instructions","trial_index":104,"time_elapsed":1213655,"internal_node_id":"0.0-6.0"},{"rt":1540,"responses":"{\"Q0\":\"\"}","trial_type":"survey-text","trial_index":105,"time_elapsed":1216201,"internal_node_id":"0.0-7.0"}]