[{"view_history":"[{\"page_index\":0,\"viewing_time\":1774},{\"page_index\":1,\"viewing_time\":6032}]","rt":7806,"trial_type":"instructions","trial_index":0,"time_elapsed":7807,"internal_node_id":"0.0-0.0"},{"view_history":"[{\"page_index\":0,\"viewing_time\":1787},{\"page_index\":1,\"viewing_time\":2582}]","rt":4369,"trial_type":"instructions","trial_index":1,"time_elapsed":13178,"internal_node_id":"0.0-1.0"},{"group":"hexagon_bi","room_assignment":["blue","grey","purple","yellow","red","green"],"door_color_assignment":["white","black"],"door_generator_assignment":[0,1],"goal":3,"start":5,"action_noise":0.15,"location_history":"[5,4,5,0,1,2,3]","action_history":"[0,1,0,1,0,1]","door_history":"[0,1,0,1,0,1]","location_rts":"[1426,406,430,535,540,415]","trial_type":"two-door-navigation","trial_index":2,"time_elapsed":26544,"internal_node_id":"0.0-2.0-0.0"},{"group":"hexagon_bi","room_assignment":["blue","grey","purple","yellow","red","green"],"door_color_assignment":["white","black"],"door_generator_assignment":[0,1],"goal":1,"start":3,"action_noise":0.15,"location_history":"[3,4,5,4,5,0,1]","action_history":"[0,1,0,1,0,1]","door_history":"[0,1,0,1,0,1]","location_rts":"[476,402,694,921,407,444]","trial_type":"two-door-navigation","trial_index":3,"time_elapsed":39503,"internal_node_id":"0.0-2.0-1.0"},{"group":"hexagon_bi","room_assignment":["blue","grey","purple","yellow","red","green"],"door_color_assignment":["white","black"],"door_generator_assignment":[0,1],"goal":0,"start":1,"action_noise":0.15,"location_history":"[1,2,3,4,5,0]","action_history":"[0,1,0,1,0]","door_history":"[0,1,0,1,0]","location_rts":"[580,428,417,414,444]","trial_type":"two-door-navigation","trial_index":4,"time_elapsed":50385,"internal_node_id":"0.0-2.0-2.0"},{"group":"hexagon_bi","room_assignment":["blue","grey","purple","yellow","red","green"],"door_color_assignment":["white","black"],"door_generator_assignment":[0,1],"goal":3,"start":0,"action_noise":0.15,"location_history":"[0,1,2,3]","action_history":"[1,0,1]","door_history":"[1,0,1]","location_rts":"[415,540,387]","trial_type":"two-door-navigation","trial_index":5,"time_elapsed":58285,"internal_node_id":"0.0-2.0-3.0"},{"group":"hexagon_bi","room_assignment":["blue","grey","purple","yellow","red","green"],"door_color_assignment":["white","black"],"door_generator_assignment":[0,1],"goal":4,"start":3,"action_noise":0.15,"location_history":"[3,4]","action_history":"[0]","door_history":"[0]","location_rts":"[403]","trial_type":"two-door-navigation","trial_index":6,"time_elapsed":63205,"internal_node_id":"0.0-2.0-4.0"},{"group":"hexagon_bi","room_assignment":["blue","grey","purple","yellow","red","green"],"door_color_assignment":["white","black"],"door_generator_assignment":[0,1],"goal":2,"start":4,"action_noise":0.15,"location_history":"[4,5,0,1,0,1,2]","action_history":"[1,0,1,0,1,0]","door_history":"[1,0,1,0,1,0]","location_rts":"[416,369,537,811,581,978]","trial_type":"two-door-navigation","trial_index":7,"time_elapsed":76506,"internal_node_id":"0.0-2.0-5.0"},{"group":"hexagon_bi","room_assignment":["blue","grey","purple","yellow","red","green"],"door_color_assignment":["white","black"],"door_generator_assignment":[0,1],"goal":1,"start":2,"action_noise":0.15,"location_history":"[2,3,4,3,4,5,0,1]","action_history":"[1,0,1,0,1,0,1]","door_history":"[1,0,1,0,1,0,1]","location_rts":"[497,532,487,418,390,397,1066]","trial_type":"two-door-navigation","trial_index":8,"time_elapsed":90916,"internal_node_id":"0.0-2.0-6.0"},{"group":"hexagon_bi","room_assignment":["blue","grey","purple","yellow","red","green"],"door_color_assignment":["white","black"],"door_generator_assignment":[0,1],"goal":5,"start":1,"action_noise":0.15,"location_history":"[1,2,3,4,5]","action_history":"[0,1,0,1]","door_history":"[0,1,0,1]","location_rts":"[487,527,634,547]","trial_type":"two-door-navigation","trial_index":9,"time_elapsed":100683,"internal_node_id":"0.0-2.0-7.0"},{"group":"hexagon_bi","room_assignment":["blue","grey","purple","yellow","red","green"],"door_color_assignment":["white","black"],"door_generator_assignment":[0,1],"goal":4,"start":5,"action_noise":0.15,"location_history":"[5,4]","action_history":"[1]","door_history":"[1]","location_rts":"[4711]","trial_type":"two-door-navigation","trial_index":10,"time_elapsed":109918,"internal_node_id":"0.0-2.0-8.0"},{"group":"hexagon_bi","room_assignment":["blue","grey","purple","yellow","red","green"],"door_color_assignment":["white","black"],"door_generator_assignment":[0,1],"goal":2,"start":4,"action_noise":0.15,"location_history":"[4,3,2]","action_history":"[0,1]","door_history":"[0,1]","location_rts":"[592,378]","trial_type":"two-door-navigation","trial_index":11,"time_elapsed":116430,"internal_node_id":"0.0-2.0-9.0"},{"group":"hexagon_bi","room_assignment":["blue","grey","purple","yellow","red","green"],"door_color_assignment":["white","black"],"door_generator_assignment":[0,1],"goal":0,"start":2,"action_noise":0.15,"location_history":"[2,3,2,1,0]","action_history":"[0,1,0,1]","door_history":"[0,1,0,1]","location_rts":"[364,365,399,391]","trial_type":"two-door-navigation","trial_index":12,"time_elapsed":125529,"internal_node_id":"0.0-2.0-10.0"},{"group":"hexagon_bi","room_assignment":["blue","grey","purple","yellow","red","green"],"door_color_assignment":["white","black"],"door_generator_assignment":[0,1],"goal":1,"start":0,"action_noise":0.15,"location_history":"[0,5,4,3,4,5,0,1]","action_history":"[0,1,0,0,1,0,1]","door_history":"[0,1,0,0,1,0,1]","location_rts":"[451,407,486,566,434,489,461]","trial_type":"two-door-navigation","trial_index":13,"time_elapsed":139449,"internal_node_id":"0.0-2.0-11.0"},{"group":"hexagon_bi","room_assignment":["blue","grey","purple","yellow","red","green"],"door_color_assignment":["white","black"],"door_generator_assignment":[0,1],"goal":3,"start":1,"action_noise":0.15,"location_history":"[1,2,1,2,1,2,3]","action_history":"[0,1,0,1,0,1]","door_history":"[0,1,0,1,0,1]","location_rts":"[741,479,394,580,266,548]","trial_type":"two-door-navigation","trial_index":14,"time_elapsed":152067,"internal_node_id":"0.0-2.0-12.0"},{"group":"hexagon_bi","room_assignment":["blue","grey","purple","yellow","red","green"],"door_color_assignment":["white","black"],"door_generator_assignment":[0,1],"goal":5,"start":3,"action_noise":0.15,"location_history":"[3,4,5]","action_history":"[0,1]","door_history":"[0,1]","location_rts":"[404,396]","trial_type":"two-door-navigation","trial_index":15,"time_elapsed":159170,"internal_node_id":"0.0-2.0-13.0"},{"group":"hexagon_bi","room_assignment":["blue","grey","purple","yellow","red","green"],"door_color_assignment":["white","black"],"door_generator_assignment":[0,1],"goal":4,"start":5,"action_noise":0.15,"location_history":"[5,0,1,2,3,4]","action_history":"[0,1,0,1,0]","door_history":"[0,1,0,1,0]","location_rts":"[923,380,366,369,480]","trial_type":"two-door-navigation","trial_index":16,"time_elapsed":171190,"internal_node_id":"0.0-2.0-14.0"},{"group":"hexagon_bi","room_assignment":["blue","grey","purple","yellow","red","green"],"door_color_assignment":["white","black"],"door_generator_assignment":[0,1],"goal":0,"start":4,"action_noise":0.15,"location_history":"[4,5,0]","action_history":"[1,0]","door_history":"[1,0]","location_rts":"[423,340]","trial_type":"two-door-navigation","trial_index":17,"time_elapsed":177489,"internal_node_id":"0.0-2.0-15.0"},{"group":"hexagon_bi","room_assignment":["blue","grey","purple","yellow","red","green"],"door_color_assignment":["white","black"],"door_generator_assignment":[0,1],"goal":3,"start":0,"action_noise":0.15,"location_history":"[0,1,2,3]","action_history":"[1,0,1]","door_history":"[1,0,1]","location_rts":"[451,345,359]","trial_type":"two-door-navigation","trial_index":18,"time_elapsed":185195,"internal_node_id":"0.0-2.0-16.0"},{"group":"hexagon_bi","room_assignment":["blue","grey","purple","yellow","red","green"],"door_color_assignment":["white","black"],"door_generator_assignment":[0,1],"goal":1,"start":3,"action_noise":0.15,"location_history":"[3,4,3,2,3,4,5,0,1]","action_history":"[0,1,0,1,0,1,0,1]","door_history":"[0,1,0,1,0,1,0,1]","location_rts":"[659,1020,415,611,460,465,415,476]","trial_type":"two-door-navigation","trial_index":19,"time_elapsed":201356,"internal_node_id":"0.0-2.0-17.0"},{"group":"hexagon_bi","room_assignment":["blue","grey","purple","yellow","red","green"],"door_color_assignment":["white","black"],"door_generator_assignment":[0,1],"goal":5,"start":1,"action_noise":0.15,"location_history":"[1,2,3,4,3,4,5]","action_history":"[0,1,0,1,0,1]","door_history":"[0,1,0,1,0,1]","location_rts":"[397,444,380,519,417,410]","trial_type":"two-door-navigation","trial_index":20,"time_elapsed":213538,"internal_node_id":"0.0-2.0-18.0"},{"group":"hexagon_bi","room_assignment":["blue","grey","purple","yellow","red","green"],"door_color_assignment":["white","black"],"door_generator_assignment":[0,1],"goal":2,"start":5,"action_noise":0.15,"location_history":"[5,0,1,2]","action_history":"[0,1,0]","door_history":"[0,1,0]","location_rts":"[365,365,415]","trial_type":"two-door-navigation","trial_index":21,"time_elapsed":221242,"internal_node_id":"0.0-2.0-19.0"},{"group":"hexagon_bi","room_assignment":["blue","grey","purple","yellow","red","green"],"door_color_assignment":["white","black"],"door_generator_assignment":[0,1],"goal":4,"start":2,"action_noise":0.15,"location_history":"[2,3,4]","action_history":"[1,0]","door_history":"[1,0]","location_rts":"[374,444]","trial_type":"two-door-navigation","trial_index":22,"time_elapsed":227591,"internal_node_id":"0.0-2.0-20.0"},{"group":"hexagon_bi","room_assignment":["blue","grey","purple","yellow","red","green"],"door_color_assignment":["white","black"],"door_generator_assignment":[0,1],"goal":1,"start":4,"action_noise":0.15,"location_history":"[4,3,4,5,4,5,0,1]","action_history":"[1,0,1,0,1,0,1]","door_history":"[1,0,1,0,1,0,1]","location_rts":"[428,409,431,635,625,605,455]","trial_type":"two-door-navigation","trial_index":23,"time_elapsed":241798,"internal_node_id":"0.0-2.0-21.0"},{"group":"hexagon_bi","room_assignment":["blue","grey","purple","yellow","red","green"],"door_color_assignment":["white","black"],"door_generator_assignment":[0,1],"goal":3,"start":1,"action_noise":0.15,"location_history":"[1,2,1,2,1,2,3]","action_history":"[0,1,0,1,0,1]","door_history":"[0,1,0,1,0,1]","location_rts":"[395,338,384,456,477,497]","trial_type":"two-door-navigation","trial_index":24,"time_elapsed":253952,"internal_node_id":"0.0-2.0-22.0"},{"group":"hexagon_bi","room_assignment":["blue","grey","purple","yellow","red","green"],"door_color_assignment":["white","black"],"door_generator_assignment":[0,1],"goal":2,"start":3,"action_noise":0.15,"location_history":"[3,4,5,0,1,2]","action_history":"[0,1,0,1,0]","door_history":"[0,1,0,1,0]","location_rts":"[481,394,804,376,522]","trial_type":"two-door-navigation","trial_index":25,"time_elapsed":265116,"internal_node_id":"0.0-2.0-23.0"},{"group":"hexagon_bi","room_assignment":["blue","grey","purple","yellow","red","green"],"door_color_assignment":["white","black"],"door_generator_assignment":[0,1],"goal":0,"start":2,"action_noise":0.15,"location_history":"[2,3,2,3,4,5,0]","action_history":"[1,0,1,0,1,0]","door_history":"[1,0,1,0,1,0]","location_rts":"[411,409,436,453,511,487]","trial_type":"two-door-navigation","trial_index":26,"time_elapsed":277454,"internal_node_id":"0.0-2.0-24.0"},{"group":"hexagon_bi","room_assignment":["blue","grey","purple","yellow","red","green"],"door_color_assignment":["white","black"],"door_generator_assignment":[0,1],"goal":5,"start":0,"action_noise":0.15,"location_history":"[0,5]","action_history":"[1]","door_history":"[1]","location_rts":"[343]","trial_type":"two-door-navigation","trial_index":27,"time_elapsed":282335,"internal_node_id":"0.0-2.0-25.0"},{"group":"hexagon_bi","room_assignment":["blue","grey","purple","yellow","red","green"],"door_color_assignment":["white","black"],"door_generator_assignment":[0,1],"goal":2,"start":5,"action_noise":0.15,"location_history":"[5,0,5,0,1,2]","action_history":"[0,1,0,1,0]","door_history":"[0,1,0,1,0]","location_rts":"[413,523,502,492,403]","trial_type":"two-door-navigation","trial_index":28,"time_elapsed":293252,"internal_node_id":"0.0-2.0-26.0"},{"group":"hexagon_bi","room_assignment":["blue","grey","purple","yellow","red","green"],"door_color_assignment":["white","black"],"door_generator_assignment":[0,1],"goal":3,"start":2,"action_noise":0.15,"location_history":"[2,3]","action_history":"[1]","door_history":"[1]","location_rts":"[486]","trial_type":"two-door-navigation","trial_index":29,"time_elapsed":298261,"internal_node_id":"0.0-2.0-27.0"},{"group":"hexagon_bi","room_assignment":["blue","grey","purple","yellow","red","green"],"door_color_assignment":["white","black"],"door_generator_assignment":[0,1],"goal":0,"start":3,"action_noise":0.15,"location_history":"[3,4,5,0]","action_history":"[0,1,0]","door_history":"[0,1,0]","location_rts":"[413,337,396]","trial_type":"two-door-navigation","trial_index":30,"time_elapsed":305961,"internal_node_id":"0.0-2.0-28.0"},{"group":"hexagon_bi","room_assignment":["blue","grey","purple","yellow","red","green"],"door_color_assignment":["white","black"],"door_generator_assignment":[0,1],"goal":1,"start":0,"action_noise":0.15,"location_history":"[0,1]","action_history":"[1]","door_history":"[1]","location_rts":"[419]","trial_type":"two-door-navigation","trial_index":31,"time_elapsed":310898,"internal_node_id":"0.0-2.0-29.0"},{"group":"hexagon_bi","room_assignment":["blue","grey","purple","yellow","red","green"],"door_color_assignment":["white","black"],"door_generator_assignment":[0,1],"goal":4,"start":1,"action_noise":0.15,"location_history":"[1,2,1,2,3,2,3,4]","action_history":"[0,1,0,1,0,1,0]","door_history":"[0,1,0,1,0,1,0]","location_rts":"[433,359,379,402,320,618,495]","trial_type":"two-door-navigation","trial_index":32,"time_elapsed":324532,"internal_node_id":"0.0-2.0-30.0"},{"group":"hexagon_bi","room_assignment":["blue","grey","purple","yellow","red","green"],"door_color_assignment":["white","black"],"door_generator_assignment":[0,1],"goal":5,"start":4,"action_noise":0.15,"location_history":"[4,5]","action_history":"[1]","door_history":"[1]","location_rts":"[381]","trial_type":"two-door-navigation","trial_index":33,"time_elapsed":329433,"internal_node_id":"0.0-2.0-31.0"},{"group":"hexagon_bi","room_assignment":["blue","grey","purple","yellow","red","green"],"door_color_assignment":["white","black"],"door_generator_assignment":[0,1],"goal":0,"start":5,"action_noise":0.15,"location_history":"[5,4,5,0]","action_history":"[0,1,0]","door_history":"[0,1,0]","location_rts":"[448,385,386]","trial_type":"two-door-navigation","trial_index":34,"time_elapsed":337212,"internal_node_id":"0.0-2.0-32.0"},{"group":"hexagon_bi","room_assignment":["blue","grey","purple","yellow","red","green"],"door_color_assignment":["white","black"],"door_generator_assignment":[0,1],"goal":3,"start":0,"action_noise":0.15,"location_history":"[0,1,2,3]","action_history":"[1,0,1]","door_history":"[1,0,1]","location_rts":"[443,451,352]","trial_type":"two-door-navigation","trial_index":35,"time_elapsed":345012,"internal_node_id":"0.0-2.0-33.0"},{"group":"hexagon_bi","room_assignment":["blue","grey","purple","yellow","red","green"],"door_color_assignment":["white","black"],"door_generator_assignment":[0,1],"goal":1,"start":3,"action_noise":0.15,"location_history":"[3,4,3,2,3,4,5,0,1]","action_history":"[0,1,0,1,0,1,0,1]","door_history":"[0,1,0,1,0,1,0,1]","location_rts":"[408,374,414,581,549,386,337,447]","trial_type":"two-door-navigation","trial_index":36,"time_elapsed":360157,"internal_node_id":"0.0-2.0-34.0"},{"group":"hexagon_bi","room_assignment":["blue","grey","purple","yellow","red","green"],"door_color_assignment":["white","black"],"door_generator_assignment":[0,1],"goal":2,"start":1,"action_noise":0.15,"location_history":"[1,2]","action_history":"[0]","door_history":"[0]","location_rts":"[387]","trial_type":"two-door-navigation","trial_index":37,"time_elapsed":365066,"internal_node_id":"0.0-2.0-35.0"},{"group":"hexagon_bi","room_assignment":["blue","grey","purple","yellow","red","green"],"door_color_assignment":["white","black"],"door_generator_assignment":[0,1],"goal":4,"start":2,"action_noise":0.15,"location_history":"[2,3,4]","action_history":"[1,0]","door_history":"[1,0]","location_rts":"[371,372]","trial_type":"two-door-navigation","trial_index":38,"time_elapsed":371353,"internal_node_id":"0.0-2.0-36.0"},{"group":"hexagon_bi","room_assignment":["blue","grey","purple","yellow","red","green"],"door_color_assignment":["white","black"],"door_generator_assignment":[0,1],"goal":5,"start":4,"action_noise":0.15,"location_history":"[4,5]","action_history":"[1]","door_history":"[1]","location_rts":"[397]","trial_type":"two-door-navigation","trial_index":39,"time_elapsed":376272,"internal_node_id":"0.0-2.0-37.0"},{"group":"hexagon_bi","room_assignment":["blue","grey","purple","yellow","red","green"],"door_color_assignment":["white","black"],"door_generator_assignment":[0,1],"goal":1,"start":5,"action_noise":0.15,"location_history":"[5,0,1]","action_history":"[0,1]","door_history":"[0,1]","location_rts":"[663,487]","trial_type":"two-door-navigation","trial_index":40,"time_elapsed":382962,"internal_node_id":"0.0-2.0-38.0"},{"group":"hexagon_bi","room_assignment":["blue","grey","purple","yellow","red","green"],"door_color_assignment":["white","black"],"door_generator_assignment":[0,1],"goal":4,"start":1,"action_noise":0.15,"location_history":"[1,0,1,2,1,2,3,2,1,0,1,2,3,2,3,4]","action_history":"[0,1,0,1,0,1,0,1,0,1,0,1,0,1,0]","door_history":"[0,1,0,1,0,1,0,1,0,1,0,1,0,1,0]","location_rts":"[438,161,507,563,856,427,406,408,455,428,519,604,405,430,490]","trial_type":"two-door-navigation","trial_index":41,"time_elapsed":408827,"internal_node_id":"0.0-2.0-39.0"},{"group":"hexagon_bi","room_assignment":["blue","grey","purple","yellow","red","green"],"door_color_assignment":["white","black"],"door_generator_assignment":[0,1],"goal":3,"start":4,"action_noise":0.15,"location_history":"[4,5,4,5,0,5,0,1,0,1,0,1,0,1,2,3]","action_history":"[1,0,1,0,1,0,1,0,1,0,1,0,1,0,1]","door_history":"[1,0,1,0,1,0,1,0,1,0,1,0,1,0,1]","location_rts":"[546,465,606,530,703,520,783,443,400,407,1280,433,472,462,547]","trial_type":"two-door-navigation","trial_index":42,"time_elapsed":436185,"internal_node_id":"0.0-2.0-40.0"},{"group":"hexagon_bi","room_assignment":["blue","grey","purple","yellow","red","green"],"door_color_assignment":["white","black"],"door_generator_assignment":[0,1],"goal":2,"start":3,"action_noise":0.15,"location_history":"[3,4,5,0,1,2]","action_history":"[0,1,0,1,0]","door_history":"[0,1,0,1,0]","location_rts":"[478,350,778,581,348]","trial_type":"two-door-navigation","trial_index":43,"time_elapsed":447304,"internal_node_id":"0.0-2.0-41.0"},{"group":"hexagon_bi","room_assignment":["blue","grey","purple","yellow","red","green"],"door_color_assignment":["white","black"],"door_generator_assignment":[0,1],"goal":0,"start":2,"action_noise":0.15,"location_history":"[2,3,4,5,0]","action_history":"[1,0,1,0]","door_history":"[1,0,1,0]","location_rts":"[517,457,368,472]","trial_type":"two-door-navigation","trial_index":44,"time_elapsed":456692,"internal_node_id":"0.0-2.0-42.0"},{"group":"hexagon_bi","room_assignment":["blue","grey","purple","yellow","red","green"],"door_color_assignment":["white","black"],"door_generator_assignment":[0,1],"goal":5,"start":0,"action_noise":0.15,"location_history":"[0,1,0,5]","action_history":"[1,0,1]","door_history":"[1,0,1]","location_rts":"[460,265,451]","trial_type":"two-door-navigation","trial_index":45,"time_elapsed":464423,"internal_node_id":"0.0-2.0-43.0"},{"group":"hexagon_bi","room_assignment":["blue","grey","purple","yellow","red","green"],"door_color_assignment":["white","black"],"door_generator_assignment":[0,1],"goal":0,"start":5,"action_noise":0.15,"location_history":"[5,4,5,0]","action_history":"[0,1,0]","door_history":"[0,1,0]","location_rts":"[475,408,408]","trial_type":"two-door-navigation","trial_index":46,"time_elapsed":472271,"internal_node_id":"0.0-2.0-44.0"},{"group":"hexagon_bi","room_assignment":["blue","grey","purple","yellow","red","green"],"door_color_assignment":["white","black"],"door_generator_assignment":[0,1],"goal":2,"start":0,"action_noise":0.15,"location_history":"[0,1,2]","action_history":"[1,0]","door_history":"[1,0]","location_rts":"[742,405]","trial_type":"two-door-navigation","trial_index":47,"time_elapsed":478960,"internal_node_id":"0.0-2.0-45.0"},{"group":"hexagon_bi","room_assignment":["blue","grey","purple","yellow","red","green"],"door_color_assignment":["white","black"],"door_generator_assignment":[0,1],"goal":4,"start":2,"action_noise":0.15,"location_history":"[2,3,2,3,4]","action_history":"[1,0,1,0]","door_history":"[1,0,1,0]","location_rts":"[389,422,463,418]","trial_type":"two-door-navigation","trial_index":48,"time_elapsed":488226,"internal_node_id":"0.0-2.0-46.0"},{"group":"hexagon_bi","room_assignment":["blue","grey","purple","yellow","red","green"],"door_color_assignment":["white","black"],"door_generator_assignment":[0,1],"goal":1,"start":4,"action_noise":0.15,"location_history":"[4,5,0,1]","action_history":"[1,0,1]","door_history":"[1,0,1]","location_rts":"[493,415,445]","trial_type":"two-door-navigation","trial_index":49,"time_elapsed":496132,"internal_node_id":"0.0-2.0-47.0"},{"group":"hexagon_bi","room_assignment":["blue","grey","purple","yellow","red","green"],"door_color_assignment":["white","black"],"door_generator_assignment":[0,1],"goal":5,"start":1,"action_noise":0.15,"location_history":"[1,2,3,4,3,2,1,2,1,0,5]","action_history":"[0,1,0,0,1,0,1,0,1,0]","door_history":"[0,1,0,0,1,0,1,0,1,0]","location_rts":"[532,487,469,892,588,823,366,406,351,1215]","trial_type":"two-door-navigation","trial_index":50,"time_elapsed":515939,"internal_node_id":"0.0-2.0-48.0"},{"group":"hexagon_bi","room_assignment":["blue","grey","purple","yellow","red","green"],"door_color_assignment":["white","black"],"door_generator_assignment":[0,1],"goal":3,"start":5,"action_noise":0.15,"location_history":"[5,4,3]","action_history":"[1,0]","door_history":"[1,0]","location_rts":"[491,567]","trial_type":"two-door-navigation","trial_index":51,"time_elapsed":522538,"internal_node_id":"0.0-2.0-49.0"},{"view_history":"[{\"page_index\":0,\"viewing_time\":1678}]","rt":1679,"trial_type":"instructions","trial_index":52,"time_elapsed":525218,"internal_node_id":"0.0-3.0"},{"view_history":"[{\"page_index\":0,\"viewing_time\":1477},{\"page_index\":1,\"viewing_time\":2023}]","rt":3501,"trial_type":"instructions","trial_index":53,"time_elapsed":529720,"internal_node_id":"0.0-4.0"},{"group":"hexagon_bi","fractal_assignment":["../images/cyn_red.png","../images/ylw_slt.png","../images/gry_blk.png","../images/pnk_blu.png","../images/org_blu.png","../images/blu_wht.png"],"mutagen_generator_assignment":[1,0],"goal":3,"start":5,"action_noise":0.15,"location_history":"[5,4,3]","action_history":"[1,0]","mutagen_history":"[0,1]","location_rts":"[6419,127]","trial_type":"fractal-mutation","trial_index":54,"time_elapsed":541967,"internal_node_id":"0.0-5.0-0.0"},{"group":"hexagon_bi","fractal_assignment":["../images/cyn_red.png","../images/ylw_slt.png","../images/gry_blk.png","../images/pnk_blu.png","../images/org_blu.png","../images/blu_wht.png"],"mutagen_generator_assignment":[1,0],"goal":1,"start":3,"action_noise":0.15,"location_history":"[3,4,3,2,1]","action_history":"[1,0,1,0]","mutagen_history":"[0,1,0,1]","location_rts":"[321,513,614,351]","trial_type":"fractal-mutation","trial_index":55,"time_elapsed":551634,"internal_node_id":"0.0-5.0-1.0"},{"group":"hexagon_bi","fractal_assignment":["../images/cyn_red.png","../images/ylw_slt.png","../images/gry_blk.png","../images/pnk_blu.png","../images/org_blu.png","../images/blu_wht.png"],"mutagen_generator_assignment":[1,0],"goal":0,"start":1,"action_noise":0.15,"location_history":"[1,0]","action_history":"[1]","mutagen_history":"[0]","location_rts":"[378]","trial_type":"fractal-mutation","trial_index":56,"time_elapsed":556585,"internal_node_id":"0.0-5.0-2.0"},{"group":"hexagon_bi","fractal_assignment":["../images/cyn_red.png","../images/ylw_slt.png","../images/gry_blk.png","../images/pnk_blu.png","../images/org_blu.png","../images/blu_wht.png"],"mutagen_generator_assignment":[1,0],"goal":3,"start":0,"action_noise":0.15,"location_history":"[0,1,2,1,2,3]","action_history":"[1,0,1,0,1]","mutagen_history":"[0,1,0,1,0]","location_rts":"[328,351,335,434,317]","trial_type":"fractal-mutation","trial_index":57,"time_elapsed":567262,"internal_node_id":"0.0-5.0-3.0"},{"group":"hexagon_bi","fractal_assignment":["../images/cyn_red.png","../images/ylw_slt.png","../images/gry_blk.png","../images/pnk_blu.png","../images/org_blu.png","../images/blu_wht.png"],"mutagen_generator_assignment":[1,0],"goal":4,"start":3,"action_noise":0.15,"location_history":"[3,4]","action_history":"[1]","mutagen_history":"[0]","location_rts":"[301]","trial_type":"fractal-mutation","trial_index":58,"time_elapsed":572127,"internal_node_id":"0.0-5.0-4.0"},{"group":"hexagon_bi","fractal_assignment":["../images/cyn_red.png","../images/ylw_slt.png","../images/gry_blk.png","../images/pnk_blu.png","../images/org_blu.png","../images/blu_wht.png"],"mutagen_generator_assignment":[1,0],"goal":2,"start":4,"action_noise":0.15,"location_history":"[4,5,0,1,0,1,2]","action_history":"[1,0,1,0,1,0]","mutagen_history":"[0,1,0,1,0,1]","location_rts":"[324,270,417,399,346,475]","trial_type":"fractal-mutation","trial_index":59,"time_elapsed":584388,"internal_node_id":"0.0-5.0-5.0"},{"group":"hexagon_bi","fractal_assignment":["../images/cyn_red.png","../images/ylw_slt.png","../images/gry_blk.png","../images/pnk_blu.png","../images/org_blu.png","../images/blu_wht.png"],"mutagen_generator_assignment":[1,0],"goal":1,"start":2,"action_noise":0.15,"location_history":"[2,1]","action_history":"[1]","mutagen_history":"[0]","location_rts":"[388]","trial_type":"fractal-mutation","trial_index":60,"time_elapsed":589344,"internal_node_id":"0.0-5.0-6.0"},{"group":"hexagon_bi","fractal_assignment":["../images/cyn_red.png","../images/ylw_slt.png","../images/gry_blk.png","../images/pnk_blu.png","../images/org_blu.png","../images/blu_wht.png"],"mutagen_generator_assignment":[1,0],"goal":5,"start":1,"action_noise":0.15,"location_history":"[1,0,5]","action_history":"[1,0]","mutagen_history":"[0,1]","location_rts":"[398,326]","trial_type":"fractal-mutation","trial_index":61,"time_elapsed":595747,"internal_node_id":"0.0-5.0-7.0"},{"group":"hexagon_bi","fractal_assignment":["../images/cyn_red.png","../images/ylw_slt.png","../images/gry_blk.png","../images/pnk_blu.png","../images/org_blu.png","../images/blu_wht.png"],"mutagen_generator_assignment":[1,0],"goal":4,"start":5,"action_noise":0.15,"location_history":"[5,4]","action_history":"[1]","mutagen_history":"[0]","location_rts":"[367]","trial_type":"fractal-mutation","trial_index":62,"time_elapsed":600689,"internal_node_id":"0.0-5.0-8.0"},{"group":"hexagon_bi","fractal_assignment":["../images/cyn_red.png","../images/ylw_slt.png","../images/gry_blk.png","../images/pnk_blu.png","../images/org_blu.png","../images/blu_wht.png"],"mutagen_generator_assignment":[1,0],"goal":2,"start":4,"action_noise":0.15,"location_history":"[4,3,4,5,0,1,2]","action_history":"[1,0,1,0,1,0]","mutagen_history":"[0,1,0,1,0,1]","location_rts":"[471,577,1548,1119,838,469]","trial_type":"fractal-mutation","trial_index":63,"time_elapsed":615736,"internal_node_id":"0.0-5.0-9.0"},{"group":"hexagon_bi","fractal_assignment":["../images/cyn_red.png","../images/ylw_slt.png","../images/gry_blk.png","../images/pnk_blu.png","../images/org_blu.png","../images/blu_wht.png"],"mutagen_generator_assignment":[1,0],"goal":0,"start":2,"action_noise":0.15,"location_history":"[2,3,4,5,0]","action_history":"[1,0,1,0]","mutagen_history":"[0,1,0,1]","location_rts":"[413,555,468,507]","trial_type":"fractal-mutation","trial_index":64,"time_elapsed":625528,"internal_node_id":"0.0-5.0-10.0"},{"group":"hexagon_bi","fractal_assignment":["../images/cyn_red.png","../images/ylw_slt.png","../images/gry_blk.png","../images/pnk_blu.png","../images/org_blu.png","../images/blu_wht.png"],"mutagen_generator_assignment":[1,0],"goal":1,"start":0,"action_noise":0.15,"location_history":"[0,5,0,1]","action_history":"[1,0,1]","mutagen_history":"[0,1,0]","location_rts":"[499,408,294]","trial_type":"fractal-mutation","trial_index":65,"time_elapsed":633465,"internal_node_id":"0.0-5.0-11.0"},{"group":"hexagon_bi","fractal_assignment":["../images/cyn_red.png","../images/ylw_slt.png","../images/gry_blk.png","../images/pnk_blu.png","../images/org_blu.png","../images/blu_wht.png"],"mutagen_generator_assignment":[1,0],"goal":3,"start":1,"action_noise":0.15,"location_history":"[1,0,5,4,3]","action_history":"[1,0,1,0]","mutagen_history":"[0,1,0,1]","location_rts":"[374,433,343,382]","trial_type":"fractal-mutation","trial_index":66,"time_elapsed":642846,"internal_node_id":"0.0-5.0-12.0"},{"group":"hexagon_bi","fractal_assignment":["../images/cyn_red.png","../images/ylw_slt.png","../images/gry_blk.png","../images/pnk_blu.png","../images/org_blu.png","../images/blu_wht.png"],"mutagen_generator_assignment":[1,0],"goal":5,"start":3,"action_noise":0.15,"location_history":"[3,2,1,2,1,0,5]","action_history":"[1,0,1,0,1,0]","mutagen_history":"[0,1,0,1,0,1]","location_rts":"[1151,442,465,615,719,398]","trial_type":"fractal-mutation","trial_index":67,"time_elapsed":656664,"internal_node_id":"0.0-5.0-13.0"},{"group":"hexagon_bi","fractal_assignment":["../images/cyn_red.png","../images/ylw_slt.png","../images/gry_blk.png","../images/pnk_blu.png","../images/org_blu.png","../images/blu_wht.png"],"mutagen_generator_assignment":[1,0],"goal":4,"start":5,"action_noise":0.15,"location_history":"[5,4]","action_history":"[1]","mutagen_history":"[0]","location_rts":"[588]","trial_type":"fractal-mutation","trial_index":68,"time_elapsed":661820,"internal_node_id":"0.0-5.0-14.0"},{"group":"hexagon_bi","fractal_assignment":["../images/cyn_red.png","../images/ylw_slt.png","../images/gry_blk.png","../images/pnk_blu.png","../images/org_blu.png","../images/blu_wht.png"],"mutagen_generator_assignment":[1,0],"goal":0,"start":4,"action_noise":0.15,"location_history":"[4,5,0]","action_history":"[1,0]","mutagen_history":"[0,1]","location_rts":"[414,332]","trial_type":"fractal-mutation","trial_index":69,"time_elapsed":668240,"internal_node_id":"0.0-5.0-15.0"},{"group":"hexagon_bi","fractal_assignment":["../images/cyn_red.png","../images/ylw_slt.png","../images/gry_blk.png","../images/pnk_blu.png","../images/org_blu.png","../images/blu_wht.png"],"mutagen_generator_assignment":[1,0],"goal":3,"start":0,"action_noise":0.15,"location_history":"[0,1,2,3]","action_history":"[1,0,1]","mutagen_history":"[0,1,0]","location_rts":"[563,321,486]","trial_type":"fractal-mutation","trial_index":70,"time_elapsed":676341,"internal_node_id":"0.0-5.0-16.0"},{"group":"hexagon_bi","fractal_assignment":["../images/cyn_red.png","../images/ylw_slt.png","../images/gry_blk.png","../images/pnk_blu.png","../images/org_blu.png","../images/blu_wht.png"],"mutagen_generator_assignment":[1,0],"goal":1,"start":3,"action_noise":0.15,"location_history":"[3,2,1]","action_history":"[1,0]","mutagen_history":"[0,1]","location_rts":"[1252,402]","trial_type":"fractal-mutation","trial_index":71,"time_elapsed":683667,"internal_node_id":"0.0-5.0-17.0"},{"group":"hexagon_bi","fractal_assignment":["../images/cyn_red.png","../images/ylw_slt.png","../images/gry_blk.png","../images/pnk_blu.png","../images/org_blu.png","../images/blu_wht.png"],"mutagen_generator_assignment":[1,0],"goal":5,"start":1,"action_noise":0.15,"location_history":"[1,0,5]","action_history":"[1,0]","mutagen_history":"[0,1]","location_rts":"[471,451]","trial_type":"fractal-mutation","trial_index":72,"time_elapsed":690267,"internal_node_id":"0.0-5.0-18.0"},{"group":"hexagon_bi","fractal_assignment":["../images/cyn_red.png","../images/ylw_slt.png","../images/gry_blk.png","../images/pnk_blu.png","../images/org_blu.png","../images/blu_wht.png"],"mutagen_generator_assignment":[1,0],"goal":2,"start":5,"action_noise":0.15,"location_history":"[5,4,3,2]","action_history":"[1,0,1]","mutagen_history":"[0,1,0]","location_rts":"[456,330,309]","trial_type":"fractal-mutation","trial_index":73,"time_elapsed":698097,"internal_node_id":"0.0-5.0-19.0"},{"group":"hexagon_bi","fractal_assignment":["../images/cyn_red.png","../images/ylw_slt.png","../images/gry_blk.png","../images/pnk_blu.png","../images/org_blu.png","../images/blu_wht.png"],"mutagen_generator_assignment":[1,0],"goal":4,"start":2,"action_noise":0.15,"location_history":"[2,3,4]","action_history":"[1,0]","mutagen_history":"[0,1]","location_rts":"[361,374]","trial_type":"fractal-mutation","trial_index":74,"time_elapsed":704501,"internal_node_id":"0.0-5.0-20.0"},{"group":"hexagon_bi","fractal_assignment":["../images/cyn_red.png","../images/ylw_slt.png","../images/gry_blk.png","../images/pnk_blu.png","../images/org_blu.png","../images/blu_wht.png"],"mutagen_generator_assignment":[1,0],"goal":1,"start":4,"action_noise":0.15,"location_history":"[4,5,0,1]","action_history":"[1,0,1]","mutagen_history":"[0,1,0]","location_rts":"[553,390,460]","trial_type":"fractal-mutation","trial_index":75,"time_elapsed":712650,"internal_node_id":"0.0-5.0-21.0"},{"group":"hexagon_bi","fractal_assignment":["../images/cyn_red.png","../images/ylw_slt.png","../images/gry_blk.png","../images/pnk_blu.png","../images/org_blu.png","../images/blu_wht.png"],"mutagen_generator_assignment":[1,0],"goal":3,"start":1,"action_noise":0.15,"location_history":"[1,0,5,0,5,4,5,4,3]","action_history":"[1,0,1,0,1,0,1,0]","mutagen_history":"[0,1,0,1,0,1,0,1]","location_rts":"[876,309,334,328,326,361,572,1294]","trial_type":"fractal-mutation","trial_index":76,"time_elapsed":729235,"internal_node_id":"0.0-5.0-22.0"},{"group":"hexagon_bi","fractal_assignment":["../images/cyn_red.png","../images/ylw_slt.png","../images/gry_blk.png","../images/pnk_blu.png","../images/org_blu.png","../images/blu_wht.png"],"mutagen_generator_assignment":[1,0],"goal":2,"start":3,"action_noise":0.15,"location_history":"[3,2]","action_history":"[1]","mutagen_history":"[0]","location_rts":"[424]","trial_type":"fractal-mutation","trial_index":77,"time_elapsed":734224,"internal_node_id":"0.0-5.0-23.0"},{"group":"hexagon_bi","fractal_assignment":["../images/cyn_red.png","../images/ylw_slt.png","../images/gry_blk.png","../images/pnk_blu.png","../images/org_blu.png","../images/blu_wht.png"],"mutagen_generator_assignment":[1,0],"goal":0,"start":2,"action_noise":0.15,"location_history":"[2,3,4,5,0]","action_history":"[1,0,1,0]","mutagen_history":"[0,1,0,1]","location_rts":"[514,479,610,417]","trial_type":"fractal-mutation","trial_index":78,"time_elapsed":744097,"internal_node_id":"0.0-5.0-24.0"},{"group":"hexagon_bi","fractal_assignment":["../images/cyn_red.png","../images/ylw_slt.png","../images/gry_blk.png","../images/pnk_blu.png","../images/org_blu.png","../images/blu_wht.png"],"mutagen_generator_assignment":[1,0],"goal":5,"start":0,"action_noise":0.15,"location_history":"[0,5]","action_history":"[1]","mutagen_history":"[0]","location_rts":"[496]","trial_type":"fractal-mutation","trial_index":79,"time_elapsed":749167,"internal_node_id":"0.0-5.0-25.0"},{"group":"hexagon_bi","fractal_assignment":["../images/cyn_red.png","../images/ylw_slt.png","../images/gry_blk.png","../images/pnk_blu.png","../images/org_blu.png","../images/blu_wht.png"],"mutagen_generator_assignment":[1,0],"goal":2,"start":5,"action_noise":0.15,"location_history":"[5,4,3,2]","action_history":"[1,0,1]","mutagen_history":"[0,1,0]","location_rts":"[831,549,414]","trial_type":"fractal-mutation","trial_index":80,"time_elapsed":757717,"internal_node_id":"0.0-5.0-26.0"},{"group":"hexagon_bi","fractal_assignment":["../images/cyn_red.png","../images/ylw_slt.png","../images/gry_blk.png","../images/pnk_blu.png","../images/org_blu.png","../images/blu_wht.png"],"mutagen_generator_assignment":[1,0],"goal":3,"start":2,"action_noise":0.15,"location_history":"[2,3]","action_history":"[1]","mutagen_history":"[0]","location_rts":"[800]","trial_type":"fractal-mutation","trial_index":81,"time_elapsed":763086,"internal_node_id":"0.0-5.0-27.0"},{"group":"hexagon_bi","fractal_assignment":["../images/cyn_red.png","../images/ylw_slt.png","../images/gry_blk.png","../images/pnk_blu.png","../images/org_blu.png","../images/blu_wht.png"],"mutagen_generator_assignment":[1,0],"goal":0,"start":3,"action_noise":0.15,"location_history":"[3,2,1,2,3,2,1,0]","action_history":"[1,0,1,0,1,0,1]","mutagen_history":"[0,1,0,1,0,1,0]","location_rts":"[389,278,731,317,334,326,330]","trial_type":"fractal-mutation","trial_index":82,"time_elapsed":776867,"internal_node_id":"0.0-5.0-28.0"},{"group":"hexagon_bi","fractal_assignment":["../images/cyn_red.png","../images/ylw_slt.png","../images/gry_blk.png","../images/pnk_blu.png","../images/org_blu.png","../images/blu_wht.png"],"mutagen_generator_assignment":[1,0],"goal":1,"start":0,"action_noise":0.15,"location_history":"[0,1]","action_history":"[1]","mutagen_history":"[0]","location_rts":"[395]","trial_type":"fractal-mutation","trial_index":83,"time_elapsed":781834,"internal_node_id":"0.0-5.0-29.0"},{"group":"hexagon_bi","fractal_assignment":["../images/cyn_red.png","../images/ylw_slt.png","../images/gry_blk.png","../images/pnk_blu.png","../images/org_blu.png","../images/blu_wht.png"],"mutagen_generator_assignment":[1,0],"goal":4,"start":1,"action_noise":0.15,"location_history":"[1,0,5,4]","action_history":"[1,0,1]","mutagen_history":"[0,1,0]","location_rts":"[423,274,395]","trial_type":"fractal-mutation","trial_index":84,"time_elapsed":789667,"internal_node_id":"0.0-5.0-30.0"},{"group":"hexagon_bi","fractal_assignment":["../images/cyn_red.png","../images/ylw_slt.png","../images/gry_blk.png","../images/pnk_blu.png","../images/org_blu.png","../images/blu_wht.png"],"mutagen_generator_assignment":[1,0],"goal":5,"start":4,"action_noise":0.15,"location_history":"[4,5]","action_history":"[1]","mutagen_history":"[0]","location_rts":"[396]","trial_type":"fractal-mutation","trial_index":85,"time_elapsed":794631,"internal_node_id":"0.0-5.0-31.0"},{"group":"hexagon_bi","fractal_assignment":["../images/cyn_red.png","../images/ylw_slt.png","../images/gry_blk.png","../images/pnk_blu.png","../images/org_blu.png","../images/blu_wht.png"],"mutagen_generator_assignment":[1,0],"goal":0,"start":5,"action_noise":0.15,"location_history":"[5,4,3,2,1,0]","action_history":"[1,0,1,0,1]","mutagen_history":"[0,1,0,1,0]","location_rts":"[1360,342,324,303,348]","trial_type":"fractal-mutation","trial_index":86,"time_elapsed":806193,"internal_node_id":"0.0-5.0-32.0"},{"group":"hexagon_bi","fractal_assignment":["../images/cyn_red.png","../images/ylw_slt.png","../images/gry_blk.png","../images/pnk_blu.png","../images/org_blu.png","../images/blu_wht.png"],"mutagen_generator_assignment":[1,0],"goal":3,"start":0,"action_noise":0.15,"location_history":"[0,1,2,3]","action_history":"[1,0,1]","mutagen_history":"[0,1,0]","location_rts":"[1243,306,513]","trial_type":"fractal-mutation","trial_index":87,"time_elapsed":814997,"internal_node_id":"0.0-5.0-33.0"},{"group":"hexagon_bi","fractal_assignment":["../images/cyn_red.png","../images/ylw_slt.png","../images/gry_blk.png","../images/pnk_blu.png","../images/org_blu.png","../images/blu_wht.png"],"mutagen_generator_assignment":[1,0],"goal":1,"start":3,"action_noise":0.15,"location_history":"[3,2,1]","action_history":"[1,0]","mutagen_history":"[0,1]","location_rts":"[872,265]","trial_type":"fractal-mutation","trial_index":88,"time_elapsed":821804,"internal_node_id":"0.0-5.0-34.0"},{"group":"hexagon_bi","fractal_assignment":["../images/cyn_red.png","../images/ylw_slt.png","../images/gry_blk.png","../images/pnk_blu.png","../images/org_blu.png","../images/blu_wht.png"],"mutagen_generator_assignment":[1,0],"goal":2,"start":1,"action_noise":0.15,"location_history":"[1,0,5,0,5,4,3,4,3,2]","action_history":"[1,0,1,0,1,0,1,0,1]","mutagen_history":"[0,1,0,1,0,1,0,1,0]","location_rts":"[1360,378,712,440,494,397,417,535,347]","trial_type":"fractal-mutation","trial_index":89,"time_elapsed":840158,"internal_node_id":"0.0-5.0-35.0"},{"group":"hexagon_bi","fractal_assignment":["../images/cyn_red.png","../images/ylw_slt.png","../images/gry_blk.png","../images/pnk_blu.png","../images/org_blu.png","../images/blu_wht.png"],"mutagen_generator_assignment":[1,0],"goal":4,"start":2,"action_noise":0.15,"location_history":"[2,3,4]","action_history":"[1,0]","mutagen_history":"[0,1]","location_rts":"[426,380]","trial_type":"fractal-mutation","trial_index":90,"time_elapsed":846636,"internal_node_id":"0.0-5.0-36.0"},{"group":"hexagon_bi","fractal_assignment":["../images/cyn_red.png","../images/ylw_slt.png","../images/gry_blk.png","../images/pnk_blu.png","../images/org_blu.png","../images/blu_wht.png"],"mutagen_generator_assignment":[1,0],"goal":5,"start":4,"action_noise":0.15,"location_history":"[4,5]","action_history":"[1]","mutagen_history":"[0]","location_rts":"[428]","trial_type":"fractal-mutation","trial_index":91,"time_elapsed":851634,"internal_node_id":"0.0-5.0-37.0"},{"group":"hexagon_bi","fractal_assignment":["../images/cyn_red.png","../images/ylw_slt.png","../images/gry_blk.png","../images/pnk_blu.png","../images/org_blu.png","../images/blu_wht.png"],"mutagen_generator_assignment":[1,0],"goal":1,"start":5,"action_noise":0.15,"location_history":"[5,4,3,4,3,4,3,2,1]","action_history":"[1,0,1,0,1,0,1,0]","mutagen_history":"[0,1,0,1,0,1,0,1]","location_rts":"[458,415,484,499,494,386,461,441]","trial_type":"fractal-mutation","trial_index":92,"time_elapsed":867472,"internal_node_id":"0.0-5.0-38.0"},{"group":"hexagon_bi","fractal_assignment":["../images/cyn_red.png","../images/ylw_slt.png","../images/gry_blk.png","../images/pnk_blu.png","../images/org_blu.png","../images/blu_wht.png"],"mutagen_generator_assignment":[1,0],"goal":4,"start":1,"action_noise":0.15,"location_history":"[1,0,1,0,5,4]","action_history":"[1,0,1,0,1]","mutagen_history":"[0,1,0,1,0]","location_rts":"[742,346,318,348,315]","trial_type":"fractal-mutation","trial_index":93,"time_elapsed":878456,"internal_node_id":"0.0-5.0-39.0"},{"group":"hexagon_bi","fractal_assignment":["../images/cyn_red.png","../images/ylw_slt.png","../images/gry_blk.png","../images/pnk_blu.png","../images/org_blu.png","../images/blu_wht.png"],"mutagen_generator_assignment":[1,0],"goal":3,"start":4,"action_noise":0.15,"location_history":"[4,5,0,1,2,1,2,3]","action_history":"[1,0,1,0,1,0,1]","mutagen_history":"[0,1,0,1,0,1,0]","location_rts":"[424,315,307,639,355,458,357]","trial_type":"fractal-mutation","trial_index":94,"time_elapsed":892401,"internal_node_id":"0.0-5.0-40.0"},{"group":"hexagon_bi","fractal_assignment":["../images/cyn_red.png","../images/ylw_slt.png","../images/gry_blk.png","../images/pnk_blu.png","../images/org_blu.png","../images/blu_wht.png"],"mutagen_generator_assignment":[1,0],"goal":2,"start":3,"action_noise":0.15,"location_history":"[3,2]","action_history":"[1]","mutagen_history":"[0]","location_rts":"[411]","trial_type":"fractal-mutation","trial_index":95,"time_elapsed":897379,"internal_node_id":"0.0-5.0-41.0"},{"group":"hexagon_bi","fractal_assignment":["../images/cyn_red.png","../images/ylw_slt.png","../images/gry_blk.png","../images/pnk_blu.png","../images/org_blu.png","../images/blu_wht.png"],"mutagen_generator_assignment":[1,0],"goal":0,"start":2,"action_noise":0.15,"location_history":"[2,3,4,5,0]","action_history":"[1,0,1,0]","mutagen_history":"[0,1,0,1]","location_rts":"[371,342,410,350]","trial_type":"fractal-mutation","trial_index":96,"time_elapsed":906695,"internal_node_id":"0.0-5.0-42.0"},{"group":"hexagon_bi","fractal_assignment":["../images/cyn_red.png","../images/ylw_slt.png","../images/gry_blk.png","../images/pnk_blu.png","../images/org_blu.png","../images/blu_wht.png"],"mutagen_generator_assignment":[1,0],"goal":5,"start":0,"action_noise":0.15,"location_history":"[0,1,2,3,4,3,4,3,4,5]","action_history":"[1,0,1,0,1,0,1,0,1]","mutagen_history":"[0,1,0,1,0,1,0,1,0]","location_rts":"[568,327,318,394,318,409,424,353,309]","trial_type":"fractal-mutation","trial_index":97,"time_elapsed":923346,"internal_node_id":"0.0-5.0-43.0"},{"group":"hexagon_bi","fractal_assignment":["../images/cyn_red.png","../images/ylw_slt.png","../images/gry_blk.png","../images/pnk_blu.png","../images/org_blu.png","../images/blu_wht.png"],"mutagen_generator_assignment":[1,0],"goal":0,"start":5,"action_noise":0.15,"location_history":"[5,4,3,2,1,2,1,2,1,0]","action_history":"[1,0,1,0,1,0,1,0,1]","mutagen_history":"[0,1,0,1,0,1,0,1,0]","location_rts":"[469,466,327,366,315,330,423,333,262]","trial_type":"fractal-mutation","trial_index":98,"time_elapsed":939891,"internal_node_id":"0.0-5.0-44.0"},{"group":"hexagon_bi","fractal_assignment":["../images/cyn_red.png","../images/ylw_slt.png","../images/gry_blk.png","../images/pnk_blu.png","../images/org_blu.png","../images/blu_wht.png"],"mutagen_generator_assignment":[1,0],"goal":2,"start":0,"action_noise":0.15,"location_history":"[0,1,2]","action_history":"[1,0]","mutagen_history":"[0,1]","location_rts":"[385,341]","trial_type":"fractal-mutation","trial_index":99,"time_elapsed":946287,"internal_node_id":"0.0-5.0-45.0"},{"group":"hexagon_bi","fractal_assignment":["../images/cyn_red.png","../images/ylw_slt.png","../images/gry_blk.png","../images/pnk_blu.png","../images/org_blu.png","../images/blu_wht.png"],"mutagen_generator_assignment":[1,0],"goal":4,"start":2,"action_noise":0.15,"location_history":"[2,3,4]","action_history":"[1,0]","mutagen_history":"[0,1]","location_rts":"[316,303]","trial_type":"fractal-mutation","trial_index":100,"time_elapsed":952576,"internal_node_id":"0.0-5.0-46.0"},{"group":"hexagon_bi","fractal_assignment":["../images/cyn_red.png","../images/ylw_slt.png","../images/gry_blk.png","../images/pnk_blu.png","../images/org_blu.png","../images/blu_wht.png"],"mutagen_generator_assignment":[1,0],"goal":1,"start":4,"action_noise":0.15,"location_history":"[4,3,4,5,0,1]","action_history":"[1,0,1,0,1]","mutagen_history":"[0,1,0,1,0]","location_rts":"[407,399,272,398,310]","trial_type":"fractal-mutation","trial_index":101,"time_elapsed":963283,"internal_node_id":"0.0-5.0-47.0"},{"group":"hexagon_bi","fractal_assignment":["../images/cyn_red.png","../images/ylw_slt.png","../images/gry_blk.png","../images/pnk_blu.png","../images/org_blu.png","../images/blu_wht.png"],"mutagen_generator_assignment":[1,0],"goal":5,"start":1,"action_noise":0.15,"location_history":"[1,2,1,0,1,0,5]","action_history":"[1,0,1,0,1,0]","mutagen_history":"[0,1,0,1,0,1]","location_rts":"[404,365,763,1330,510,462]","trial_type":"fractal-mutation","trial_index":102,"time_elapsed":977134,"internal_node_id":"0.0-5.0-48.0"},{"group":"hexagon_bi","fractal_assignment":["../images/cyn_red.png","../images/ylw_slt.png","../images/gry_blk.png","../images/pnk_blu.png","../images/org_blu.png","../images/blu_wht.png"],"mutagen_generator_assignment":[1,0],"goal":3,"start":5,"action_noise":0.15,"location_history":"[5,0,5,0,5,4,3]","action_history":"[1,0,1,0,1,0]","mutagen_history":"[0,1,0,1,0,1]","location_rts":"[1422,308,295,390,275,1122]","trial_type":"fractal-mutation","trial_index":103,"time_elapsed":991004,"internal_node_id":"0.0-5.0-49.0"},{"view_history":"[{\"page_index\":0,\"viewing_time\":2893}]","rt":2893,"trial_type":"instructions","trial_index":104,"time_elapsed":994898,"internal_node_id":"0.0-6.0"},{"rt":1714,"responses":"{\"Q0\":\"\"}","trial_type":"survey-text","trial_index":105,"time_elapsed":997616,"internal_node_id":"0.0-7.0"}]