[{"view_history":"[{\"page_index\":0,\"viewing_time\":15483},{\"page_index\":1,\"viewing_time\":146074}]","rt":161559,"trial_type":"instructions","trial_index":0,"time_elapsed":161560,"internal_node_id":"0.0-0.0"},{"view_history":"[{\"page_index\":0,\"viewing_time\":3589},{\"page_index\":1,\"viewing_time\":29869}]","rt":33459,"trial_type":"instructions","trial_index":1,"time_elapsed":196020,"internal_node_id":"0.0-1.0"},{"group":"hexagon_tri","room_assignment":["purple","blue","red","grey","green","yellow"],"door_color_assignment":["white","black"],"door_generator_assignment":[0,1],"goal":3,"start":5,"action_noise":0.15,"location_history":"[5,0,5,4,2,1,3]","action_history":"[1,1,0,0,0,0]","door_history":"[1,1,0,0,0,0]","location_rts":"[2280,673,1727,381,361,1434]","trial_type":"two-door-navigation","trial_index":2,"time_elapsed":212522,"internal_node_id":"0.0-2.0-0.0"},{"group":"hexagon_tri","room_assignment":["purple","blue","red","grey","green","yellow"],"door_color_assignment":["white","black"],"door_generator_assignment":[0,1],"goal":1,"start":3,"action_noise":0.15,"location_history":"[3,2,1]","action_history":"[0,0]","door_history":"[0,0]","location_rts":"[1253,438]","trial_type":"two-door-navigation","trial_index":3,"time_elapsed":219775,"internal_node_id":"0.0-2.0-1.0"},{"group":"hexagon_tri","room_assignment":["purple","blue","red","grey","green","yellow"],"door_color_assignment":["white","black"],"door_generator_assignment":[0,1],"goal":0,"start":1,"action_noise":0.15,"location_history":"[1,3,2,1,3,2,1,3,4,0]","action_history":"[0,0,0,0,0,0,0,0,0]","door_history":"[0,0,0,0,0,0,0,0,0]","location_rts":"[1034,383,560,1186,633,547,964,448,415]","trial_type":"two-door-navigation","trial_index":4,"time_elapsed":238661,"internal_node_id":"0.0-2.0-2.0"},{"group":"hexagon_tri","room_assignment":["purple","blue","red","grey","green","yellow"],"door_color_assignment":["white","black"],"door_generator_assignment":[0,1],"goal":3,"start":0,"action_noise":0.15,"location_history":"[0,5,4,0,5,0,5,4,0,5,0,1,5,4,0,1,5,0,1,5,0,1,5,0,1,3]","action_history":"[0,0,0,0,0,0,0,0,0,0,0,0,0,0,0,1,1,1,1,1,1,1,1,1,1]","door_history":"[0,0,0,0,0,0,0,0,0,0,0,0,0,0,0,1,1,1,1,1,1,1,1,1,1]","location_rts":"[506,1595,447,738,389,541,406,593,4074,1485,241,6175,1230,2541,915,383,306,258,512,1933,513,426,409,398,442]","trial_type":"two-door-navigation","trial_index":5,"time_elapsed":295114,"internal_node_id":"0.0-2.0-3.0"},{"group":"hexagon_tri","room_assignment":["purple","blue","red","grey","green","yellow"],"door_color_assignment":["white","black"],"door_generator_assignment":[0,1],"goal":4,"start":3,"action_noise":0.15,"location_history":"[3,2,3,2,1,3,4]","action_history":"[0,0,0,0,1,1]","door_history":"[0,0,0,0,1,1]","location_rts":"[1612,300,111,512,312,320]","trial_type":"two-door-navigation","trial_index":6,"time_elapsed":307942,"internal_node_id":"0.0-2.0-4.0"},{"group":"hexagon_tri","room_assignment":["purple","blue","red","grey","green","yellow"],"door_color_assignment":["white","black"],"door_generator_assignment":[0,1],"goal":2,"start":4,"action_noise":0.15,"location_history":"[4,2]","action_history":"[0]","door_history":"[0]","location_rts":"[15414]","trial_type":"two-door-navigation","trial_index":7,"time_elapsed":327950,"internal_node_id":"0.0-2.0-5.0"},{"group":"hexagon_tri","room_assignment":["purple","blue","red","grey","green","yellow"],"door_color_assignment":["white","black"],"door_generator_assignment":[0,1],"goal":1,"start":2,"action_noise":0.15,"location_history":"[2,1]","action_history":"[0]","door_history":"[0]","location_rts":"[9248]","trial_type":"two-door-navigation","trial_index":8,"time_elapsed":341824,"internal_node_id":"0.0-2.0-6.0"},{"group":"hexagon_tri","room_assignment":["purple","blue","red","grey","green","yellow"],"door_color_assignment":["white","black"],"door_generator_assignment":[0,1],"goal":5,"start":1,"action_noise":0.15,"location_history":"[1,5]","action_history":"[0]","door_history":"[0]","location_rts":"[3587]","trial_type":"two-door-navigation","trial_index":9,"time_elapsed":349985,"internal_node_id":"0.0-2.0-7.0"},{"group":"hexagon_tri","room_assignment":["purple","blue","red","grey","green","yellow"],"door_color_assignment":["white","black"],"door_generator_assignment":[0,1],"goal":4,"start":5,"action_noise":0.15,"location_history":"[5,4]","action_history":"[0]","door_history":"[0]","location_rts":"[592]","trial_type":"two-door-navigation","trial_index":10,"time_elapsed":355185,"internal_node_id":"0.0-2.0-8.0"},{"group":"hexagon_tri","room_assignment":["purple","blue","red","grey","green","yellow"],"door_color_assignment":["white","black"],"door_generator_assignment":[0,1],"goal":2,"start":4,"action_noise":0.15,"location_history":"[4,0,5,4,2]","action_history":"[0,0,0,0]","door_history":"[0,0,0,0]","location_rts":"[1292,680,340,398]","trial_type":"two-door-navigation","trial_index":11,"time_elapsed":365712,"internal_node_id":"0.0-2.0-9.0"},{"group":"hexagon_tri","room_assignment":["purple","blue","red","grey","green","yellow"],"door_color_assignment":["white","black"],"door_generator_assignment":[0,1],"goal":0,"start":2,"action_noise":0.15,"location_history":"[2,1,5,4,0]","action_history":"[0,0,0,0]","door_history":"[0,0,0,0]","location_rts":"[936,967,426,1520]","trial_type":"two-door-navigation","trial_index":12,"time_elapsed":377388,"internal_node_id":"0.0-2.0-10.0"},{"group":"hexagon_tri","room_assignment":["purple","blue","red","grey","green","yellow"],"door_color_assignment":["white","black"],"door_generator_assignment":[0,1],"goal":1,"start":0,"action_noise":0.15,"location_history":"[0,5,4,0,5,0,5,4,2,1]","action_history":"[0,0,0,0,0,0,0,0,0]","door_history":"[0,0,0,0,0,0,0,0,0]","location_rts":"[840,1440,558,901,933,2402,392,1012,1465]","trial_type":"two-door-navigation","trial_index":13,"time_elapsed":400373,"internal_node_id":"0.0-2.0-11.0"},{"group":"hexagon_tri","room_assignment":["purple","blue","red","grey","green","yellow"],"door_color_assignment":["white","black"],"door_generator_assignment":[0,1],"goal":3,"start":1,"action_noise":0.15,"location_history":"[1,3]","action_history":"[0]","door_history":"[0]","location_rts":"[998]","trial_type":"two-door-navigation","trial_index":14,"time_elapsed":405939,"internal_node_id":"0.0-2.0-12.0"},{"group":"hexagon_tri","room_assignment":["purple","blue","red","grey","green","yellow"],"door_color_assignment":["white","black"],"door_generator_assignment":[0,1],"goal":5,"start":3,"action_noise":0.15,"location_history":"[3,4,2,3,4,2,3,4,2,3,4,2,3,4,0,5]","action_history":"[1,1,1,1,1,1,1,1,1,1,1,1,1,0,0]","door_history":"[1,1,1,1,1,1,1,1,1,1,1,1,1,0,0]","location_rts":"[555,298,382,376,407,499,931,487,436,493,434,558,886,847,328]","trial_type":"two-door-navigation","trial_index":15,"time_elapsed":433359,"internal_node_id":"0.0-2.0-13.0"},{"group":"hexagon_tri","room_assignment":["purple","blue","red","grey","green","yellow"],"door_color_assignment":["white","black"],"door_generator_assignment":[0,1],"goal":4,"start":5,"action_noise":0.15,"location_history":"[5,0,1,5,4]","action_history":"[1,1,1,1]","door_history":"[1,1,1,1]","location_rts":"[937,327,369,752]","trial_type":"two-door-navigation","trial_index":16,"time_elapsed":443487,"internal_node_id":"0.0-2.0-14.0"},{"group":"hexagon_tri","room_assignment":["purple","blue","red","grey","green","yellow"],"door_color_assignment":["white","black"],"door_generator_assignment":[0,1],"goal":0,"start":4,"action_noise":0.15,"location_history":"[4,0]","action_history":"[1]","door_history":"[1]","location_rts":"[332]","trial_type":"two-door-navigation","trial_index":17,"time_elapsed":448402,"internal_node_id":"0.0-2.0-15.0"},{"group":"hexagon_tri","room_assignment":["purple","blue","red","grey","green","yellow"],"door_color_assignment":["white","black"],"door_generator_assignment":[0,1],"goal":3,"start":0,"action_noise":0.15,"location_history":"[0,5,4,2,3]","action_history":"[1,1,1,1]","door_history":"[1,1,1,1]","location_rts":"[555,776,659,695]","trial_type":"two-door-navigation","trial_index":18,"time_elapsed":458873,"internal_node_id":"0.0-2.0-16.0"},{"group":"hexagon_tri","room_assignment":["purple","blue","red","grey","green","yellow"],"door_color_assignment":["white","black"],"door_generator_assignment":[0,1],"goal":1,"start":3,"action_noise":0.15,"location_history":"[3,2,3,2,1]","action_history":"[1,1,1,1]","door_history":"[1,1,1,1]","location_rts":"[521,633,513,486]","trial_type":"two-door-navigation","trial_index":19,"time_elapsed":468743,"internal_node_id":"0.0-2.0-17.0"},{"group":"hexagon_tri","room_assignment":["purple","blue","red","grey","green","yellow"],"door_color_assignment":["white","black"],"door_generator_assignment":[0,1],"goal":5,"start":1,"action_noise":0.15,"location_history":"[1,5]","action_history":"[1]","door_history":"[1]","location_rts":"[404]","trial_type":"two-door-navigation","trial_index":20,"time_elapsed":473687,"internal_node_id":"0.0-2.0-18.0"},{"group":"hexagon_tri","room_assignment":["purple","blue","red","grey","green","yellow"],"door_color_assignment":["white","black"],"door_generator_assignment":[0,1],"goal":2,"start":5,"action_noise":0.15,"location_history":"[5,4,0,1,3,2]","action_history":"[1,0,0,0,0]","door_history":"[1,0,0,0,0]","location_rts":"[624,910,332,349,316]","trial_type":"two-door-navigation","trial_index":21,"time_elapsed":485125,"internal_node_id":"0.0-2.0-19.0"},{"group":"hexagon_tri","room_assignment":["purple","blue","red","grey","green","yellow"],"door_color_assignment":["white","black"],"door_generator_assignment":[0,1],"goal":4,"start":2,"action_noise":0.15,"location_history":"[2,1,3,2,1,3,2,3,4]","action_history":"[0,0,0,0,0,0,0,0]","door_history":"[0,0,0,0,0,0,0,0]","location_rts":"[385,441,447,491,804,356,508,361]","trial_type":"two-door-navigation","trial_index":22,"time_elapsed":500973,"internal_node_id":"0.0-2.0-20.0"},{"group":"hexagon_tri","room_assignment":["purple","blue","red","grey","green","yellow"],"door_color_assignment":["white","black"],"door_generator_assignment":[0,1],"goal":1,"start":4,"action_noise":0.15,"location_history":"[4,2,1]","action_history":"[0,0]","door_history":"[0,0]","location_rts":"[888,462]","trial_type":"two-door-navigation","trial_index":23,"time_elapsed":507909,"internal_node_id":"0.0-2.0-21.0"},{"group":"hexagon_tri","room_assignment":["purple","blue","red","grey","green","yellow"],"door_color_assignment":["white","black"],"door_generator_assignment":[0,1],"goal":3,"start":1,"action_noise":0.15,"location_history":"[1,3]","action_history":"[0]","door_history":"[0]","location_rts":"[574]","trial_type":"two-door-navigation","trial_index":24,"time_elapsed":513054,"internal_node_id":"0.0-2.0-22.0"},{"group":"hexagon_tri","room_assignment":["purple","blue","red","grey","green","yellow"],"door_color_assignment":["white","black"],"door_generator_assignment":[0,1],"goal":2,"start":3,"action_noise":0.15,"location_history":"[3,2]","action_history":"[0]","door_history":"[0]","location_rts":"[1149]","trial_type":"two-door-navigation","trial_index":25,"time_elapsed":518779,"internal_node_id":"0.0-2.0-23.0"},{"group":"hexagon_tri","room_assignment":["purple","blue","red","grey","green","yellow"],"door_color_assignment":["white","black"],"door_generator_assignment":[0,1],"goal":0,"start":2,"action_noise":0.15,"location_history":"[2,1,3,2,1,3,2,3,2,3,4,0]","action_history":"[0,0,0,0,0,0,0,0,1,1,1]","door_history":"[0,0,0,0,0,0,0,0,1,1,1]","location_rts":"[3828,728,2212,1575,926,2410,129,648,591,288,652]","trial_type":"two-door-navigation","trial_index":26,"time_elapsed":548018,"internal_node_id":"0.0-2.0-24.0"},{"group":"hexagon_tri","room_assignment":["purple","blue","red","grey","green","yellow"],"door_color_assignment":["white","black"],"door_generator_assignment":[0,1],"goal":5,"start":0,"action_noise":0.15,"location_history":"[0,1,3,4,2,1,3,4,0,5]","action_history":"[1,1,1,1,0,0,0,0,0]","door_history":"[1,1,1,1,0,0,0,0,0]","location_rts":"[783,735,575,420,550,531,1106,601,336]","trial_type":"two-door-navigation","trial_index":27,"time_elapsed":566609,"internal_node_id":"0.0-2.0-25.0"},{"group":"hexagon_tri","room_assignment":["purple","blue","red","grey","green","yellow"],"door_color_assignment":["white","black"],"door_generator_assignment":[0,1],"goal":2,"start":5,"action_noise":0.15,"location_history":"[5,4,0,1,3,2]","action_history":"[0,0,0,0,0]","door_history":"[0,0,0,0,0]","location_rts":"[574,459,399,389,894]","trial_type":"two-door-navigation","trial_index":28,"time_elapsed":578107,"internal_node_id":"0.0-2.0-26.0"},{"group":"hexagon_tri","room_assignment":["purple","blue","red","grey","green","yellow"],"door_color_assignment":["white","black"],"door_generator_assignment":[0,1],"goal":3,"start":2,"action_noise":0.15,"location_history":"[2,1,3]","action_history":"[0,0]","door_history":"[0,0]","location_rts":"[661,391]","trial_type":"two-door-navigation","trial_index":29,"time_elapsed":584736,"internal_node_id":"0.0-2.0-27.0"},{"group":"hexagon_tri","room_assignment":["purple","blue","red","grey","green","yellow"],"door_color_assignment":["white","black"],"door_generator_assignment":[0,1],"goal":0,"start":3,"action_noise":0.15,"location_history":"[3,4,2,3,4,2,3,4,2,1,5,0]","action_history":"[1,1,1,1,1,1,1,1,1,1,1]","door_history":"[1,1,1,1,1,1,1,1,1,1,1]","location_rts":"[2767,639,664,612,479,389,365,492,620,648,371]","trial_type":"two-door-navigation","trial_index":30,"time_elapsed":608073,"internal_node_id":"0.0-2.0-28.0"},{"group":"hexagon_tri","room_assignment":["purple","blue","red","grey","green","yellow"],"door_color_assignment":["white","black"],"door_generator_assignment":[0,1],"goal":1,"start":0,"action_noise":0.15,"location_history":"[0,1]","action_history":"[1]","door_history":"[1]","location_rts":"[576]","trial_type":"two-door-navigation","trial_index":31,"time_elapsed":613216,"internal_node_id":"0.0-2.0-29.0"},{"group":"hexagon_tri","room_assignment":["purple","blue","red","grey","green","yellow"],"door_color_assignment":["white","black"],"door_generator_assignment":[0,1],"goal":4,"start":1,"action_noise":0.15,"location_history":"[1,3,2,1,3,2,1,5,0,1,5,0,5,0,1,5,0,1,5,4]","action_history":"[0,0,0,0,0,0,1,1,1,1,1,1,1,1,1,1,1,1,0]","door_history":"[0,0,0,0,0,0,1,1,1,1,1,1,1,1,1,1,1,1,0]","location_rts":"[1468,349,495,508,508,356,627,581,1004,456,461,400,512,744,369,550,376,344,128]","trial_type":"two-door-navigation","trial_index":32,"time_elapsed":647408,"internal_node_id":"0.0-2.0-30.0"},{"group":"hexagon_tri","room_assignment":["purple","blue","red","grey","green","yellow"],"door_color_assignment":["white","black"],"door_generator_assignment":[0,1],"goal":5,"start":4,"action_noise":0.15,"location_history":"[4,0,5]","action_history":"[0,0]","door_history":"[0,0]","location_rts":"[867,669]","trial_type":"two-door-navigation","trial_index":33,"time_elapsed":654604,"internal_node_id":"0.0-2.0-31.0"},{"group":"hexagon_tri","room_assignment":["purple","blue","red","grey","green","yellow"],"door_color_assignment":["white","black"],"door_generator_assignment":[0,1],"goal":0,"start":5,"action_noise":0.15,"location_history":"[5,4,0]","action_history":"[0,0]","door_history":"[0,0]","location_rts":"[1576,365]","trial_type":"two-door-navigation","trial_index":34,"time_elapsed":662181,"internal_node_id":"0.0-2.0-32.0"},{"group":"hexagon_tri","room_assignment":["purple","blue","red","grey","green","yellow"],"door_color_assignment":["white","black"],"door_generator_assignment":[0,1],"goal":3,"start":0,"action_noise":0.15,"location_history":"[0,1,5,0,1,5,4,0,5,4,2,1,5,4,0,5,4,0,5,4,2,1,3]","action_history":"[1,1,1,1,1,0,0,0,0,0,0,0,0,0,0,0,0,0,0,0,0,0]","door_history":"[1,1,1,1,1,0,0,0,0,0,0,0,0,0,0,0,0,0,0,0,0,0]","location_rts":"[592,383,756,400,359,532,384,615,381,564,296,656,1211,454,1086,615,1896,649,699,164,120,793]","trial_type":"two-door-navigation","trial_index":35,"time_elapsed":702821,"internal_node_id":"0.0-2.0-33.0"},{"group":"hexagon_tri","room_assignment":["purple","blue","red","grey","green","yellow"],"door_color_assignment":["white","black"],"door_generator_assignment":[0,1],"goal":1,"start":3,"action_noise":0.15,"location_history":"[3,2,3,4,2,3,4,2,1]","action_history":"[0,1,1,1,1,1,1,1]","door_history":"[0,1,1,1,1,1,1,1]","location_rts":"[452,753,239,23,456,305,366,252]","trial_type":"two-door-navigation","trial_index":36,"time_elapsed":717764,"internal_node_id":"0.0-2.0-34.0"},{"group":"hexagon_tri","room_assignment":["purple","blue","red","grey","green","yellow"],"door_color_assignment":["white","black"],"door_generator_assignment":[0,1],"goal":2,"start":1,"action_noise":0.15,"location_history":"[1,3,2]","action_history":"[0,0]","door_history":"[0,0]","location_rts":"[533,3395]","trial_type":"two-door-navigation","trial_index":37,"time_elapsed":727414,"internal_node_id":"0.0-2.0-35.0"},{"group":"hexagon_tri","room_assignment":["purple","blue","red","grey","green","yellow"],"door_color_assignment":["white","black"],"door_generator_assignment":[0,1],"goal":4,"start":2,"action_noise":0.15,"location_history":"[2,3,4]","action_history":"[1,1]","door_history":"[1,1]","location_rts":"[5646,1414]","trial_type":"two-door-navigation","trial_index":38,"time_elapsed":740146,"internal_node_id":"0.0-2.0-36.0"},{"group":"hexagon_tri","room_assignment":["purple","blue","red","grey","green","yellow"],"door_color_assignment":["white","black"],"door_generator_assignment":[0,1],"goal":5,"start":4,"action_noise":0.15,"location_history":"[4,0,5]","action_history":"[0,0]","door_history":"[0,0]","location_rts":"[5306,963]","trial_type":"two-door-navigation","trial_index":39,"time_elapsed":752219,"internal_node_id":"0.0-2.0-37.0"},{"group":"hexagon_tri","room_assignment":["purple","blue","red","grey","green","yellow"],"door_color_assignment":["white","black"],"door_generator_assignment":[0,1],"goal":1,"start":5,"action_noise":0.15,"location_history":"[5,4,0,5,4,0,5,4,2,3,4,0,1]","action_history":"[0,0,0,0,0,0,0,1,1,1,1,1]","door_history":"[0,0,0,0,0,0,0,1,1,1,1,1]","location_rts":"[1015,500,222,284,261,255,272,316,56,40,12,116]","trial_type":"two-door-navigation","trial_index":40,"time_elapsed":771991,"internal_node_id":"0.0-2.0-38.0"},{"group":"hexagon_tri","room_assignment":["purple","blue","red","grey","green","yellow"],"door_color_assignment":["white","black"],"door_generator_assignment":[0,1],"goal":4,"start":1,"action_noise":0.15,"location_history":"[1,5,4]","action_history":"[1,1]","door_history":"[1,1]","location_rts":"[391,115]","trial_type":"two-door-navigation","trial_index":41,"time_elapsed":778168,"internal_node_id":"0.0-2.0-39.0"},{"group":"hexagon_tri","room_assignment":["purple","blue","red","grey","green","yellow"],"door_color_assignment":["white","black"],"door_generator_assignment":[0,1],"goal":3,"start":4,"action_noise":0.15,"location_history":"[4,2,1,3]","action_history":"[0,0,0]","door_history":"[0,0,0]","location_rts":"[628,93,45]","trial_type":"two-door-navigation","trial_index":42,"time_elapsed":785706,"internal_node_id":"0.0-2.0-40.0"},{"group":"hexagon_tri","room_assignment":["purple","blue","red","grey","green","yellow"],"door_color_assignment":["white","black"],"door_generator_assignment":[0,1],"goal":2,"start":3,"action_noise":0.15,"location_history":"[3,4,2]","action_history":"[1,1]","door_history":"[1,1]","location_rts":"[18382,208]","trial_type":"two-door-navigation","trial_index":43,"time_elapsed":810306,"internal_node_id":"0.0-2.0-41.0"},{"group":"hexagon_tri","room_assignment":["purple","blue","red","grey","green","yellow"],"door_color_assignment":["white","black"],"door_generator_assignment":[0,1],"goal":0,"start":2,"action_noise":0.15,"location_history":"[2,1,3,2,1,5,4,2,3,4,2,3,4,2,3,4,2,1,3,2,1,3,2,1,5,0]","action_history":"[0,0,0,0,0,0,1,1,1,1,1,1,1,1,1,1,0,0,0,0,0,0,1,1,1]","door_history":"[0,0,0,0,0,0,1,1,1,1,1,1,1,1,1,1,0,0,0,0,0,0,1,1,1]","location_rts":"[1146,88,20,876,607,1304,2031,656,316,37,7,491,116,28,196,56,4102,244,12,200,193,47,151,310,288]","trial_type":"two-door-navigation","trial_index":44,"time_elapsed":855004,"internal_node_id":"0.0-2.0-42.0"},{"group":"hexagon_tri","room_assignment":["purple","blue","red","grey","green","yellow"],"door_color_assignment":["white","black"],"door_generator_assignment":[0,1],"goal":5,"start":0,"action_noise":0.15,"location_history":"[0,5]","action_history":"[0]","door_history":"[0]","location_rts":"[716]","trial_type":"two-door-navigation","trial_index":45,"time_elapsed":860440,"internal_node_id":"0.0-2.0-43.0"},{"group":"hexagon_tri","room_assignment":["purple","blue","red","grey","green","yellow"],"door_color_assignment":["white","black"],"door_generator_assignment":[0,1],"goal":0,"start":5,"action_noise":0.15,"location_history":"[5,0]","action_history":"[1]","door_history":"[1]","location_rts":"[7084]","trial_type":"two-door-navigation","trial_index":46,"time_elapsed":872991,"internal_node_id":"0.0-2.0-44.0"},{"group":"hexagon_tri","room_assignment":["purple","blue","red","grey","green","yellow"],"door_color_assignment":["white","black"],"door_generator_assignment":[0,1],"goal":2,"start":0,"action_noise":0.15,"location_history":"[0,1,5,0,5,0,1,3,2]","action_history":"[1,1,1,1,1,1,0,0]","door_history":"[1,1,1,1,1,1,0,0]","location_rts":"[505,867,24,115,1548,429,312,527]","trial_type":"two-door-navigation","trial_index":47,"time_elapsed":889609,"internal_node_id":"0.0-2.0-45.0"},{"group":"hexagon_tri","room_assignment":["purple","blue","red","grey","green","yellow"],"door_color_assignment":["white","black"],"door_generator_assignment":[0,1],"goal":4,"start":2,"action_noise":0.15,"location_history":"[2,1,3,4]","action_history":"[0,0,0]","door_history":"[0,0,0]","location_rts":"[777,537,240]","trial_type":"two-door-navigation","trial_index":48,"time_elapsed":897900,"internal_node_id":"0.0-2.0-46.0"},{"group":"hexagon_tri","room_assignment":["purple","blue","red","grey","green","yellow"],"door_color_assignment":["white","black"],"door_generator_assignment":[0,1],"goal":1,"start":4,"action_noise":0.15,"location_history":"[4,0,1]","action_history":"[1,1]","door_history":"[1,1]","location_rts":"[644,360]","trial_type":"two-door-navigation","trial_index":49,"time_elapsed":904569,"internal_node_id":"0.0-2.0-47.0"},{"group":"hexagon_tri","room_assignment":["purple","blue","red","grey","green","yellow"],"door_color_assignment":["white","black"],"door_generator_assignment":[0,1],"goal":5,"start":1,"action_noise":0.15,"location_history":"[1,3,2,1,3,2,3,4,2,3,4,2,1,3,2,1,3,2,3,4,2,3,4,2,3,4,0,5]","action_history":"[0,0,0,0,0,1,1,1,1,1,1,0,0,0,0,0,0,0,1,1,1,1,1,1,1,1,1]","door_history":"[0,0,0,0,0,1,1,1,1,1,1,0,0,0,0,0,0,0,1,1,1,1,1,1,1,1,1]","location_rts":"[656,140,408,244,592,103,8,636,848,781,737,665,308,120,324,376,504,5,3618,264,492,172,332,656,1338,113,675]","trial_type":"two-door-navigation","trial_index":50,"time_elapsed":952257,"internal_node_id":"0.0-2.0-48.0"},{"group":"hexagon_tri","room_assignment":["purple","blue","red","grey","green","yellow"],"door_color_assignment":["white","black"],"door_generator_assignment":[0,1],"goal":3,"start":5,"action_noise":0.15,"location_history":"[5,0,1,3]","action_history":"[1,1,1]","door_history":"[1,1,1]","location_rts":"[523,436,3]","trial_type":"two-door-navigation","trial_index":51,"time_elapsed":959950,"internal_node_id":"0.0-2.0-49.0"},{"view_history":"[{\"page_index\":0,\"viewing_time\":5497}]","rt":5498,"trial_type":"instructions","trial_index":52,"time_elapsed":966448,"internal_node_id":"0.0-3.0"},{"view_history":"[{\"page_index\":0,\"viewing_time\":1373},{\"page_index\":1,\"viewing_time\":4051}]","rt":5428,"trial_type":"instructions","trial_index":53,"time_elapsed":972879,"internal_node_id":"0.0-4.0"},{"group":"hexagon_bi","fractal_assignment":["../images/ylw_slt.png","../images/blu_wht.png","../images/pnk_blu.png","../images/cyn_red.png","../images/org_blu.png","../images/gry_blk.png"],"mutagen_generator_assignment":[0,1],"goal":3,"start":5,"action_noise":0.15,"location_history":"[5,0,5,4,5,4,3]","action_history":"[0,0,1,1,1,0]","mutagen_history":"[0,0,1,1,1,0]","location_rts":"[1550,626,413,278,435,44]","trial_type":"fractal-mutation","trial_index":54,"time_elapsed":986205,"internal_node_id":"0.0-5.0-0.0"},{"group":"hexagon_bi","fractal_assignment":["../images/ylw_slt.png","../images/blu_wht.png","../images/pnk_blu.png","../images/cyn_red.png","../images/org_blu.png","../images/gry_blk.png"],"mutagen_generator_assignment":[0,1],"goal":1,"start":3,"action_noise":0.15,"location_history":"[3,4,5,4,5,0,5,4,3,2,3,2,3,2,1]","action_history":"[0,0,1,1,1,0,0,0,1,1,1,1,0,0]","mutagen_history":"[0,0,1,1,1,0,0,0,1,1,1,1,0,0]","location_rts":"[384,872,24,1336,776,516,48,164,830,28,452,394,356,472]","trial_type":"fractal-mutation","trial_index":55,"time_elapsed":1011468,"internal_node_id":"0.0-5.0-1.0"},{"group":"hexagon_bi","fractal_assignment":["../images/ylw_slt.png","../images/blu_wht.png","../images/pnk_blu.png","../images/cyn_red.png","../images/org_blu.png","../images/gry_blk.png"],"mutagen_generator_assignment":[0,1],"goal":0,"start":1,"action_noise":0.15,"location_history":"[1,0]","action_history":"[1]","mutagen_history":"[1]","location_rts":"[427]","trial_type":"fractal-mutation","trial_index":56,"time_elapsed":1016493,"internal_node_id":"0.0-5.0-2.0"},{"group":"hexagon_bi","fractal_assignment":["../images/ylw_slt.png","../images/blu_wht.png","../images/pnk_blu.png","../images/cyn_red.png","../images/org_blu.png","../images/gry_blk.png"],"mutagen_generator_assignment":[0,1],"goal":3,"start":0,"action_noise":0.15,"location_history":"[0,5,4,3]","action_history":"[0,1,0]","mutagen_history":"[0,1,0]","location_rts":"[340,552,71]","trial_type":"fractal-mutation","trial_index":57,"time_elapsed":1024162,"internal_node_id":"0.0-5.0-3.0"},{"group":"hexagon_bi","fractal_assignment":["../images/ylw_slt.png","../images/blu_wht.png","../images/pnk_blu.png","../images/cyn_red.png","../images/org_blu.png","../images/gry_blk.png"],"mutagen_generator_assignment":[0,1],"goal":4,"start":3,"action_noise":0.15,"location_history":"[3,4]","action_history":"[0]","mutagen_history":"[0]","location_rts":"[500]","trial_type":"fractal-mutation","trial_index":58,"time_elapsed":1029236,"internal_node_id":"0.0-5.0-4.0"},{"group":"hexagon_bi","fractal_assignment":["../images/ylw_slt.png","../images/blu_wht.png","../images/pnk_blu.png","../images/cyn_red.png","../images/org_blu.png","../images/gry_blk.png"],"mutagen_generator_assignment":[0,1],"goal":2,"start":4,"action_noise":0.15,"location_history":"[4,3,2]","action_history":"[0,1]","mutagen_history":"[0,1]","location_rts":"[436,227]","trial_type":"fractal-mutation","trial_index":59,"time_elapsed":1035532,"internal_node_id":"0.0-5.0-5.0"},{"group":"hexagon_bi","fractal_assignment":["../images/ylw_slt.png","../images/blu_wht.png","../images/pnk_blu.png","../images/cyn_red.png","../images/org_blu.png","../images/gry_blk.png"],"mutagen_generator_assignment":[0,1],"goal":1,"start":2,"action_noise":0.15,"location_history":"[2,3,2,3,4,5,0,5,0,5,0,1]","action_history":"[0,1,1,0,1,0,0,0,0,0,1]","mutagen_history":"[0,1,1,0,1,0,0,0,0,0,1]","location_rts":"[333,784,297,668,596,328,644,692,440,587,400]","trial_type":"fractal-mutation","trial_index":60,"time_elapsed":1056551,"internal_node_id":"0.0-5.0-6.0"},{"group":"hexagon_bi","fractal_assignment":["../images/ylw_slt.png","../images/blu_wht.png","../images/pnk_blu.png","../images/cyn_red.png","../images/org_blu.png","../images/gry_blk.png"],"mutagen_generator_assignment":[0,1],"goal":5,"start":1,"action_noise":0.15,"location_history":"[1,0,1,2,1,0,1,0,5]","action_history":"[0,1,0,0,1,1,1,0]","mutagen_history":"[0,1,0,0,1,1,1,0]","location_rts":"[364,226,908,303,305,738,475,374]","trial_type":"fractal-mutation","trial_index":61,"time_elapsed":1072630,"internal_node_id":"0.0-5.0-7.0"},{"group":"hexagon_bi","fractal_assignment":["../images/ylw_slt.png","../images/blu_wht.png","../images/pnk_blu.png","../images/cyn_red.png","../images/org_blu.png","../images/gry_blk.png"],"mutagen_generator_assignment":[0,1],"goal":4,"start":5,"action_noise":0.15,"location_history":"[5,4]","action_history":"[0]","mutagen_history":"[0]","location_rts":"[389]","trial_type":"fractal-mutation","trial_index":62,"time_elapsed":1077586,"internal_node_id":"0.0-5.0-8.0"},{"group":"hexagon_bi","fractal_assignment":["../images/ylw_slt.png","../images/blu_wht.png","../images/pnk_blu.png","../images/cyn_red.png","../images/org_blu.png","../images/gry_blk.png"],"mutagen_generator_assignment":[0,1],"goal":2,"start":4,"action_noise":0.15,"location_history":"[4,3,2]","action_history":"[0,1]","mutagen_history":"[0,1]","location_rts":"[359,700]","trial_type":"fractal-mutation","trial_index":63,"time_elapsed":1084316,"internal_node_id":"0.0-5.0-9.0"},{"group":"hexagon_bi","fractal_assignment":["../images/ylw_slt.png","../images/blu_wht.png","../images/pnk_blu.png","../images/cyn_red.png","../images/org_blu.png","../images/gry_blk.png"],"mutagen_generator_assignment":[0,1],"goal":0,"start":2,"action_noise":0.15,"location_history":"[2,1,2,3,2,3,2,1,0]","action_history":"[0,0,1,1,1,1,0,1]","mutagen_history":"[0,0,1,1,1,1,0,1]","location_rts":"[91,480,90,123,149,324,745,396]","trial_type":"fractal-mutation","trial_index":64,"time_elapsed":1098914,"internal_node_id":"0.0-5.0-10.0"},{"group":"hexagon_bi","fractal_assignment":["../images/ylw_slt.png","../images/blu_wht.png","../images/pnk_blu.png","../images/cyn_red.png","../images/org_blu.png","../images/gry_blk.png"],"mutagen_generator_assignment":[0,1],"goal":1,"start":0,"action_noise":0.15,"location_history":"[0,1]","action_history":"[1]","mutagen_history":"[1]","location_rts":"[199]","trial_type":"fractal-mutation","trial_index":65,"time_elapsed":1103689,"internal_node_id":"0.0-5.0-11.0"},{"group":"hexagon_bi","fractal_assignment":["../images/ylw_slt.png","../images/blu_wht.png","../images/pnk_blu.png","../images/cyn_red.png","../images/org_blu.png","../images/gry_blk.png"],"mutagen_generator_assignment":[0,1],"goal":3,"start":1,"action_noise":0.15,"location_history":"[1,0,5,4,3]","action_history":"[1,0,0,1]","mutagen_history":"[1,0,0,1]","location_rts":"[754,304,1320,571]","trial_type":"fractal-mutation","trial_index":66,"time_elapsed":1114423,"internal_node_id":"0.0-5.0-12.0"},{"group":"hexagon_bi","fractal_assignment":["../images/ylw_slt.png","../images/blu_wht.png","../images/pnk_blu.png","../images/cyn_red.png","../images/org_blu.png","../images/gry_blk.png"],"mutagen_generator_assignment":[0,1],"goal":5,"start":3,"action_noise":0.15,"location_history":"[3,4,5]","action_history":"[0,1]","mutagen_history":"[0,1]","location_rts":"[340,524]","trial_type":"fractal-mutation","trial_index":67,"time_elapsed":1120944,"internal_node_id":"0.0-5.0-13.0"},{"group":"hexagon_bi","fractal_assignment":["../images/ylw_slt.png","../images/blu_wht.png","../images/pnk_blu.png","../images/cyn_red.png","../images/org_blu.png","../images/gry_blk.png"],"mutagen_generator_assignment":[0,1],"goal":4,"start":5,"action_noise":0.15,"location_history":"[5,0,1,2,3,2,1,2,1,2,3,2,1,2,1,2,1,2,3,2,3,4]","action_history":"[0,1,1,1,1,1,0,1,0,0,1,0,0,0,0,0,0,1,1,1,0]","mutagen_history":"[0,1,1,1,1,1,0,1,0,0,1,0,0,0,0,0,0,1,1,1,0]","location_rts":"[360,374,501,518,497,396,509,266,364,72,388,672,92,848,692,484,332,808,88,1408,248]","trial_type":"fractal-mutation","trial_index":68,"time_elapsed":1156954,"internal_node_id":"0.0-5.0-14.0"},{"group":"hexagon_bi","fractal_assignment":["../images/ylw_slt.png","../images/blu_wht.png","../images/pnk_blu.png","../images/cyn_red.png","../images/org_blu.png","../images/gry_blk.png"],"mutagen_generator_assignment":[0,1],"goal":0,"start":4,"action_noise":0.15,"location_history":"[4,3,2,3,2,3,2,3,2,3,4,3,4,5,4,3,4,3,2,1,0]","action_history":"[0,1,1,1,1,1,0,1,1,0,0,1,1,1,0,0,0,1,1,1]","mutagen_history":"[0,1,1,1,1,1,0,1,1,0,0,1,1,1,0,0,0,1,1,1]","location_rts":"[420,500,885,590,140,307,2183,304,64,508,406,392,388,172,300,180,428,328,484,8]","trial_type":"fractal-mutation","trial_index":69,"time_elapsed":1190903,"internal_node_id":"0.0-5.0-15.0"},{"group":"hexagon_bi","fractal_assignment":["../images/ylw_slt.png","../images/blu_wht.png","../images/pnk_blu.png","../images/cyn_red.png","../images/org_blu.png","../images/gry_blk.png"],"mutagen_generator_assignment":[0,1],"goal":3,"start":0,"action_noise":0.15,"location_history":"[0,1,2,1,2,3]","action_history":"[0,1,0,0,1]","mutagen_history":"[0,1,0,0,1]","location_rts":"[45703,559,116,8655,20]","trial_type":"fractal-mutation","trial_index":70,"time_elapsed":1255077,"internal_node_id":"0.0-5.0-16.0"},{"group":"hexagon_bi","fractal_assignment":["../images/ylw_slt.png","../images/blu_wht.png","../images/pnk_blu.png","../images/cyn_red.png","../images/org_blu.png","../images/gry_blk.png"],"mutagen_generator_assignment":[0,1],"goal":1,"start":3,"action_noise":0.15,"location_history":"[3,4,5,4,3,2,1]","action_history":"[1,1,1,0,1,0]","mutagen_history":"[1,1,1,0,1,0]","location_rts":"[33317,129,785,35,357,741]","trial_type":"fractal-mutation","trial_index":71,"time_elapsed":1300623,"internal_node_id":"0.0-5.0-17.0"},{"group":"hexagon_bi","fractal_assignment":["../images/ylw_slt.png","../images/blu_wht.png","../images/pnk_blu.png","../images/cyn_red.png","../images/org_blu.png","../images/gry_blk.png"],"mutagen_generator_assignment":[0,1],"goal":5,"start":1,"action_noise":0.15,"location_history":"[1,2,3,4,3,2,3,2,1,2,1,2,1,2,1,0,5]","action_history":"[0,1,0,1,1,1,1,0,0,0,0,0,0,0,0,0]","mutagen_history":"[0,1,0,1,1,1,1,0,0,0,0,0,0,0,0,0]","location_rts":"[506,416,760,117,72,213,594,159,288,442,407,770,442,781,522,746]","trial_type":"fractal-mutation","trial_index":72,"time_elapsed":1328630,"internal_node_id":"0.0-5.0-18.0"},{"group":"hexagon_bi","fractal_assignment":["../images/ylw_slt.png","../images/blu_wht.png","../images/pnk_blu.png","../images/cyn_red.png","../images/org_blu.png","../images/gry_blk.png"],"mutagen_generator_assignment":[0,1],"goal":2,"start":5,"action_noise":0.15,"location_history":"[5,4,3,4,3,4,5,4,3,4,3,4,5,4,5,4,5,0,1,0,1,0,1,0,1,2]","action_history":"[0,0,0,0,0,1,1,0,0,0,0,1,1,1,1,1,1,1,1,1,1,1,1,0,0]","mutagen_history":"[0,0,0,0,0,1,1,0,0,0,0,1,1,1,1,1,1,1,1,1,1,1,1,0,0]","location_rts":"[480,482,312,384,570,445,221,242,568,255,251,187,729,250,84,107,471,329,445,344,360,312,400,292,309]","trial_type":"fractal-mutation","trial_index":73,"time_elapsed":1368373,"internal_node_id":"0.0-5.0-19.0"},{"group":"hexagon_bi","fractal_assignment":["../images/ylw_slt.png","../images/blu_wht.png","../images/pnk_blu.png","../images/cyn_red.png","../images/org_blu.png","../images/gry_blk.png"],"mutagen_generator_assignment":[0,1],"goal":4,"start":2,"action_noise":0.15,"location_history":"[2,1,2,3,4]","action_history":"[0,0,0,0]","mutagen_history":"[0,0,0,0]","location_rts":"[67,171,872,507]","trial_type":"fractal-mutation","trial_index":74,"time_elapsed":1377788,"internal_node_id":"0.0-5.0-20.0"},{"group":"hexagon_bi","fractal_assignment":["../images/ylw_slt.png","../images/blu_wht.png","../images/pnk_blu.png","../images/cyn_red.png","../images/org_blu.png","../images/gry_blk.png"],"mutagen_generator_assignment":[0,1],"goal":1,"start":4,"action_noise":0.15,"location_history":"[4,5,0,1]","action_history":"[0,1,1]","mutagen_history":"[0,1,1]","location_rts":"[396,460,563]","trial_type":"fractal-mutation","trial_index":75,"time_elapsed":1385968,"internal_node_id":"0.0-5.0-21.0"},{"group":"hexagon_bi","fractal_assignment":["../images/ylw_slt.png","../images/blu_wht.png","../images/pnk_blu.png","../images/cyn_red.png","../images/org_blu.png","../images/gry_blk.png"],"mutagen_generator_assignment":[0,1],"goal":3,"start":1,"action_noise":0.15,"location_history":"[1,2,1,0,1,0,1,0,1,2,1,0,5,0,1,0,1,2,1,2,1,2,3]","action_history":"[0,0,1,1,1,1,1,1,1,0,0,0,0,1,1,1,0,0,0,0,0,1]","mutagen_history":"[0,0,1,1,1,1,1,1,1,0,0,0,0,1,1,1,0,0,0,0,0,1]","location_rts":"[208,37,493,1176,391,682,28,588,260,733,837,40,272,184,636,383,612,500,408,628,543,868]","trial_type":"fractal-mutation","trial_index":76,"time_elapsed":1423600,"internal_node_id":"0.0-5.0-22.0"},{"group":"hexagon_bi","fractal_assignment":["../images/ylw_slt.png","../images/blu_wht.png","../images/pnk_blu.png","../images/cyn_red.png","../images/org_blu.png","../images/gry_blk.png"],"mutagen_generator_assignment":[0,1],"goal":2,"start":3,"action_noise":0.15,"location_history":"[3,4,5,0,1,2]","action_history":"[0,1,0,1,0]","mutagen_history":"[0,1,0,1,0]","location_rts":"[512,428,744,528,844]","trial_type":"fractal-mutation","trial_index":77,"time_elapsed":1435506,"internal_node_id":"0.0-5.0-23.0"},{"group":"hexagon_bi","fractal_assignment":["../images/ylw_slt.png","../images/blu_wht.png","../images/pnk_blu.png","../images/cyn_red.png","../images/org_blu.png","../images/gry_blk.png"],"mutagen_generator_assignment":[0,1],"goal":0,"start":2,"action_noise":0.15,"location_history":"[2,1,0]","action_history":"[0,1]","mutagen_history":"[0,1]","location_rts":"[428,453]","trial_type":"fractal-mutation","trial_index":78,"time_elapsed":1442039,"internal_node_id":"0.0-5.0-24.0"},{"group":"hexagon_bi","fractal_assignment":["../images/ylw_slt.png","../images/blu_wht.png","../images/pnk_blu.png","../images/cyn_red.png","../images/org_blu.png","../images/gry_blk.png"],"mutagen_generator_assignment":[0,1],"goal":5,"start":0,"action_noise":0.15,"location_history":"[0,5]","action_history":"[0]","mutagen_history":"[0]","location_rts":"[520]","trial_type":"fractal-mutation","trial_index":79,"time_elapsed":1447128,"internal_node_id":"0.0-5.0-25.0"},{"group":"hexagon_bi","fractal_assignment":["../images/ylw_slt.png","../images/blu_wht.png","../images/pnk_blu.png","../images/cyn_red.png","../images/org_blu.png","../images/gry_blk.png"],"mutagen_generator_assignment":[0,1],"goal":2,"start":5,"action_noise":0.15,"location_history":"[5,4,5,4,3,2]","action_history":"[0,1,1,0,1]","mutagen_history":"[0,1,1,0,1]","location_rts":"[484,750,63,548,80]","trial_type":"fractal-mutation","trial_index":80,"time_elapsed":1457970,"internal_node_id":"0.0-5.0-26.0"},{"group":"hexagon_bi","fractal_assignment":["../images/ylw_slt.png","../images/blu_wht.png","../images/pnk_blu.png","../images/cyn_red.png","../images/org_blu.png","../images/gry_blk.png"],"mutagen_generator_assignment":[0,1],"goal":3,"start":2,"action_noise":0.15,"location_history":"[2,1,2,3]","action_history":"[0,0,1]","mutagen_history":"[0,0,1]","location_rts":"[308,869,942]","trial_type":"fractal-mutation","trial_index":81,"time_elapsed":1466837,"internal_node_id":"0.0-5.0-27.0"},{"group":"hexagon_bi","fractal_assignment":["../images/ylw_slt.png","../images/blu_wht.png","../images/pnk_blu.png","../images/cyn_red.png","../images/org_blu.png","../images/gry_blk.png"],"mutagen_generator_assignment":[0,1],"goal":0,"start":3,"action_noise":0.15,"location_history":"[3,2,3,2,3,4,3,4,3,4,3,4,3,2,3,2,3,2,3,2,1,2,1,2,1,2,1,0]","action_history":"[1,1,1,1,0,0,0,0,0,0,0,0,1,1,1,1,1,1,0,0,0,0,0,0,0,0,1]","mutagen_history":"[1,1,1,1,0,0,0,0,0,0,0,0,1,1,1,1,1,1,0,0,0,0,0,0,0,0,1]","location_rts":"[581,223,346,357,613,24,457,508,590,1580,336,604,744,440,596,440,248,208,292,1970,684,224,830,684,873,533,411]","trial_type":"fractal-mutation","trial_index":82,"time_elapsed":1514995,"internal_node_id":"0.0-5.0-28.0"},{"group":"hexagon_bi","fractal_assignment":["../images/ylw_slt.png","../images/blu_wht.png","../images/pnk_blu.png","../images/cyn_red.png","../images/org_blu.png","../images/gry_blk.png"],"mutagen_generator_assignment":[0,1],"goal":1,"start":0,"action_noise":0.15,"location_history":"[0,5,4,3,4,5,4,5,4,5,4,5,0,1]","action_history":"[0,0,0,0,1,1,1,0,1,1,1,0,0]","mutagen_history":"[0,0,0,0,1,1,1,0,1,1,1,0,0]","location_rts":"[323,480,392,520,414,612,180,408,452,596,396,416,587]","trial_type":"fractal-mutation","trial_index":83,"time_elapsed":1538349,"internal_node_id":"0.0-5.0-29.0"},{"group":"hexagon_bi","fractal_assignment":["../images/ylw_slt.png","../images/blu_wht.png","../images/pnk_blu.png","../images/cyn_red.png","../images/org_blu.png","../images/gry_blk.png"],"mutagen_generator_assignment":[0,1],"goal":4,"start":1,"action_noise":0.15,"location_history":"[1,2,1,2,1,2,1,2,1,0,5,0,5,0,5,4]","action_history":"[0,0,0,0,0,0,1,0,0,0,0,0,0,0,0]","mutagen_history":"[0,0,0,0,0,0,1,0,0,0,0,0,0,0,0]","location_rts":"[353,374,65,47,59,956,462,3924,457,22,170,819,653,6502,286]","trial_type":"fractal-mutation","trial_index":84,"time_elapsed":1572990,"internal_node_id":"0.0-5.0-30.0"},{"group":"hexagon_bi","fractal_assignment":["../images/ylw_slt.png","../images/blu_wht.png","../images/pnk_blu.png","../images/cyn_red.png","../images/org_blu.png","../images/gry_blk.png"],"mutagen_generator_assignment":[0,1],"goal":5,"start":4,"action_noise":0.15,"location_history":"[4,3,2,1,2,1,0,1,0,5]","action_history":"[0,1,1,0,1,1,1,0,0]","mutagen_history":"[0,1,1,0,1,1,1,0,0]","location_rts":"[486,1223,503,585,43,565,624,470,671]","trial_type":"fractal-mutation","trial_index":85,"time_elapsed":1591135,"internal_node_id":"0.0-5.0-31.0"},{"group":"hexagon_bi","fractal_assignment":["../images/ylw_slt.png","../images/blu_wht.png","../images/pnk_blu.png","../images/cyn_red.png","../images/org_blu.png","../images/gry_blk.png"],"mutagen_generator_assignment":[0,1],"goal":0,"start":5,"action_noise":0.15,"location_history":"[5,0]","action_history":"[0]","mutagen_history":"[0]","location_rts":"[480]","trial_type":"fractal-mutation","trial_index":86,"time_elapsed":1596173,"internal_node_id":"0.0-5.0-32.0"},{"group":"hexagon_bi","fractal_assignment":["../images/ylw_slt.png","../images/blu_wht.png","../images/pnk_blu.png","../images/cyn_red.png","../images/org_blu.png","../images/gry_blk.png"],"mutagen_generator_assignment":[0,1],"goal":3,"start":0,"action_noise":0.15,"location_history":"[0,5,4,5,0,1,0,1,0,1,0,5,4,5,4,5,4,5,4,5,0,5,0,1,0,1,0,5,0,1,0,1,0,1,0,1,0,1,0,5,0,5,4,5,4,5,0,1,0,1,0,1,0,5,0,5,4,5,4,5,4,3]","action_history":"[0,1,1,0,1,1,1,1,1,1,0,1,1,1,1,1,1,1,1,0,1,1,1,1,1,1,0,0,1,1,1,1,1,1,1,1,1,1,0,0,1,1,1,0,0,0,1,1,1,1,1,1,0,0,0,0,1,1,1,1,1]","mutagen_history":"[0,1,1,0,1,1,1,1,1,1,0,1,1,1,1,1,1,1,1,0,1,1,1,1,1,1,0,0,1,1,1,1,1,1,1,1,1,1,0,0,1,1,1,0,0,0,1,1,1,1,1,1,0,0,0,0,1,1,1,1,1]","location_rts":"[340,10,72,1066,699,336,529,528,38,878,1032,366,76,1511,110,404,18,899,241,790,732,465,275,136,1374,305,1862,828,526,23,1637,301,46,714,120,198,63,1367,697,139,561,939,145,692,269,461,432,422,892,669,219,48,212,451,674,389,746,693,83,182,103]","trial_type":"fractal-mutation","trial_index":87,"time_elapsed":1694913,"internal_node_id":"0.0-5.0-33.0"},{"group":"hexagon_bi","fractal_assignment":["../images/ylw_slt.png","../images/blu_wht.png","../images/pnk_blu.png","../images/cyn_red.png","../images/org_blu.png","../images/gry_blk.png"],"mutagen_generator_assignment":[0,1],"goal":1,"start":3,"action_noise":0.15,"location_history":"[3,4,5,4,3,2,3,4,5,4,5,0,5,4,5,4,3,4,3,2,3,2,3,2,1]","action_history":"[0,1,1,1,1,1,0,1,1,1,0,0,1,1,1,0,0,0,1,1,1,1,0,0]","mutagen_history":"[0,1,1,1,1,1,0,1,1,1,0,0,1,1,1,0,0,0,1,1,1,1,0,0]","location_rts":"[348,626,59,878,608,617,162,488,432,789,627,75,559,589,880,624,378,777,821,141,541,18,896,145]","trial_type":"fractal-mutation","trial_index":88,"time_elapsed":1735756,"internal_node_id":"0.0-5.0-34.0"},{"group":"hexagon_bi","fractal_assignment":["../images/ylw_slt.png","../images/blu_wht.png","../images/pnk_blu.png","../images/cyn_red.png","../images/org_blu.png","../images/gry_blk.png"],"mutagen_generator_assignment":[0,1],"goal":2,"start":1,"action_noise":0.15,"location_history":"[1,2]","action_history":"[0]","mutagen_history":"[0]","location_rts":"[409]","trial_type":"fractal-mutation","trial_index":89,"time_elapsed":1740711,"internal_node_id":"0.0-5.0-35.0"},{"group":"hexagon_bi","fractal_assignment":["../images/ylw_slt.png","../images/blu_wht.png","../images/pnk_blu.png","../images/cyn_red.png","../images/org_blu.png","../images/gry_blk.png"],"mutagen_generator_assignment":[0,1],"goal":4,"start":2,"action_noise":0.15,"location_history":"[2,3,4]","action_history":"[1,0]","mutagen_history":"[1,0]","location_rts":"[433,543]","trial_type":"fractal-mutation","trial_index":90,"time_elapsed":1747320,"internal_node_id":"0.0-5.0-36.0"},{"group":"hexagon_bi","fractal_assignment":["../images/ylw_slt.png","../images/blu_wht.png","../images/pnk_blu.png","../images/cyn_red.png","../images/org_blu.png","../images/gry_blk.png"],"mutagen_generator_assignment":[0,1],"goal":5,"start":4,"action_noise":0.15,"location_history":"[4,3,2,1,2,3,2,3,2,1,2,1,2,1,0,1,0,5]","action_history":"[0,1,0,0,1,1,1,0,0,0,1,0,0,1,1,1,1]","mutagen_history":"[0,1,0,0,1,1,1,0,0,0,1,0,0,1,1,1,1]","location_rts":"[397,593,696,847,758,24,857,706,46,670,739,117,1446,2032,177,359,52]","trial_type":"fractal-mutation","trial_index":91,"time_elapsed":1779245,"internal_node_id":"0.0-5.0-37.0"},{"group":"hexagon_bi","fractal_assignment":["../images/ylw_slt.png","../images/blu_wht.png","../images/pnk_blu.png","../images/cyn_red.png","../images/org_blu.png","../images/gry_blk.png"],"mutagen_generator_assignment":[0,1],"goal":1,"start":5,"action_noise":0.15,"location_history":"[5,4,5,4,5,4,3,2,1]","action_history":"[0,1,1,1,1,1,1,0]","mutagen_history":"[0,1,1,1,1,1,1,0]","location_rts":"[1117,731,173,685,713,578,928,1548]","trial_type":"fractal-mutation","trial_index":92,"time_elapsed":1797771,"internal_node_id":"0.0-5.0-38.0"},{"group":"hexagon_bi","fractal_assignment":["../images/ylw_slt.png","../images/blu_wht.png","../images/pnk_blu.png","../images/cyn_red.png","../images/org_blu.png","../images/gry_blk.png"],"mutagen_generator_assignment":[0,1],"goal":4,"start":1,"action_noise":0.15,"location_history":"[1,0,1,2,1,2,1,0,5,0,1,0,5,0,5,0,1,0,1,0,1,0,1,2,1,2,1,2,3,4]","action_history":"[0,1,1,0,0,0,0,0,0,1,1,1,0,0,0,0,0,1,1,1,1,0,0,0,0,0,0,0,0]","mutagen_history":"[0,1,1,0,0,0,0,0,0,1,1,1,0,0,0,0,0,1,1,1,1,0,0,0,0,0,0,0,0]","location_rts":"[484,537,474,1478,543,718,184,799,671,339,731,765,820,164,121,11,765,457,725,478,453,174,72,478,953,517,23,395,760]","trial_type":"fractal-mutation","trial_index":93,"time_elapsed":1846729,"internal_node_id":"0.0-5.0-39.0"},{"group":"hexagon_bi","fractal_assignment":["../images/ylw_slt.png","../images/blu_wht.png","../images/pnk_blu.png","../images/cyn_red.png","../images/org_blu.png","../images/gry_blk.png"],"mutagen_generator_assignment":[0,1],"goal":3,"start":4,"action_noise":0.15,"location_history":"[4,3]","action_history":"[0]","mutagen_history":"[0]","location_rts":"[450]","trial_type":"fractal-mutation","trial_index":94,"time_elapsed":1851746,"internal_node_id":"0.0-5.0-40.0"},{"group":"hexagon_bi","fractal_assignment":["../images/ylw_slt.png","../images/blu_wht.png","../images/pnk_blu.png","../images/cyn_red.png","../images/org_blu.png","../images/gry_blk.png"],"mutagen_generator_assignment":[0,1],"goal":2,"start":3,"action_noise":0.15,"location_history":"[3,4,5,0,1,0,1,0,1,0,1,0,5,4,5,4,5,0,5,0,1,0,1,0,1,0,1,0,5,4,3,4,5,0,1,2]","action_history":"[0,1,1,1,1,1,1,1,1,1,1,0,0,1,1,1,0,0,0,1,1,1,1,1,1,1,1,0,0,0,0,0,0,0,0]","mutagen_history":"[0,1,1,1,1,1,1,1,1,1,1,0,0,1,1,1,0,0,0,1,1,1,1,1,1,1,1,0,0,0,0,0,0,0,0]","location_rts":"[360,437,858,2130,409,311,602,198,752,9,934,289,363,351,521,757,57,207,1288,273,292,406,57,910,646,973,459,54,1025,39,273,552,729,595,37]","trial_type":"fractal-mutation","trial_index":95,"time_elapsed":1910105,"internal_node_id":"0.0-5.0-41.0"},{"group":"hexagon_bi","fractal_assignment":["../images/ylw_slt.png","../images/blu_wht.png","../images/pnk_blu.png","../images/cyn_red.png","../images/org_blu.png","../images/gry_blk.png"],"mutagen_generator_assignment":[0,1],"goal":0,"start":2,"action_noise":0.15,"location_history":"[2,1,0]","action_history":"[0,1]","mutagen_history":"[0,1]","location_rts":"[604,368]","trial_type":"fractal-mutation","trial_index":96,"time_elapsed":1916663,"internal_node_id":"0.0-5.0-42.0"},{"group":"hexagon_bi","fractal_assignment":["../images/ylw_slt.png","../images/blu_wht.png","../images/pnk_blu.png","../images/cyn_red.png","../images/org_blu.png","../images/gry_blk.png"],"mutagen_generator_assignment":[0,1],"goal":5,"start":0,"action_noise":0.15,"location_history":"[0,5]","action_history":"[0]","mutagen_history":"[0]","location_rts":"[451]","trial_type":"fractal-mutation","trial_index":97,"time_elapsed":1921680,"internal_node_id":"0.0-5.0-43.0"},{"group":"hexagon_bi","fractal_assignment":["../images/ylw_slt.png","../images/blu_wht.png","../images/pnk_blu.png","../images/cyn_red.png","../images/org_blu.png","../images/gry_blk.png"],"mutagen_generator_assignment":[0,1],"goal":0,"start":5,"action_noise":0.15,"location_history":"[5,0]","action_history":"[0]","mutagen_history":"[0]","location_rts":"[558]","trial_type":"fractal-mutation","trial_index":98,"time_elapsed":1926802,"internal_node_id":"0.0-5.0-44.0"},{"group":"hexagon_bi","fractal_assignment":["../images/ylw_slt.png","../images/blu_wht.png","../images/pnk_blu.png","../images/cyn_red.png","../images/org_blu.png","../images/gry_blk.png"],"mutagen_generator_assignment":[0,1],"goal":2,"start":0,"action_noise":0.15,"location_history":"[0,1,2]","action_history":"[0,1]","mutagen_history":"[0,1]","location_rts":"[386,499]","trial_type":"fractal-mutation","trial_index":99,"time_elapsed":1933286,"internal_node_id":"0.0-5.0-45.0"},{"group":"hexagon_bi","fractal_assignment":["../images/ylw_slt.png","../images/blu_wht.png","../images/pnk_blu.png","../images/cyn_red.png","../images/org_blu.png","../images/gry_blk.png"],"mutagen_generator_assignment":[0,1],"goal":4,"start":2,"action_noise":0.15,"location_history":"[2,1,0,5,0,5,4]","action_history":"[0,0,0,0,0,1]","mutagen_history":"[0,0,0,0,0,1]","location_rts":"[496,365,699,475,639,129]","trial_type":"fractal-mutation","trial_index":100,"time_elapsed":1945873,"internal_node_id":"0.0-5.0-46.0"},{"group":"hexagon_bi","fractal_assignment":["../images/ylw_slt.png","../images/blu_wht.png","../images/pnk_blu.png","../images/cyn_red.png","../images/org_blu.png","../images/gry_blk.png"],"mutagen_generator_assignment":[0,1],"goal":1,"start":4,"action_noise":0.15,"location_history":"[4,3,2,3,2,1]","action_history":"[0,1,1,1,0]","mutagen_history":"[0,1,1,1,0]","location_rts":"[341,409,15,58,79]","trial_type":"fractal-mutation","trial_index":101,"time_elapsed":1955527,"internal_node_id":"0.0-5.0-47.0"},{"group":"hexagon_bi","fractal_assignment":["../images/ylw_slt.png","../images/blu_wht.png","../images/pnk_blu.png","../images/cyn_red.png","../images/org_blu.png","../images/gry_blk.png"],"mutagen_generator_assignment":[0,1],"goal":5,"start":1,"action_noise":0.15,"location_history":"[1,0,1,2,3,4,5]","action_history":"[1,1,0,1,0,1]","mutagen_history":"[1,1,0,1,0,1]","location_rts":"[808,401,458,145,203,406]","trial_type":"fractal-mutation","trial_index":102,"time_elapsed":1967773,"internal_node_id":"0.0-5.0-48.0"},{"group":"hexagon_bi","fractal_assignment":["../images/ylw_slt.png","../images/blu_wht.png","../images/pnk_blu.png","../images/cyn_red.png","../images/org_blu.png","../images/gry_blk.png"],"mutagen_generator_assignment":[0,1],"goal":3,"start":5,"action_noise":0.15,"location_history":"[5,0,1,0,1,2,1,2,3]","action_history":"[1,1,1,1,0,0,0,0]","mutagen_history":"[1,1,1,1,0,0,0,0]","location_rts":"[1110,1595,231,391,145,429,9,85]","trial_type":"fractal-mutation","trial_index":103,"time_elapsed":1983620,"internal_node_id":"0.0-5.0-49.0"},{"view_history":"[{\"page_index\":0,\"viewing_time\":8216}]","rt":8217,"trial_type":"instructions","trial_index":104,"time_elapsed":1992837,"internal_node_id":"0.0-6.0"},{"rt":2301,"responses":"{\"Q0\":\"\"}","trial_type":"survey-text","trial_index":105,"time_elapsed":1996159,"internal_node_id":"0.0-7.0"}]