[{"view_history":"[{\"page_index\":0,\"viewing_time\":2048},{\"page_index\":1,\"viewing_time\":10673}]","rt":12721,"trial_type":"instructions","trial_index":0,"time_elapsed":12722,"internal_node_id":"0.0-0.0"},{"view_history":"[{\"page_index\":0,\"viewing_time\":6589},{\"page_index\":1,\"viewing_time\":2976}]","rt":9566,"trial_type":"instructions","trial_index":1,"time_elapsed":23292,"internal_node_id":"0.0-1.0"},{"group":"hexagon_tri","room_assignment":["green","red","blue","yellow","purple","grey"],"door_color_assignment":["white","black"],"door_generator_assignment":[1,0],"goal":3,"start":5,"action_noise":0.15,"location_history":"[5,0,1,5,4,0,5,4,0,1,5,4,2,3]","action_history":"[1,1,1,0,0,0,0,0,1,1,0,1,1]","door_history":"[0,0,0,1,1,1,1,1,0,0,1,0,0]","location_rts":"[2733,552,648,1864,526,540,487,1328,926,653,402,1693,2024]","trial_type":"two-door-navigation","trial_index":2,"time_elapsed":55161,"internal_node_id":"0.0-2.0-0.0"},{"group":"hexagon_tri","room_assignment":["green","red","blue","yellow","purple","grey"],"door_color_assignment":["white","black"],"door_generator_assignment":[1,0],"goal":1,"start":3,"action_noise":0.15,"location_history":"[3,4,2,3,2,1]","action_history":"[1,1,1,0,0]","door_history":"[0,0,0,1,1]","location_rts":"[1887,1580,782,1525,492]","trial_type":"two-door-navigation","trial_index":3,"time_elapsed":70299,"internal_node_id":"0.0-2.0-1.0"},{"group":"hexagon_tri","room_assignment":["green","red","blue","yellow","purple","grey"],"door_color_assignment":["white","black"],"door_generator_assignment":[1,0],"goal":0,"start":1,"action_noise":0.15,"location_history":"[1,5,0]","action_history":"[1,1]","door_history":"[0,0]","location_rts":"[2103,769]","trial_type":"two-door-navigation","trial_index":4,"time_elapsed":78842,"internal_node_id":"0.0-2.0-2.0"},{"group":"hexagon_tri","room_assignment":["green","red","blue","yellow","purple","grey"],"door_color_assignment":["white","black"],"door_generator_assignment":[1,0],"goal":3,"start":0,"action_noise":0.15,"location_history":"[0,5,0,5,4,2,3]","action_history":"[0,0,0,0,1,1]","door_history":"[1,1,1,1,0,0]","location_rts":"[2394,434,485,577,645,541]","trial_type":"two-door-navigation","trial_index":5,"time_elapsed":93861,"internal_node_id":"0.0-2.0-3.0"},{"group":"hexagon_tri","room_assignment":["green","red","blue","yellow","purple","grey"],"door_color_assignment":["white","black"],"door_generator_assignment":[1,0],"goal":4,"start":3,"action_noise":0.15,"location_history":"[3,4]","action_history":"[1]","door_history":"[0]","location_rts":"[3638]","trial_type":"two-door-navigation","trial_index":6,"time_elapsed":102098,"internal_node_id":"0.0-2.0-4.0"},{"group":"hexagon_tri","room_assignment":["green","red","blue","yellow","purple","grey"],"door_color_assignment":["white","black"],"door_generator_assignment":[1,0],"goal":2,"start":4,"action_noise":0.15,"location_history":"[4,0,5,4,2]","action_history":"[0,0,0,0]","door_history":"[1,1,1,1]","location_rts":"[954,536,461,778]","trial_type":"two-door-navigation","trial_index":7,"time_elapsed":112643,"internal_node_id":"0.0-2.0-5.0"},{"group":"hexagon_tri","room_assignment":["green","red","blue","yellow","purple","grey"],"door_color_assignment":["white","black"],"door_generator_assignment":[1,0],"goal":1,"start":2,"action_noise":0.15,"location_history":"[2,3,4,2,1]","action_history":"[1,1,1,0]","door_history":"[0,0,0,1]","location_rts":"[1723,753,790,1995]","trial_type":"two-door-navigation","trial_index":8,"time_elapsed":125709,"internal_node_id":"0.0-2.0-6.0"},{"group":"hexagon_tri","room_assignment":["green","red","blue","yellow","purple","grey"],"door_color_assignment":["white","black"],"door_generator_assignment":[1,0],"goal":5,"start":1,"action_noise":0.15,"location_history":"[1,3,2,3,4,2,3,4,0,1,3,2,1,3,2,3,2,1,3,2,3,4,2,3,4,0,5]","action_history":"[0,0,1,1,1,1,1,0,0,0,0,0,0,0,0,0,0,0,1,1,1,1,1,1,0,0]","door_history":"[1,1,0,0,0,0,0,1,1,1,1,1,1,1,1,1,1,1,0,0,0,0,0,0,1,1]","location_rts":"[3841,832,1070,468,526,519,498,338,444,730,442,2305,465,391,491,508,456,687,557,424,362,528,556,791,310,562]","trial_type":"two-door-navigation","trial_index":9,"time_elapsed":176214,"internal_node_id":"0.0-2.0-7.0"},{"group":"hexagon_tri","room_assignment":["green","red","blue","yellow","purple","grey"],"door_color_assignment":["white","black"],"door_generator_assignment":[1,0],"goal":4,"start":5,"action_noise":0.15,"location_history":"[5,0,1,5,0,5,4]","action_history":"[1,1,1,0,0,0]","door_history":"[0,0,0,1,1,1]","location_rts":"[1717,966,564,1206,449,805]","trial_type":"two-door-navigation","trial_index":10,"time_elapsed":191867,"internal_node_id":"0.0-2.0-8.0"},{"group":"hexagon_tri","room_assignment":["green","red","blue","yellow","purple","grey"],"door_color_assignment":["white","black"],"door_generator_assignment":[1,0],"goal":2,"start":4,"action_noise":0.15,"location_history":"[4,0,5,4,0,1,5,4,2]","action_history":"[0,0,0,0,0,1,1,1]","door_history":"[1,1,1,1,1,0,0,0]","location_rts":"[1987,702,675,1025,454,484,466,522]","trial_type":"two-door-navigation","trial_index":11,"time_elapsed":210237,"internal_node_id":"0.0-2.0-9.0"},{"group":"hexagon_tri","room_assignment":["green","red","blue","yellow","purple","grey"],"door_color_assignment":["white","black"],"door_generator_assignment":[1,0],"goal":0,"start":2,"action_noise":0.15,"location_history":"[2,3,4,0]","action_history":"[1,1,0]","door_history":"[0,0,1]","location_rts":"[1278,511,817]","trial_type":"two-door-navigation","trial_index":12,"time_elapsed":219566,"internal_node_id":"0.0-2.0-10.0"},{"group":"hexagon_tri","room_assignment":["green","red","blue","yellow","purple","grey"],"door_color_assignment":["white","black"],"door_generator_assignment":[1,0],"goal":1,"start":0,"action_noise":0.15,"location_history":"[0,1]","action_history":"[1]","door_history":"[0]","location_rts":"[1371]","trial_type":"two-door-navigation","trial_index":13,"time_elapsed":225513,"internal_node_id":"0.0-2.0-11.0"},{"group":"hexagon_tri","room_assignment":["green","red","blue","yellow","purple","grey"],"door_color_assignment":["white","black"],"door_generator_assignment":[1,0],"goal":3,"start":1,"action_noise":0.15,"location_history":"[1,5,4,0,5,4,2,1,5,0,1,5,4,0,5,4,2,3]","action_history":"[0,0,0,0,1,1,0,1,1,1,0,0,0,0,0,1,1]","door_history":"[1,1,1,1,0,0,1,0,0,0,1,1,1,1,1,0,0]","location_rts":"[1264,782,480,589,375,432,430,544,299,860,1498,367,468,600,450,1255,421]","trial_type":"two-door-navigation","trial_index":14,"time_elapsed":258319,"internal_node_id":"0.0-2.0-12.0"},{"group":"hexagon_tri","room_assignment":["green","red","blue","yellow","purple","grey"],"door_color_assignment":["white","black"],"door_generator_assignment":[1,0],"goal":5,"start":3,"action_noise":0.15,"location_history":"[3,2,1,3,4,2,3,4,2,1,5]","action_history":"[0,0,0,1,1,1,1,0,0,1]","door_history":"[1,1,1,0,0,0,0,1,1,0]","location_rts":"[1607,1160,542,1103,753,986,532,1231,424,372]","trial_type":"two-door-navigation","trial_index":15,"time_elapsed":281231,"internal_node_id":"0.0-2.0-13.0"},{"group":"hexagon_tri","room_assignment":["green","red","blue","yellow","purple","grey"],"door_color_assignment":["white","black"],"door_generator_assignment":[1,0],"goal":4,"start":5,"action_noise":0.15,"location_history":"[5,0,1,3,2,1,3,4]","action_history":"[1,1,1,0,0,0,1]","door_history":"[0,0,0,1,1,1,0]","location_rts":"[1834,560,488,533,536,420,798]","trial_type":"two-door-navigation","trial_index":16,"time_elapsed":297377,"internal_node_id":"0.0-2.0-14.0"},{"group":"hexagon_tri","room_assignment":["green","red","blue","yellow","purple","grey"],"door_color_assignment":["white","black"],"door_generator_assignment":[1,0],"goal":0,"start":4,"action_noise":0.15,"location_history":"[4,0]","action_history":"[0]","door_history":"[1]","location_rts":"[1362]","trial_type":"two-door-navigation","trial_index":17,"time_elapsed":303327,"internal_node_id":"0.0-2.0-15.0"},{"group":"hexagon_tri","room_assignment":["green","red","blue","yellow","purple","grey"],"door_color_assignment":["white","black"],"door_generator_assignment":[1,0],"goal":3,"start":0,"action_noise":0.15,"location_history":"[0,5,4,2,3]","action_history":"[0,0,1,1]","door_history":"[1,1,0,0]","location_rts":"[18710,2980,1010,471]","trial_type":"two-door-navigation","trial_index":18,"time_elapsed":334310,"internal_node_id":"0.0-2.0-16.0"},{"group":"hexagon_tri","room_assignment":["green","red","blue","yellow","purple","grey"],"door_color_assignment":["white","black"],"door_generator_assignment":[1,0],"goal":1,"start":3,"action_noise":0.15,"location_history":"[3,4,0,1]","action_history":"[1,0,1]","door_history":"[0,1,0]","location_rts":"[3064,769,852]","trial_type":"two-door-navigation","trial_index":19,"time_elapsed":345695,"internal_node_id":"0.0-2.0-17.0"},{"group":"hexagon_tri","room_assignment":["green","red","blue","yellow","purple","grey"],"door_color_assignment":["white","black"],"door_generator_assignment":[1,0],"goal":5,"start":1,"action_noise":0.15,"location_history":"[1,5]","action_history":"[0]","door_history":"[1]","location_rts":"[1850]","trial_type":"two-door-navigation","trial_index":20,"time_elapsed":352126,"internal_node_id":"0.0-2.0-18.0"},{"group":"hexagon_tri","room_assignment":["green","red","blue","yellow","purple","grey"],"door_color_assignment":["white","black"],"door_generator_assignment":[1,0],"goal":2,"start":5,"action_noise":0.15,"location_history":"[5,0,1,5,0,1,3,2]","action_history":"[1,1,1,1,1,0,0]","door_history":"[0,0,0,0,0,1,1]","location_rts":"[1382,490,611,440,685,393,555]","trial_type":"two-door-navigation","trial_index":21,"time_elapsed":367668,"internal_node_id":"0.0-2.0-19.0"},{"group":"hexagon_tri","room_assignment":["green","red","blue","yellow","purple","grey"],"door_color_assignment":["white","black"],"door_generator_assignment":[1,0],"goal":4,"start":2,"action_noise":0.15,"location_history":"[2,3,4]","action_history":"[1,1]","door_history":"[0,0]","location_rts":"[6800,509]","trial_type":"two-door-navigation","trial_index":22,"time_elapsed":380635,"internal_node_id":"0.0-2.0-20.0"},{"group":"hexagon_tri","room_assignment":["green","red","blue","yellow","purple","grey"],"door_color_assignment":["white","black"],"door_generator_assignment":[1,0],"goal":1,"start":4,"action_noise":0.15,"location_history":"[4,2,3,4,0,1]","action_history":"[1,1,1,1,1]","door_history":"[0,0,0,0,0]","location_rts":"[3897,763,437,406,610]","trial_type":"two-door-navigation","trial_index":23,"time_elapsed":395619,"internal_node_id":"0.0-2.0-21.0"},{"group":"hexagon_tri","room_assignment":["green","red","blue","yellow","purple","grey"],"door_color_assignment":["white","black"],"door_generator_assignment":[1,0],"goal":3,"start":1,"action_noise":0.15,"location_history":"[1,3]","action_history":"[0]","door_history":"[1]","location_rts":"[1451]","trial_type":"two-door-navigation","trial_index":24,"time_elapsed":401639,"internal_node_id":"0.0-2.0-22.0"},{"group":"hexagon_tri","room_assignment":["green","red","blue","yellow","purple","grey"],"door_color_assignment":["white","black"],"door_generator_assignment":[1,0],"goal":2,"start":3,"action_noise":0.15,"location_history":"[3,4,2]","action_history":"[1,1]","door_history":"[0,0]","location_rts":"[1284,539]","trial_type":"two-door-navigation","trial_index":25,"time_elapsed":409101,"internal_node_id":"0.0-2.0-23.0"},{"group":"hexagon_tri","room_assignment":["green","red","blue","yellow","purple","grey"],"door_color_assignment":["white","black"],"door_generator_assignment":[1,0],"goal":0,"start":2,"action_noise":0.15,"location_history":"[2,1,5,4,0]","action_history":"[0,0,0,0]","door_history":"[1,1,1,1]","location_rts":"[941,388,810,549]","trial_type":"two-door-navigation","trial_index":26,"time_elapsed":419597,"internal_node_id":"0.0-2.0-24.0"},{"group":"hexagon_tri","room_assignment":["green","red","blue","yellow","purple","grey"],"door_color_assignment":["white","black"],"door_generator_assignment":[1,0],"goal":5,"start":0,"action_noise":0.15,"location_history":"[0,5]","action_history":"[0]","door_history":"[1]","location_rts":"[893]","trial_type":"two-door-navigation","trial_index":27,"time_elapsed":425076,"internal_node_id":"0.0-2.0-25.0"},{"group":"hexagon_tri","room_assignment":["green","red","blue","yellow","purple","grey"],"door_color_assignment":["white","black"],"door_generator_assignment":[1,0],"goal":2,"start":5,"action_noise":0.15,"location_history":"[5,4,2]","action_history":"[0,0]","door_history":"[1,1]","location_rts":"[581,525]","trial_type":"two-door-navigation","trial_index":28,"time_elapsed":431832,"internal_node_id":"0.0-2.0-26.0"},{"group":"hexagon_tri","room_assignment":["green","red","blue","yellow","purple","grey"],"door_color_assignment":["white","black"],"door_generator_assignment":[1,0],"goal":3,"start":2,"action_noise":0.15,"location_history":"[2,1,5,0,5,4,2,3]","action_history":"[1,1,1,0,0,1,1]","door_history":"[0,0,0,1,1,0,0]","location_rts":"[1784,482,461,1028,867,343,808]","trial_type":"two-door-navigation","trial_index":29,"time_elapsed":448593,"internal_node_id":"0.0-2.0-27.0"},{"group":"hexagon_tri","room_assignment":["green","red","blue","yellow","purple","grey"],"door_color_assignment":["white","black"],"door_generator_assignment":[1,0],"goal":0,"start":3,"action_noise":0.15,"location_history":"[3,4,0]","action_history":"[0,0]","door_history":"[1,1]","location_rts":"[2705,973]","trial_type":"two-door-navigation","trial_index":30,"time_elapsed":457926,"internal_node_id":"0.0-2.0-28.0"},{"group":"hexagon_tri","room_assignment":["green","red","blue","yellow","purple","grey"],"door_color_assignment":["white","black"],"door_generator_assignment":[1,0],"goal":1,"start":0,"action_noise":0.15,"location_history":"[0,5,0,1]","action_history":"[0,1,1]","door_history":"[1,0,0]","location_rts":"[740,448,470]","trial_type":"two-door-navigation","trial_index":31,"time_elapsed":466298,"internal_node_id":"0.0-2.0-29.0"},{"group":"hexagon_tri","room_assignment":["green","red","blue","yellow","purple","grey"],"door_color_assignment":["white","black"],"door_generator_assignment":[1,0],"goal":4,"start":1,"action_noise":0.15,"location_history":"[1,3,2,1,3,4]","action_history":"[0,0,0,0,0]","door_history":"[1,1,1,1,1]","location_rts":"[1157,450,606,1403,588]","trial_type":"two-door-navigation","trial_index":32,"time_elapsed":479354,"internal_node_id":"0.0-2.0-30.0"},{"group":"hexagon_tri","room_assignment":["green","red","blue","yellow","purple","grey"],"door_color_assignment":["white","black"],"door_generator_assignment":[1,0],"goal":5,"start":4,"action_noise":0.15,"location_history":"[4,2,3,2,1,5]","action_history":"[1,1,0,0,0]","door_history":"[0,0,1,1,1]","location_rts":"[1111,508,414,429,432]","trial_type":"two-door-navigation","trial_index":33,"time_elapsed":491136,"internal_node_id":"0.0-2.0-31.0"},{"group":"hexagon_tri","room_assignment":["green","red","blue","yellow","purple","grey"],"door_color_assignment":["white","black"],"door_generator_assignment":[1,0],"goal":0,"start":5,"action_noise":0.15,"location_history":"[5,0]","action_history":"[1]","door_history":"[0]","location_rts":"[12468]","trial_type":"two-door-navigation","trial_index":34,"time_elapsed":508183,"internal_node_id":"0.0-2.0-32.0"},{"group":"hexagon_tri","room_assignment":["green","red","blue","yellow","purple","grey"],"door_color_assignment":["white","black"],"door_generator_assignment":[1,0],"goal":3,"start":0,"action_noise":0.15,"location_history":"[0,5,4,0,5,4,2,3]","action_history":"[0,0,0,0,0,1,1]","door_history":"[1,1,1,1,1,0,0]","location_rts":"[1053,443,627,668,456,811,454]","trial_type":"two-door-navigation","trial_index":35,"time_elapsed":523708,"internal_node_id":"0.0-2.0-33.0"},{"group":"hexagon_tri","room_assignment":["green","red","blue","yellow","purple","grey"],"door_color_assignment":["white","black"],"door_generator_assignment":[1,0],"goal":1,"start":3,"action_noise":0.15,"location_history":"[3,4,0,5,4,2,3,2,3,2,3,2,3,4,2,1]","action_history":"[1,1,0,0,0,1,1,1,0,0,0,1,1,1,1]","door_history":"[0,0,1,1,1,0,0,0,1,1,1,0,0,0,0]","location_rts":"[1734,1432,753,1681,690,1466,568,1108,731,456,548,757,540,831,390]","trial_type":"two-door-navigation","trial_index":36,"time_elapsed":556965,"internal_node_id":"0.0-2.0-34.0"},{"group":"hexagon_tri","room_assignment":["green","red","blue","yellow","purple","grey"],"door_color_assignment":["white","black"],"door_generator_assignment":[1,0],"goal":2,"start":1,"action_noise":0.15,"location_history":"[1,3,2]","action_history":"[0,0]","door_history":"[1,1]","location_rts":"[1089,715]","trial_type":"two-door-navigation","trial_index":37,"time_elapsed":564427,"internal_node_id":"0.0-2.0-35.0"},{"group":"hexagon_tri","room_assignment":["green","red","blue","yellow","purple","grey"],"door_color_assignment":["white","black"],"door_generator_assignment":[1,0],"goal":4,"start":2,"action_noise":0.15,"location_history":"[2,1,3,2,1,3,2,3,4]","action_history":"[0,0,0,0,0,1,1,1]","door_history":"[1,1,1,1,1,0,0,0]","location_rts":"[1610,1066,740,1054,723,908,1664,3702]","trial_type":"two-door-navigation","trial_index":38,"time_elapsed":587975,"internal_node_id":"0.0-2.0-36.0"},{"group":"hexagon_tri","room_assignment":["green","red","blue","yellow","purple","grey"],"door_color_assignment":["white","black"],"door_generator_assignment":[1,0],"goal":5,"start":4,"action_noise":0.15,"location_history":"[4,2,1,5]","action_history":"[1,0,1]","door_history":"[0,1,0]","location_rts":"[3612,723,741]","trial_type":"two-door-navigation","trial_index":39,"time_elapsed":599781,"internal_node_id":"0.0-2.0-37.0"},{"group":"hexagon_tri","room_assignment":["green","red","blue","yellow","purple","grey"],"door_color_assignment":["white","black"],"door_generator_assignment":[1,0],"goal":1,"start":5,"action_noise":0.15,"location_history":"[5,0,5,0,1]","action_history":"[1,1,1,1]","door_history":"[0,0,0,0]","location_rts":"[1130,933,531,1774]","trial_type":"two-door-navigation","trial_index":40,"time_elapsed":611939,"internal_node_id":"0.0-2.0-38.0"},{"group":"hexagon_tri","room_assignment":["green","red","blue","yellow","purple","grey"],"door_color_assignment":["white","black"],"door_generator_assignment":[1,0],"goal":4,"start":1,"action_noise":0.15,"location_history":"[1,5,0,1,3,4]","action_history":"[0,0,0,0,0]","door_history":"[1,1,1,1,1]","location_rts":"[717,509,504,1992,604]","trial_type":"two-door-navigation","trial_index":41,"time_elapsed":625120,"internal_node_id":"0.0-2.0-39.0"},{"group":"hexagon_tri","room_assignment":["green","red","blue","yellow","purple","grey"],"door_color_assignment":["white","black"],"door_generator_assignment":[1,0],"goal":3,"start":4,"action_noise":0.15,"location_history":"[4,0,1,5,0,5,0,5,0,1,3]","action_history":"[1,1,1,1,0,0,0,1,1,1]","door_history":"[0,0,0,0,1,1,1,0,0,0]","location_rts":"[1287,665,676,940,911,426,527,509,638,747]","trial_type":"two-door-navigation","trial_index":42,"time_elapsed":646653,"internal_node_id":"0.0-2.0-40.0"},{"group":"hexagon_tri","room_assignment":["green","red","blue","yellow","purple","grey"],"door_color_assignment":["white","black"],"door_generator_assignment":[1,0],"goal":2,"start":3,"action_noise":0.15,"location_history":"[3,2]","action_history":"[0]","door_history":"[1]","location_rts":"[1093]","trial_type":"two-door-navigation","trial_index":43,"time_elapsed":652324,"internal_node_id":"0.0-2.0-41.0"},{"group":"hexagon_tri","room_assignment":["green","red","blue","yellow","purple","grey"],"door_color_assignment":["white","black"],"door_generator_assignment":[1,0],"goal":0,"start":2,"action_noise":0.15,"location_history":"[2,3,2,1,3,4,2,3,4,2,3,4,0]","action_history":"[1,0,0,0,1,1,1,1,1,1,1,0]","door_history":"[0,1,1,1,0,0,0,0,0,0,0,1]","location_rts":"[2280,771,1726,1651,955,356,997,469,656,1146,507,892]","trial_type":"two-door-navigation","trial_index":44,"time_elapsed":681036,"internal_node_id":"0.0-2.0-42.0"},{"group":"hexagon_tri","room_assignment":["green","red","blue","yellow","purple","grey"],"door_color_assignment":["white","black"],"door_generator_assignment":[1,0],"goal":5,"start":0,"action_noise":0.15,"location_history":"[0,5]","action_history":"[0]","door_history":"[1]","location_rts":"[2525]","trial_type":"two-door-navigation","trial_index":45,"time_elapsed":688145,"internal_node_id":"0.0-2.0-43.0"},{"group":"hexagon_tri","room_assignment":["green","red","blue","yellow","purple","grey"],"door_color_assignment":["white","black"],"door_generator_assignment":[1,0],"goal":0,"start":5,"action_noise":0.15,"location_history":"[5,4,2,1,3,2,3,2,1,3,2,1,3,2,1,3,4,2,3,4,2,1,5,4,2,3,2,3,2,1,3,2,1,3,2,1,3,4,0]","action_history":"[0,1,1,1,1,1,0,0,0,0,0,0,0,0,1,1,1,1,1,1,0,1,0,0,1,0,0,0,0,0,0,0,0,0,0,0,0,0]","door_history":"[1,0,0,0,0,0,1,1,1,1,1,1,1,1,0,0,0,0,0,0,1,0,1,1,0,1,1,1,1,1,1,1,1,1,1,1,1,1]","location_rts":"[1782,723,444,587,722,647,680,604,409,1508,598,824,1205,430,599,355,303,639,2617,526,732,382,292,359,2456,762,338,431,519,389,477,452,489,438,420,470,557,1093]","trial_type":"two-door-navigation","trial_index":46,"time_elapsed":759597,"internal_node_id":"0.0-2.0-44.0"},{"group":"hexagon_tri","room_assignment":["green","red","blue","yellow","purple","grey"],"door_color_assignment":["white","black"],"door_generator_assignment":[1,0],"goal":2,"start":0,"action_noise":0.15,"location_history":"[0,1,5,0,1,3,2]","action_history":"[1,1,1,1,0,0]","door_history":"[0,0,0,0,1,1]","location_rts":"[1985,587,925,2675,1050,441]","trial_type":"two-door-navigation","trial_index":47,"time_elapsed":777155,"internal_node_id":"0.0-2.0-45.0"},{"group":"hexagon_tri","room_assignment":["green","red","blue","yellow","purple","grey"],"door_color_assignment":["white","black"],"door_generator_assignment":[1,0],"goal":4,"start":2,"action_noise":0.15,"location_history":"[2,1,5,0,5,4]","action_history":"[1,1,0,0,0]","door_history":"[0,0,1,1,1]","location_rts":"[1484,415,687,548,394]","trial_type":"two-door-navigation","trial_index":48,"time_elapsed":789546,"internal_node_id":"0.0-2.0-46.0"},{"group":"hexagon_tri","room_assignment":["green","red","blue","yellow","purple","grey"],"door_color_assignment":["white","black"],"door_generator_assignment":[1,0],"goal":1,"start":4,"action_noise":0.15,"location_history":"[4,2,3,4,2,3,4,2,3,4,2,1]","action_history":"[1,1,1,1,1,1,1,1,1,0,0]","door_history":"[0,0,0,0,0,0,0,0,0,1,1]","location_rts":"[1230,1278,586,542,355,357,382,492,511,507,671]","trial_type":"two-door-navigation","trial_index":49,"time_elapsed":811729,"internal_node_id":"0.0-2.0-47.0"},{"group":"hexagon_tri","room_assignment":["green","red","blue","yellow","purple","grey"],"door_color_assignment":["white","black"],"door_generator_assignment":[1,0],"goal":5,"start":1,"action_noise":0.15,"location_history":"[1,3,2,1,5]","action_history":"[0,0,0,0]","door_history":"[1,1,1,1]","location_rts":"[2041,479,457,1691]","trial_type":"two-door-navigation","trial_index":50,"time_elapsed":824177,"internal_node_id":"0.0-2.0-48.0"},{"group":"hexagon_tri","room_assignment":["green","red","blue","yellow","purple","grey"],"door_color_assignment":["white","black"],"door_generator_assignment":[1,0],"goal":3,"start":5,"action_noise":0.15,"location_history":"[5,4,0,1,5,0,5,0,5,0,1,5,0,5,4,0,5,4,0,5,4,0,5,4,2,1,5,0,1,3]","action_history":"[0,0,1,1,1,0,1,1,1,1,1,1,0,1,0,0,0,0,0,0,0,0,0,1,1,1,1,1,0]","door_history":"[1,1,0,0,0,1,0,0,0,0,0,0,1,0,1,1,1,1,1,1,1,1,1,0,0,0,0,0,1]","location_rts":"[5423,892,1278,456,847,365,317,203,293,483,294,350,580,410,944,374,524,388,415,672,389,316,220,424,417,398,614,608,533]","trial_type":"two-door-navigation","trial_index":51,"time_elapsed":878109,"internal_node_id":"0.0-2.0-49.0"},{"view_history":"[{\"page_index\":0,\"viewing_time\":3472}]","rt":3473,"trial_type":"instructions","trial_index":52,"time_elapsed":882585,"internal_node_id":"0.0-3.0"},{"view_history":"[{\"page_index\":0,\"viewing_time\":4386},{\"page_index\":1,\"viewing_time\":21080}]","rt":25467,"trial_type":"instructions","trial_index":53,"time_elapsed":909054,"internal_node_id":"0.0-4.0"},{"group":"hexagon_tri","fractal_assignment":["../images/ylw_slt.png","../images/blu_wht.png","../images/gry_blk.png","../images/pnk_blu.png","../images/cyn_red.png","../images/org_blu.png"],"mutagen_generator_assignment":[0,1],"goal":3,"start":5,"action_noise":0.15,"location_history":"[5,4,0,5,4,2,3]","action_history":"[0,0,0,0,1,1]","mutagen_history":"[0,0,0,0,1,1]","location_rts":"[5483,505,437,678,3702,465]","trial_type":"fractal-mutation","trial_index":54,"time_elapsed":930332,"internal_node_id":"0.0-5.0-0.0"},{"group":"hexagon_tri","fractal_assignment":["../images/ylw_slt.png","../images/blu_wht.png","../images/gry_blk.png","../images/pnk_blu.png","../images/cyn_red.png","../images/org_blu.png"],"mutagen_generator_assignment":[0,1],"goal":1,"start":3,"action_noise":0.15,"location_history":"[3,4,2,3,4,2,1]","action_history":"[1,1,1,1,1,0]","mutagen_history":"[1,1,1,1,1,0]","location_rts":"[914,500,477,467,395,1228]","trial_type":"fractal-mutation","trial_index":55,"time_elapsed":944338,"internal_node_id":"0.0-5.0-1.0"},{"group":"hexagon_tri","fractal_assignment":["../images/ylw_slt.png","../images/blu_wht.png","../images/gry_blk.png","../images/pnk_blu.png","../images/cyn_red.png","../images/org_blu.png"],"mutagen_generator_assignment":[0,1],"goal":0,"start":1,"action_noise":0.15,"location_history":"[1,5,0]","action_history":"[1,1]","mutagen_history":"[1,1]","location_rts":"[897,397]","trial_type":"fractal-mutation","trial_index":56,"time_elapsed":951302,"internal_node_id":"0.0-5.0-2.0"},{"group":"hexagon_tri","fractal_assignment":["../images/ylw_slt.png","../images/blu_wht.png","../images/gry_blk.png","../images/pnk_blu.png","../images/cyn_red.png","../images/org_blu.png"],"mutagen_generator_assignment":[0,1],"goal":3,"start":0,"action_noise":0.15,"location_history":"[0,1,5,0,1,5,4,0,5,4,2,3]","action_history":"[1,1,1,1,1,1,0,0,0,0,0]","mutagen_history":"[1,1,1,1,1,1,0,0,0,0,0]","location_rts":"[1733,527,490,755,496,470,566,708,639,681,574]","trial_type":"fractal-mutation","trial_index":57,"time_elapsed":974350,"internal_node_id":"0.0-5.0-3.0"},{"group":"hexagon_tri","fractal_assignment":["../images/ylw_slt.png","../images/blu_wht.png","../images/gry_blk.png","../images/pnk_blu.png","../images/cyn_red.png","../images/org_blu.png"],"mutagen_generator_assignment":[0,1],"goal":4,"start":3,"action_noise":0.15,"location_history":"[3,4]","action_history":"[1]","mutagen_history":"[1]","location_rts":"[1161]","trial_type":"fractal-mutation","trial_index":58,"time_elapsed":980102,"internal_node_id":"0.0-5.0-4.0"},{"group":"hexagon_tri","fractal_assignment":["../images/ylw_slt.png","../images/blu_wht.png","../images/gry_blk.png","../images/pnk_blu.png","../images/cyn_red.png","../images/org_blu.png"],"mutagen_generator_assignment":[0,1],"goal":2,"start":4,"action_noise":0.15,"location_history":"[4,2]","action_history":"[1]","mutagen_history":"[1]","location_rts":"[1552]","trial_type":"fractal-mutation","trial_index":59,"time_elapsed":986248,"internal_node_id":"0.0-5.0-5.0"},{"group":"hexagon_tri","fractal_assignment":["../images/ylw_slt.png","../images/blu_wht.png","../images/gry_blk.png","../images/pnk_blu.png","../images/cyn_red.png","../images/org_blu.png"],"mutagen_generator_assignment":[0,1],"goal":1,"start":2,"action_noise":0.15,"location_history":"[2,1]","action_history":"[0]","mutagen_history":"[0]","location_rts":"[1685]","trial_type":"fractal-mutation","trial_index":60,"time_elapsed":992522,"internal_node_id":"0.0-5.0-6.0"},{"group":"hexagon_tri","fractal_assignment":["../images/ylw_slt.png","../images/blu_wht.png","../images/gry_blk.png","../images/pnk_blu.png","../images/cyn_red.png","../images/org_blu.png"],"mutagen_generator_assignment":[0,1],"goal":5,"start":1,"action_noise":0.15,"location_history":"[1,5]","action_history":"[1]","mutagen_history":"[1]","location_rts":"[1133]","trial_type":"fractal-mutation","trial_index":61,"time_elapsed":998252,"internal_node_id":"0.0-5.0-7.0"},{"group":"hexagon_tri","fractal_assignment":["../images/ylw_slt.png","../images/blu_wht.png","../images/gry_blk.png","../images/pnk_blu.png","../images/cyn_red.png","../images/org_blu.png"],"mutagen_generator_assignment":[0,1],"goal":4,"start":5,"action_noise":0.15,"location_history":"[5,4]","action_history":"[0]","mutagen_history":"[0]","location_rts":"[2084]","trial_type":"fractal-mutation","trial_index":62,"time_elapsed":1004919,"internal_node_id":"0.0-5.0-8.0"},{"group":"hexagon_tri","fractal_assignment":["../images/ylw_slt.png","../images/blu_wht.png","../images/gry_blk.png","../images/pnk_blu.png","../images/cyn_red.png","../images/org_blu.png"],"mutagen_generator_assignment":[0,1],"goal":2,"start":4,"action_noise":0.15,"location_history":"[4,2]","action_history":"[1]","mutagen_history":"[1]","location_rts":"[939]","trial_type":"fractal-mutation","trial_index":63,"time_elapsed":1010451,"internal_node_id":"0.0-5.0-9.0"},{"group":"hexagon_tri","fractal_assignment":["../images/ylw_slt.png","../images/blu_wht.png","../images/gry_blk.png","../images/pnk_blu.png","../images/cyn_red.png","../images/org_blu.png"],"mutagen_generator_assignment":[0,1],"goal":0,"start":2,"action_noise":0.15,"location_history":"[2,1,3,2,3,2,3,4,2,3,2,1,5,0]","action_history":"[0,0,0,0,1,1,1,1,1,1,1,0,0]","mutagen_history":"[0,0,0,0,1,1,1,1,1,1,1,0,0]","location_rts":"[1121,949,511,806,769,473,445,481,460,1603,396,361,570]","trial_type":"fractal-mutation","trial_index":64,"time_elapsed":1036974,"internal_node_id":"0.0-5.0-10.0"},{"group":"hexagon_tri","fractal_assignment":["../images/ylw_slt.png","../images/blu_wht.png","../images/gry_blk.png","../images/pnk_blu.png","../images/cyn_red.png","../images/org_blu.png"],"mutagen_generator_assignment":[0,1],"goal":1,"start":0,"action_noise":0.15,"location_history":"[0,5,0,1]","action_history":"[1,1,1]","mutagen_history":"[1,1,1]","location_rts":"[1204,749,665]","trial_type":"fractal-mutation","trial_index":65,"time_elapsed":1046359,"internal_node_id":"0.0-5.0-11.0"},{"group":"hexagon_tri","fractal_assignment":["../images/ylw_slt.png","../images/blu_wht.png","../images/gry_blk.png","../images/pnk_blu.png","../images/cyn_red.png","../images/org_blu.png"],"mutagen_generator_assignment":[0,1],"goal":3,"start":1,"action_noise":0.15,"location_history":"[1,5,0,1,5,4,2,3]","action_history":"[1,1,1,1,1,1,1]","mutagen_history":"[1,1,1,1,1,1,1]","location_rts":"[782,770,530,479,531,532,565]","trial_type":"fractal-mutation","trial_index":66,"time_elapsed":1061647,"internal_node_id":"0.0-5.0-12.0"},{"group":"hexagon_tri","fractal_assignment":["../images/ylw_slt.png","../images/blu_wht.png","../images/gry_blk.png","../images/pnk_blu.png","../images/cyn_red.png","../images/org_blu.png"],"mutagen_generator_assignment":[0,1],"goal":5,"start":3,"action_noise":0.15,"location_history":"[3,4,2,3,4,0,5]","action_history":"[1,0,0,0,0,0]","mutagen_history":"[1,0,0,0,0,0]","location_rts":"[873,1779,616,435,818,497]","trial_type":"fractal-mutation","trial_index":67,"time_elapsed":1076638,"internal_node_id":"0.0-5.0-13.0"},{"group":"hexagon_tri","fractal_assignment":["../images/ylw_slt.png","../images/blu_wht.png","../images/gry_blk.png","../images/pnk_blu.png","../images/cyn_red.png","../images/org_blu.png"],"mutagen_generator_assignment":[0,1],"goal":4,"start":5,"action_noise":0.15,"location_history":"[5,0,5,4]","action_history":"[1,1,0]","mutagen_history":"[1,1,0]","location_rts":"[1023,693,303]","trial_type":"fractal-mutation","trial_index":68,"time_elapsed":1085402,"internal_node_id":"0.0-5.0-14.0"},{"group":"hexagon_tri","fractal_assignment":["../images/ylw_slt.png","../images/blu_wht.png","../images/gry_blk.png","../images/pnk_blu.png","../images/cyn_red.png","../images/org_blu.png"],"mutagen_generator_assignment":[0,1],"goal":0,"start":4,"action_noise":0.15,"location_history":"[4,2,3,4,2,3,2,3,4,0]","action_history":"[1,1,1,1,1,0,0,0,0]","mutagen_history":"[1,1,1,1,1,0,0,0,0]","location_rts":"[944,1070,548,351,710,1217,442,425,462]","trial_type":"fractal-mutation","trial_index":69,"time_elapsed":1104823,"internal_node_id":"0.0-5.0-15.0"},{"group":"hexagon_tri","fractal_assignment":["../images/ylw_slt.png","../images/blu_wht.png","../images/gry_blk.png","../images/pnk_blu.png","../images/cyn_red.png","../images/org_blu.png"],"mutagen_generator_assignment":[0,1],"goal":3,"start":0,"action_noise":0.15,"location_history":"[0,5,4,0,5,4,0,5,0,5,0,5,0,1,5,0,1,5,4,2,1,3]","action_history":"[0,0,0,0,0,0,0,1,1,1,0,1,1,1,1,1,1,0,0,0,0]","mutagen_history":"[0,0,0,0,0,0,0,1,1,1,0,1,1,1,1,1,1,0,0,0,0]","location_rts":"[1516,991,505,515,711,1260,583,1268,532,412,7063,929,366,407,458,364,579,745,690,525,370]","trial_type":"fractal-mutation","trial_index":70,"time_elapsed":1151796,"internal_node_id":"0.0-5.0-16.0"},{"group":"hexagon_tri","fractal_assignment":["../images/ylw_slt.png","../images/blu_wht.png","../images/gry_blk.png","../images/pnk_blu.png","../images/cyn_red.png","../images/org_blu.png"],"mutagen_generator_assignment":[0,1],"goal":1,"start":3,"action_noise":0.15,"location_history":"[3,2,1]","action_history":"[0,0]","mutagen_history":"[0,0]","location_rts":"[1240,547]","trial_type":"fractal-mutation","trial_index":71,"time_elapsed":1159251,"internal_node_id":"0.0-5.0-17.0"},{"group":"hexagon_tri","fractal_assignment":["../images/ylw_slt.png","../images/blu_wht.png","../images/gry_blk.png","../images/pnk_blu.png","../images/cyn_red.png","../images/org_blu.png"],"mutagen_generator_assignment":[0,1],"goal":5,"start":1,"action_noise":0.15,"location_history":"[1,3,2,1,3,2,1,5]","action_history":"[0,0,0,0,0,0,1]","mutagen_history":"[0,0,0,0,0,0,1]","location_rts":"[1414,433,438,482,508,472,521]","trial_type":"fractal-mutation","trial_index":72,"time_elapsed":1174569,"internal_node_id":"0.0-5.0-18.0"},{"group":"hexagon_tri","fractal_assignment":["../images/ylw_slt.png","../images/blu_wht.png","../images/gry_blk.png","../images/pnk_blu.png","../images/cyn_red.png","../images/org_blu.png"],"mutagen_generator_assignment":[0,1],"goal":2,"start":5,"action_noise":0.15,"location_history":"[5,4,0,1,3,2]","action_history":"[0,0,0,0,0]","mutagen_history":"[0,0,0,0,0]","location_rts":"[1031,397,486,504,475]","trial_type":"fractal-mutation","trial_index":73,"time_elapsed":1186362,"internal_node_id":"0.0-5.0-19.0"},{"group":"hexagon_tri","fractal_assignment":["../images/ylw_slt.png","../images/blu_wht.png","../images/gry_blk.png","../images/pnk_blu.png","../images/cyn_red.png","../images/org_blu.png"],"mutagen_generator_assignment":[0,1],"goal":4,"start":2,"action_noise":0.15,"location_history":"[2,1,3,2,1,3,2,3,4]","action_history":"[0,0,0,0,0,0,1,1]","mutagen_history":"[0,0,0,0,0,0,1,1]","location_rts":"[953,227,401,399,377,515,445,946]","trial_type":"fractal-mutation","trial_index":74,"time_elapsed":1202732,"internal_node_id":"0.0-5.0-20.0"},{"group":"hexagon_tri","fractal_assignment":["../images/ylw_slt.png","../images/blu_wht.png","../images/gry_blk.png","../images/pnk_blu.png","../images/cyn_red.png","../images/org_blu.png"],"mutagen_generator_assignment":[0,1],"goal":1,"start":4,"action_noise":0.15,"location_history":"[4,0,5,0,5,4,0,1]","action_history":"[0,0,1,1,1,1,1]","mutagen_history":"[0,0,1,1,1,1,1]","location_rts":"[881,624,844,580,484,574,900]","trial_type":"fractal-mutation","trial_index":75,"time_elapsed":1218696,"internal_node_id":"0.0-5.0-21.0"},{"group":"hexagon_tri","fractal_assignment":["../images/ylw_slt.png","../images/blu_wht.png","../images/gry_blk.png","../images/pnk_blu.png","../images/cyn_red.png","../images/org_blu.png"],"mutagen_generator_assignment":[0,1],"goal":3,"start":1,"action_noise":0.15,"location_history":"[1,3]","action_history":"[0]","mutagen_history":"[0]","location_rts":"[956]","trial_type":"fractal-mutation","trial_index":76,"time_elapsed":1224239,"internal_node_id":"0.0-5.0-22.0"},{"group":"hexagon_tri","fractal_assignment":["../images/ylw_slt.png","../images/blu_wht.png","../images/gry_blk.png","../images/pnk_blu.png","../images/cyn_red.png","../images/org_blu.png"],"mutagen_generator_assignment":[0,1],"goal":2,"start":3,"action_noise":0.15,"location_history":"[3,4,2]","action_history":"[1,1]","mutagen_history":"[1,1]","location_rts":"[949,508]","trial_type":"fractal-mutation","trial_index":77,"time_elapsed":1231378,"internal_node_id":"0.0-5.0-23.0"},{"group":"hexagon_tri","fractal_assignment":["../images/ylw_slt.png","../images/blu_wht.png","../images/gry_blk.png","../images/pnk_blu.png","../images/cyn_red.png","../images/org_blu.png"],"mutagen_generator_assignment":[0,1],"goal":0,"start":2,"action_noise":0.15,"location_history":"[2,1,3,2,1,3,2,1,3,2,1,5,4,0]","action_history":"[0,0,0,0,0,0,0,0,1,1,1,1,1]","mutagen_history":"[0,0,0,0,0,0,0,0,1,1,1,1,1]","location_rts":"[1221,345,1019,600,456,540,1315,577,391,490,421,358,490]","trial_type":"fractal-mutation","trial_index":78,"time_elapsed":1257124,"internal_node_id":"0.0-5.0-24.0"},{"group":"hexagon_tri","fractal_assignment":["../images/ylw_slt.png","../images/blu_wht.png","../images/gry_blk.png","../images/pnk_blu.png","../images/cyn_red.png","../images/org_blu.png"],"mutagen_generator_assignment":[0,1],"goal":5,"start":0,"action_noise":0.15,"location_history":"[0,5]","action_history":"[0]","mutagen_history":"[0]","location_rts":"[1106]","trial_type":"fractal-mutation","trial_index":79,"time_elapsed":1262829,"internal_node_id":"0.0-5.0-25.0"},{"group":"hexagon_tri","fractal_assignment":["../images/ylw_slt.png","../images/blu_wht.png","../images/gry_blk.png","../images/pnk_blu.png","../images/cyn_red.png","../images/org_blu.png"],"mutagen_generator_assignment":[0,1],"goal":2,"start":5,"action_noise":0.15,"location_history":"[5,0,1,5,0,1,5,4,0,5,4,0,1,5,0,1,5,0,5,4,2]","action_history":"[1,1,1,1,0,0,0,0,0,0,1,1,1,1,1,1,1,0,0,1]","mutagen_history":"[1,1,1,1,0,0,0,0,0,0,1,1,1,1,1,1,1,0,0,1]","location_rts":"[1007,1310,482,402,399,565,557,534,628,677,402,790,649,406,400,761,549,2272,377,488]","trial_type":"fractal-mutation","trial_index":80,"time_elapsed":1301622,"internal_node_id":"0.0-5.0-26.0"},{"group":"hexagon_tri","fractal_assignment":["../images/ylw_slt.png","../images/blu_wht.png","../images/gry_blk.png","../images/pnk_blu.png","../images/cyn_red.png","../images/org_blu.png"],"mutagen_generator_assignment":[0,1],"goal":3,"start":2,"action_noise":0.15,"location_history":"[2,3]","action_history":"[0]","mutagen_history":"[0]","location_rts":"[1954]","trial_type":"fractal-mutation","trial_index":81,"time_elapsed":1308165,"internal_node_id":"0.0-5.0-27.0"},{"group":"hexagon_tri","fractal_assignment":["../images/ylw_slt.png","../images/blu_wht.png","../images/gry_blk.png","../images/pnk_blu.png","../images/cyn_red.png","../images/org_blu.png"],"mutagen_generator_assignment":[0,1],"goal":0,"start":3,"action_noise":0.15,"location_history":"[3,2,1,3,2,1,3,4,2,1,5,4,0]","action_history":"[0,0,0,0,0,0,1,1,1,1,0,1]","mutagen_history":"[0,0,0,0,0,0,1,1,1,1,0,1]","location_rts":"[1909,494,831,507,497,992,347,334,435,426,403,317]","trial_type":"fractal-mutation","trial_index":82,"time_elapsed":1332070,"internal_node_id":"0.0-5.0-28.0"},{"group":"hexagon_tri","fractal_assignment":["../images/ylw_slt.png","../images/blu_wht.png","../images/gry_blk.png","../images/pnk_blu.png","../images/cyn_red.png","../images/org_blu.png"],"mutagen_generator_assignment":[0,1],"goal":1,"start":0,"action_noise":0.15,"location_history":"[0,5,0,5,4,2,3,4,2,3,2,3,4,2,1]","action_history":"[0,0,0,0,1,1,1,1,1,0,1,1,1,0]","mutagen_history":"[0,0,0,0,1,1,1,1,1,0,1,1,1,0]","location_rts":"[3409,464,500,480,477,478,529,414,425,834,850,452,417,487]","trial_type":"fractal-mutation","trial_index":83,"time_elapsed":1360864,"internal_node_id":"0.0-5.0-29.0"},{"group":"hexagon_tri","fractal_assignment":["../images/ylw_slt.png","../images/blu_wht.png","../images/gry_blk.png","../images/pnk_blu.png","../images/cyn_red.png","../images/org_blu.png"],"mutagen_generator_assignment":[0,1],"goal":4,"start":1,"action_noise":0.15,"location_history":"[1,3,2,1,3,2,3,2,1,5,0,1,5,4]","action_history":"[0,0,0,0,1,1,1,0,1,1,1,1,0]","mutagen_history":"[0,0,0,0,1,1,1,0,1,1,1,1,0]","location_rts":"[1031,471,472,490,1101,454,583,450,571,1148,550,463,912]","trial_type":"fractal-mutation","trial_index":84,"time_elapsed":1387086,"internal_node_id":"0.0-5.0-30.0"},{"group":"hexagon_tri","fractal_assignment":["../images/ylw_slt.png","../images/blu_wht.png","../images/gry_blk.png","../images/pnk_blu.png","../images/cyn_red.png","../images/org_blu.png"],"mutagen_generator_assignment":[0,1],"goal":5,"start":4,"action_noise":0.15,"location_history":"[4,0,5]","action_history":"[0,0]","mutagen_history":"[0,0]","location_rts":"[3752,659]","trial_type":"fractal-mutation","trial_index":85,"time_elapsed":1397167,"internal_node_id":"0.0-5.0-31.0"},{"group":"hexagon_tri","fractal_assignment":["../images/ylw_slt.png","../images/blu_wht.png","../images/gry_blk.png","../images/pnk_blu.png","../images/cyn_red.png","../images/org_blu.png"],"mutagen_generator_assignment":[0,1],"goal":0,"start":5,"action_noise":0.15,"location_history":"[5,0]","action_history":"[1]","mutagen_history":"[1]","location_rts":"[1317]","trial_type":"fractal-mutation","trial_index":86,"time_elapsed":1403071,"internal_node_id":"0.0-5.0-32.0"},{"group":"hexagon_tri","fractal_assignment":["../images/ylw_slt.png","../images/blu_wht.png","../images/gry_blk.png","../images/pnk_blu.png","../images/cyn_red.png","../images/org_blu.png"],"mutagen_generator_assignment":[0,1],"goal":3,"start":0,"action_noise":0.15,"location_history":"[0,5,4,0,5,0,1,5,0,5,4,2,3]","action_history":"[0,0,0,0,1,1,1,1,0,0,1,1]","mutagen_history":"[0,0,0,0,1,1,1,1,0,0,1,1]","location_rts":"[1391,790,701,574,760,422,444,433,1255,782,889,413]","trial_type":"fractal-mutation","trial_index":87,"time_elapsed":1428376,"internal_node_id":"0.0-5.0-33.0"},{"group":"hexagon_tri","fractal_assignment":["../images/ylw_slt.png","../images/blu_wht.png","../images/gry_blk.png","../images/pnk_blu.png","../images/cyn_red.png","../images/org_blu.png"],"mutagen_generator_assignment":[0,1],"goal":1,"start":3,"action_noise":0.15,"location_history":"[3,4,2,3,4,2,3,2,1]","action_history":"[1,1,1,1,1,1,0,0]","mutagen_history":"[1,1,1,1,1,1,0,0]","location_rts":"[467,1054,499,432,522,665,850,300]","trial_type":"fractal-mutation","trial_index":88,"time_elapsed":1445308,"internal_node_id":"0.0-5.0-34.0"},{"group":"hexagon_tri","fractal_assignment":["../images/ylw_slt.png","../images/blu_wht.png","../images/gry_blk.png","../images/pnk_blu.png","../images/cyn_red.png","../images/org_blu.png"],"mutagen_generator_assignment":[0,1],"goal":2,"start":1,"action_noise":0.15,"location_history":"[1,5,4,2]","action_history":"[1,0,1]","mutagen_history":"[1,0,1]","location_rts":"[1212,639,925]","trial_type":"fractal-mutation","trial_index":89,"time_elapsed":1454824,"internal_node_id":"0.0-5.0-35.0"},{"group":"hexagon_tri","fractal_assignment":["../images/ylw_slt.png","../images/blu_wht.png","../images/gry_blk.png","../images/pnk_blu.png","../images/cyn_red.png","../images/org_blu.png"],"mutagen_generator_assignment":[0,1],"goal":4,"start":2,"action_noise":0.15,"location_history":"[2,1,5,4]","action_history":"[0,0,0]","mutagen_history":"[0,0,0]","location_rts":"[842,403,596]","trial_type":"fractal-mutation","trial_index":90,"time_elapsed":1463390,"internal_node_id":"0.0-5.0-36.0"},{"group":"hexagon_tri","fractal_assignment":["../images/ylw_slt.png","../images/blu_wht.png","../images/gry_blk.png","../images/pnk_blu.png","../images/cyn_red.png","../images/org_blu.png"],"mutagen_generator_assignment":[0,1],"goal":5,"start":4,"action_noise":0.15,"location_history":"[4,0,5]","action_history":"[0,0]","mutagen_history":"[0,0]","location_rts":"[1949,562]","trial_type":"fractal-mutation","trial_index":91,"time_elapsed":1471567,"internal_node_id":"0.0-5.0-37.0"},{"group":"hexagon_tri","fractal_assignment":["../images/ylw_slt.png","../images/blu_wht.png","../images/gry_blk.png","../images/pnk_blu.png","../images/cyn_red.png","../images/org_blu.png"],"mutagen_generator_assignment":[0,1],"goal":1,"start":5,"action_noise":0.15,"location_history":"[5,0,1]","action_history":"[1,1]","mutagen_history":"[1,1]","location_rts":"[1720,611]","trial_type":"fractal-mutation","trial_index":92,"time_elapsed":1479579,"internal_node_id":"0.0-5.0-38.0"},{"group":"hexagon_tri","fractal_assignment":["../images/ylw_slt.png","../images/blu_wht.png","../images/gry_blk.png","../images/pnk_blu.png","../images/cyn_red.png","../images/org_blu.png"],"mutagen_generator_assignment":[0,1],"goal":4,"start":1,"action_noise":0.15,"location_history":"[1,3,4]","action_history":"[0,1]","mutagen_history":"[0,1]","location_rts":"[1058,763]","trial_type":"fractal-mutation","trial_index":93,"time_elapsed":1487069,"internal_node_id":"0.0-5.0-39.0"},{"group":"hexagon_tri","fractal_assignment":["../images/ylw_slt.png","../images/blu_wht.png","../images/gry_blk.png","../images/pnk_blu.png","../images/cyn_red.png","../images/org_blu.png"],"mutagen_generator_assignment":[0,1],"goal":3,"start":4,"action_noise":0.15,"location_history":"[4,2,1,3]","action_history":"[0,0,0]","mutagen_history":"[0,0,0]","location_rts":"[846,1754,796]","trial_type":"fractal-mutation","trial_index":94,"time_elapsed":1497210,"internal_node_id":"0.0-5.0-40.0"},{"group":"hexagon_tri","fractal_assignment":["../images/ylw_slt.png","../images/blu_wht.png","../images/gry_blk.png","../images/pnk_blu.png","../images/cyn_red.png","../images/org_blu.png"],"mutagen_generator_assignment":[0,1],"goal":2,"start":3,"action_noise":0.15,"location_history":"[3,4,2]","action_history":"[1,1]","mutagen_history":"[1,1]","location_rts":"[874,380]","trial_type":"fractal-mutation","trial_index":95,"time_elapsed":1504143,"internal_node_id":"0.0-5.0-41.0"},{"group":"hexagon_tri","fractal_assignment":["../images/ylw_slt.png","../images/blu_wht.png","../images/gry_blk.png","../images/pnk_blu.png","../images/cyn_red.png","../images/org_blu.png"],"mutagen_generator_assignment":[0,1],"goal":0,"start":2,"action_noise":0.15,"location_history":"[2,1,3,2,1,5,0]","action_history":"[0,0,0,0,1,1]","mutagen_history":"[0,0,0,0,1,1]","location_rts":"[962,935,845,1015,1310,467]","trial_type":"fractal-mutation","trial_index":96,"time_elapsed":1519664,"internal_node_id":"0.0-5.0-42.0"},{"group":"hexagon_tri","fractal_assignment":["../images/ylw_slt.png","../images/blu_wht.png","../images/gry_blk.png","../images/pnk_blu.png","../images/cyn_red.png","../images/org_blu.png"],"mutagen_generator_assignment":[0,1],"goal":5,"start":0,"action_noise":0.15,"location_history":"[0,5]","action_history":"[0]","mutagen_history":"[0]","location_rts":"[1425]","trial_type":"fractal-mutation","trial_index":97,"time_elapsed":1525673,"internal_node_id":"0.0-5.0-43.0"},{"group":"hexagon_tri","fractal_assignment":["../images/ylw_slt.png","../images/blu_wht.png","../images/gry_blk.png","../images/pnk_blu.png","../images/cyn_red.png","../images/org_blu.png"],"mutagen_generator_assignment":[0,1],"goal":0,"start":5,"action_noise":0.15,"location_history":"[5,4,0]","action_history":"[0,0]","mutagen_history":"[0,0]","location_rts":"[1469,992]","trial_type":"fractal-mutation","trial_index":98,"time_elapsed":1533814,"internal_node_id":"0.0-5.0-44.0"},{"group":"hexagon_tri","fractal_assignment":["../images/ylw_slt.png","../images/blu_wht.png","../images/gry_blk.png","../images/pnk_blu.png","../images/cyn_red.png","../images/org_blu.png"],"mutagen_generator_assignment":[0,1],"goal":2,"start":0,"action_noise":0.15,"location_history":"[0,1,5,0,1,5,0,1,3,2]","action_history":"[1,1,1,1,0,0,0,0,0]","mutagen_history":"[1,1,1,1,0,0,0,0,0]","location_rts":"[1410,620,589,559,494,560,472,1450,674]","trial_type":"fractal-mutation","trial_index":99,"time_elapsed":1553866,"internal_node_id":"0.0-5.0-45.0"},{"group":"hexagon_tri","fractal_assignment":["../images/ylw_slt.png","../images/blu_wht.png","../images/gry_blk.png","../images/pnk_blu.png","../images/cyn_red.png","../images/org_blu.png"],"mutagen_generator_assignment":[0,1],"goal":4,"start":2,"action_noise":0.15,"location_history":"[2,1,3,4]","action_history":"[0,0,0]","mutagen_history":"[0,0,0]","location_rts":"[1642,509,560]","trial_type":"fractal-mutation","trial_index":100,"time_elapsed":1563303,"internal_node_id":"0.0-5.0-46.0"},{"group":"hexagon_tri","fractal_assignment":["../images/ylw_slt.png","../images/blu_wht.png","../images/gry_blk.png","../images/pnk_blu.png","../images/cyn_red.png","../images/org_blu.png"],"mutagen_generator_assignment":[0,1],"goal":1,"start":4,"action_noise":0.15,"location_history":"[4,0,1]","action_history":"[0,0]","mutagen_history":"[0,0]","location_rts":"[823,568]","trial_type":"fractal-mutation","trial_index":101,"time_elapsed":1570367,"internal_node_id":"0.0-5.0-47.0"},{"group":"hexagon_tri","fractal_assignment":["../images/ylw_slt.png","../images/blu_wht.png","../images/gry_blk.png","../images/pnk_blu.png","../images/cyn_red.png","../images/org_blu.png"],"mutagen_generator_assignment":[0,1],"goal":5,"start":1,"action_noise":0.15,"location_history":"[1,5]","action_history":"[0]","mutagen_history":"[0]","location_rts":"[665]","trial_type":"fractal-mutation","trial_index":102,"time_elapsed":1575608,"internal_node_id":"0.0-5.0-48.0"},{"group":"hexagon_tri","fractal_assignment":["../images/ylw_slt.png","../images/blu_wht.png","../images/gry_blk.png","../images/pnk_blu.png","../images/cyn_red.png","../images/org_blu.png"],"mutagen_generator_assignment":[0,1],"goal":3,"start":5,"action_noise":0.15,"location_history":"[5,0,1,5,0,1,5,0,5,4,0,5,4,0,5,0,1,3]","action_history":"[1,1,1,1,1,1,0,0,0,0,0,0,1,1,1,1,0]","mutagen_history":"[1,1,1,1,1,1,0,0,0,0,0,0,1,1,1,1,0]","location_rts":"[1243,525,517,440,443,518,867,464,826,889,486,565,377,494,532,661,329]","trial_type":"fractal-mutation","trial_index":103,"time_elapsed":1607634,"internal_node_id":"0.0-5.0-49.0"},{"view_history":"[{\"page_index\":0,\"viewing_time\":9558}]","rt":9559,"trial_type":"instructions","trial_index":104,"time_elapsed":1618197,"internal_node_id":"0.0-6.0"},{"rt":7145,"responses":"{\"Q0\":\"no\"}","trial_type":"survey-text","trial_index":105,"time_elapsed":1626355,"internal_node_id":"0.0-7.0"}]