[{"view_history":"[{\"page_index\":0,\"viewing_time\":3544149},{\"page_index\":1,\"viewing_time\":6878}]","rt":3551027,"trial_type":"instructions","trial_index":0,"time_elapsed":3551028,"internal_node_id":"0.0-0.0"},{"view_history":"[{\"page_index\":0,\"viewing_time\":2260},{\"page_index\":1,\"viewing_time\":6104}]","rt":8364,"trial_type":"instructions","trial_index":1,"time_elapsed":3560394,"internal_node_id":"0.0-1.0"},{"group":"hexagon_tri","room_assignment":["purple","blue","red","yellow","grey","green"],"door_color_assignment":["black","white"],"door_generator_assignment":[1,0],"goal":3,"start":5,"action_noise":0.15,"location_history":"[5,4,0,5,4,0,1,5,4,0,1,5,4,2,3]","action_history":"[0,0,0,0,0,1,1,0,0,1,1,0,1,1]","door_history":"[1,1,1,1,1,0,0,1,1,0,0,1,0,0]","location_rts":"[3310,666,634,1815,1249,781,1583,1999,2084,1554,445,1774,1328,628]","trial_type":"two-door-navigation","trial_index":2,"time_elapsed":3598164,"internal_node_id":"0.0-2.0-0.0"},{"group":"hexagon_tri","room_assignment":["purple","blue","red","yellow","grey","green"],"door_color_assignment":["black","white"],"door_generator_assignment":[1,0],"goal":1,"start":3,"action_noise":0.15,"location_history":"[3,2,3,4,0,1]","action_history":"[1,1,1,0,1]","door_history":"[0,0,0,1,0]","location_rts":"[2211,729,572,919,642]","trial_type":"two-door-navigation","trial_index":3,"time_elapsed":3611859,"internal_node_id":"0.0-2.0-1.0"},{"group":"hexagon_tri","room_assignment":["purple","blue","red","yellow","grey","green"],"door_color_assignment":["black","white"],"door_generator_assignment":[1,0],"goal":0,"start":1,"action_noise":0.15,"location_history":"[1,5,0]","action_history":"[1,1]","door_history":"[0,0]","location_rts":"[2835,597]","trial_type":"two-door-navigation","trial_index":4,"time_elapsed":3620843,"internal_node_id":"0.0-2.0-2.0"},{"group":"hexagon_tri","room_assignment":["purple","blue","red","yellow","grey","green"],"door_color_assignment":["black","white"],"door_generator_assignment":[1,0],"goal":3,"start":0,"action_noise":0.15,"location_history":"[0,5,4,2,3]","action_history":"[0,0,0,1]","door_history":"[1,1,1,0]","location_rts":"[3577,928,846,1407]","trial_type":"two-door-navigation","trial_index":5,"time_elapsed":3635194,"internal_node_id":"0.0-2.0-3.0"},{"group":"hexagon_tri","room_assignment":["purple","blue","red","yellow","grey","green"],"door_color_assignment":["black","white"],"door_generator_assignment":[1,0],"goal":4,"start":3,"action_noise":0.15,"location_history":"[3,4]","action_history":"[1]","door_history":"[0]","location_rts":"[699]","trial_type":"two-door-navigation","trial_index":6,"time_elapsed":3640418,"internal_node_id":"0.0-2.0-4.0"},{"group":"hexagon_tri","room_assignment":["purple","blue","red","yellow","grey","green"],"door_color_assignment":["black","white"],"door_generator_assignment":[1,0],"goal":2,"start":4,"action_noise":0.15,"location_history":"[4,2]","action_history":"[1]","door_history":"[0]","location_rts":"[3990]","trial_type":"two-door-navigation","trial_index":7,"time_elapsed":3648933,"internal_node_id":"0.0-2.0-5.0"},{"group":"hexagon_tri","room_assignment":["purple","blue","red","yellow","grey","green"],"door_color_assignment":["black","white"],"door_generator_assignment":[1,0],"goal":1,"start":2,"action_noise":0.15,"location_history":"[2,3,4,2,1]","action_history":"[1,1,1,0]","door_history":"[0,0,0,1]","location_rts":"[1675,645,530,1709]","trial_type":"two-door-navigation","trial_index":8,"time_elapsed":3661093,"internal_node_id":"0.0-2.0-6.0"},{"group":"hexagon_tri","room_assignment":["purple","blue","red","yellow","grey","green"],"door_color_assignment":["black","white"],"door_generator_assignment":[1,0],"goal":5,"start":1,"action_noise":0.15,"location_history":"[1,3,2,1,3,2,3,2,3,4,2,1,3,4,2,1,3,4,0,1,3,2,3,4,0,1,3,2,3,4,2,3,4,0,1,5]","action_history":"[1,0,0,0,0,1,0,1,0,1,0,0,1,1,1,0,1,0,1,0,0,1,1,0,1,0,0,1,1,1,1,1,0,0,1]","door_history":"[0,1,1,1,1,0,1,0,1,0,1,1,0,0,0,1,0,1,0,1,1,0,0,1,0,1,1,0,0,0,0,0,1,1,0]","location_rts":"[469,721,568,602,671,1705,478,1800,700,2154,2048,624,1360,1257,663,992,1999,545,1915,1559,949,950,688,1451,1989,1632,2090,630,732,1471,1321,890,1003,1750,1549]","trial_type":"two-door-navigation","trial_index":9,"time_elapsed":3742336,"internal_node_id":"0.0-2.0-7.0"},{"group":"hexagon_tri","room_assignment":["purple","blue","red","yellow","grey","green"],"door_color_assignment":["black","white"],"door_generator_assignment":[1,0],"goal":4,"start":5,"action_noise":0.15,"location_history":"[5,0,5,4]","action_history":"[0,0,0]","door_history":"[1,1,1]","location_rts":"[1949,644,605]","trial_type":"two-door-navigation","trial_index":10,"time_elapsed":3752114,"internal_node_id":"0.0-2.0-8.0"},{"group":"hexagon_tri","room_assignment":["purple","blue","red","yellow","grey","green"],"door_color_assignment":["black","white"],"door_generator_assignment":[1,0],"goal":2,"start":4,"action_noise":0.15,"location_history":"[4,2]","action_history":"[1]","door_history":"[0]","location_rts":"[2082]","trial_type":"two-door-navigation","trial_index":11,"time_elapsed":3758719,"internal_node_id":"0.0-2.0-9.0"},{"group":"hexagon_tri","room_assignment":["purple","blue","red","yellow","grey","green"],"door_color_assignment":["black","white"],"door_generator_assignment":[1,0],"goal":0,"start":2,"action_noise":0.15,"location_history":"[2,3,2,1,3,4,2,3,2,3,2,1,5,0]","action_history":"[1,1,1,1,1,0,1,0,0,0,0,0,1]","door_history":"[0,0,0,0,0,1,0,1,1,1,1,1,0]","location_rts":"[1343,1027,759,1130,760,778,919,652,656,616,704,1529,1234]","trial_type":"two-door-navigation","trial_index":12,"time_elapsed":3787626,"internal_node_id":"0.0-2.0-10.0"},{"group":"hexagon_tri","room_assignment":["purple","blue","red","yellow","grey","green"],"door_color_assignment":["black","white"],"door_generator_assignment":[1,0],"goal":1,"start":0,"action_noise":0.15,"location_history":"[0,5,0,5,4,2,3,4,0,1]","action_history":"[0,1,0,0,1,1,1,0,1]","door_history":"[1,0,1,1,0,0,0,1,0]","location_rts":"[8752,1612,1706,548,981,741,628,1576,980]","trial_type":"two-door-navigation","trial_index":13,"time_elapsed":3817837,"internal_node_id":"0.0-2.0-11.0"},{"group":"hexagon_tri","room_assignment":["purple","blue","red","yellow","grey","green"],"door_color_assignment":["black","white"],"door_generator_assignment":[1,0],"goal":3,"start":1,"action_noise":0.15,"location_history":"[1,5,0,1,5,0,5,4,2,3]","action_history":"[1,1,0,1,1,1,0,1,1]","door_history":"[0,0,1,0,0,0,1,0,0]","location_rts":"[627,637,1235,556,674,581,738,713,1786]","trial_type":"two-door-navigation","trial_index":14,"time_elapsed":3838100,"internal_node_id":"0.0-2.0-12.0"},{"group":"hexagon_tri","room_assignment":["purple","blue","red","yellow","grey","green"],"door_color_assignment":["black","white"],"door_generator_assignment":[1,0],"goal":5,"start":3,"action_noise":0.15,"location_history":"[3,4,2,1,5]","action_history":"[1,0,0,0]","door_history":"[0,1,1,1]","location_rts":"[619,1666,469,613]","trial_type":"two-door-navigation","trial_index":15,"time_elapsed":3849061,"internal_node_id":"0.0-2.0-13.0"},{"group":"hexagon_tri","room_assignment":["purple","blue","red","yellow","grey","green"],"door_color_assignment":["black","white"],"door_generator_assignment":[1,0],"goal":4,"start":5,"action_noise":0.15,"location_history":"[5,0,5,4]","action_history":"[1,0,0]","door_history":"[0,1,1]","location_rts":"[771,874,659]","trial_type":"two-door-navigation","trial_index":16,"time_elapsed":3857944,"internal_node_id":"0.0-2.0-14.0"},{"group":"hexagon_tri","room_assignment":["purple","blue","red","yellow","grey","green"],"door_color_assignment":["black","white"],"door_generator_assignment":[1,0],"goal":0,"start":4,"action_noise":0.15,"location_history":"[4,2,3,4,2,3,2,3,2,1,5,4,2,3,2,3,4,0]","action_history":"[1,1,1,1,1,0,1,0,1,1,0,1,1,1,1,1,0]","door_history":"[0,0,0,0,0,1,0,1,0,0,1,0,0,0,0,0,1]","location_rts":"[1724,567,614,670,570,449,530,644,796,879,1642,902,626,576,872,695,481]","trial_type":"two-door-navigation","trial_index":17,"time_elapsed":3892078,"internal_node_id":"0.0-2.0-15.0"},{"group":"hexagon_tri","room_assignment":["purple","blue","red","yellow","grey","green"],"door_color_assignment":["black","white"],"door_generator_assignment":[1,0],"goal":3,"start":0,"action_noise":0.15,"location_history":"[0,1,5,0,1,3]","action_history":"[1,1,1,1,0]","door_history":"[0,0,0,0,1]","location_rts":"[2628,584,622,666,773]","trial_type":"two-door-navigation","trial_index":18,"time_elapsed":3905975,"internal_node_id":"0.0-2.0-16.0"},{"group":"hexagon_tri","room_assignment":["purple","blue","red","yellow","grey","green"],"door_color_assignment":["black","white"],"door_generator_assignment":[1,0],"goal":1,"start":3,"action_noise":0.15,"location_history":"[3,4,0,1]","action_history":"[1,0,1]","door_history":"[0,1,0]","location_rts":"[2083,973,1031]","trial_type":"two-door-navigation","trial_index":19,"time_elapsed":3916626,"internal_node_id":"0.0-2.0-17.0"},{"group":"hexagon_tri","room_assignment":["purple","blue","red","yellow","grey","green"],"door_color_assignment":["black","white"],"door_generator_assignment":[1,0],"goal":5,"start":1,"action_noise":0.15,"location_history":"[1,5]","action_history":"[1]","door_history":"[0]","location_rts":"[556]","trial_type":"two-door-navigation","trial_index":20,"time_elapsed":3921704,"internal_node_id":"0.0-2.0-18.0"},{"group":"hexagon_tri","room_assignment":["purple","blue","red","yellow","grey","green"],"door_color_assignment":["black","white"],"door_generator_assignment":[1,0],"goal":2,"start":5,"action_noise":0.15,"location_history":"[5,4,2]","action_history":"[1,1]","door_history":"[0,0]","location_rts":"[2961,561]","trial_type":"two-door-navigation","trial_index":21,"time_elapsed":3930777,"internal_node_id":"0.0-2.0-19.0"},{"group":"hexagon_tri","room_assignment":["purple","blue","red","yellow","grey","green"],"door_color_assignment":["black","white"],"door_generator_assignment":[1,0],"goal":4,"start":2,"action_noise":0.15,"location_history":"[2,1,3,2,1,5,4]","action_history":"[0,0,0,0,1,0]","door_history":"[1,1,1,1,0,1]","location_rts":"[2413,586,609,600,970,715]","trial_type":"two-door-navigation","trial_index":22,"time_elapsed":3946320,"internal_node_id":"0.0-2.0-20.0"},{"group":"hexagon_tri","room_assignment":["purple","blue","red","yellow","grey","green"],"door_color_assignment":["black","white"],"door_generator_assignment":[1,0],"goal":1,"start":4,"action_noise":0.15,"location_history":"[4,2,3,4,0,1]","action_history":"[1,1,1,0,1]","door_history":"[0,0,0,1,0]","location_rts":"[2255,575,638,580,570]","trial_type":"two-door-navigation","trial_index":23,"time_elapsed":3959544,"internal_node_id":"0.0-2.0-21.0"},{"group":"hexagon_tri","room_assignment":["purple","blue","red","yellow","grey","green"],"door_color_assignment":["black","white"],"door_generator_assignment":[1,0],"goal":3,"start":1,"action_noise":0.15,"location_history":"[1,5,4,2,1,5,0,1,3]","action_history":"[1,0,1,1,1,1,1,0]","door_history":"[0,1,0,0,0,0,0,1]","location_rts":"[625,594,279,626,597,673,555,1283]","trial_type":"two-door-navigation","trial_index":24,"time_elapsed":3976473,"internal_node_id":"0.0-2.0-22.0"},{"group":"hexagon_tri","room_assignment":["purple","blue","red","yellow","grey","green"],"door_color_assignment":["black","white"],"door_generator_assignment":[1,0],"goal":2,"start":3,"action_noise":0.15,"location_history":"[3,2]","action_history":"[1]","door_history":"[0]","location_rts":"[727]","trial_type":"two-door-navigation","trial_index":25,"time_elapsed":3981723,"internal_node_id":"0.0-2.0-23.0"},{"group":"hexagon_tri","room_assignment":["purple","blue","red","yellow","grey","green"],"door_color_assignment":["black","white"],"door_generator_assignment":[1,0],"goal":0,"start":2,"action_noise":0.15,"location_history":"[2,3,4,2,3,4,2,1,5,0]","action_history":"[1,1,0,1,1,1,0,1,1]","door_history":"[0,0,1,0,0,0,1,0,0]","location_rts":"[2330,1138,884,1401,719,638,1363,1266,809]","trial_type":"two-door-navigation","trial_index":26,"time_elapsed":4004970,"internal_node_id":"0.0-2.0-24.0"},{"group":"hexagon_tri","room_assignment":["purple","blue","red","yellow","grey","green"],"door_color_assignment":["black","white"],"door_generator_assignment":[1,0],"goal":5,"start":0,"action_noise":0.15,"location_history":"[0,5]","action_history":"[1]","door_history":"[0]","location_rts":"[1233]","trial_type":"two-door-navigation","trial_index":27,"time_elapsed":4010728,"internal_node_id":"0.0-2.0-25.0"},{"group":"hexagon_tri","room_assignment":["purple","blue","red","yellow","grey","green"],"door_color_assignment":["black","white"],"door_generator_assignment":[1,0],"goal":2,"start":5,"action_noise":0.15,"location_history":"[5,4,0,1,3,4,2]","action_history":"[0,0,1,1,1,1]","door_history":"[1,1,0,0,0,0]","location_rts":"[2018,1237,1013,656,616,737]","trial_type":"two-door-navigation","trial_index":28,"time_elapsed":4026656,"internal_node_id":"0.0-2.0-26.0"},{"group":"hexagon_tri","room_assignment":["purple","blue","red","yellow","grey","green"],"door_color_assignment":["black","white"],"door_generator_assignment":[1,0],"goal":3,"start":2,"action_noise":0.15,"location_history":"[2,1,5,0,5,4,0,1,5,0,1,5,0,5,4,2,3]","action_history":"[1,1,1,0,1,0,1,1,1,1,1,1,0,0,0,1]","door_history":"[0,0,0,1,0,1,0,0,0,0,0,0,1,1,1,0]","location_rts":"[2522,612,693,1692,1319,1301,1575,1085,1121,1000,911,1618,921,646,1076,2022]","trial_type":"two-door-navigation","trial_index":29,"time_elapsed":4066628,"internal_node_id":"0.0-2.0-27.0"},{"group":"hexagon_tri","room_assignment":["purple","blue","red","yellow","grey","green"],"door_color_assignment":["black","white"],"door_generator_assignment":[1,0],"goal":0,"start":3,"action_noise":0.15,"location_history":"[3,4,0]","action_history":"[1,0]","door_history":"[0,1]","location_rts":"[1126,1049]","trial_type":"two-door-navigation","trial_index":30,"time_elapsed":4074353,"internal_node_id":"0.0-2.0-28.0"},{"group":"hexagon_tri","room_assignment":["purple","blue","red","yellow","grey","green"],"door_color_assignment":["black","white"],"door_generator_assignment":[1,0],"goal":1,"start":0,"action_noise":0.15,"location_history":"[0,1]","action_history":"[1]","door_history":"[0]","location_rts":"[668]","trial_type":"two-door-navigation","trial_index":31,"time_elapsed":4079547,"internal_node_id":"0.0-2.0-29.0"},{"group":"hexagon_tri","room_assignment":["purple","blue","red","yellow","grey","green"],"door_color_assignment":["black","white"],"door_generator_assignment":[1,0],"goal":4,"start":1,"action_noise":0.15,"location_history":"[1,3,2,1,3,4]","action_history":"[0,0,0,0,0]","door_history":"[1,1,1,1,1]","location_rts":"[1136,1597,2630,1330,911]","trial_type":"two-door-navigation","trial_index":32,"time_elapsed":4095777,"internal_node_id":"0.0-2.0-30.0"},{"group":"hexagon_tri","room_assignment":["purple","blue","red","yellow","grey","green"],"door_color_assignment":["black","white"],"door_generator_assignment":[1,0],"goal":5,"start":4,"action_noise":0.15,"location_history":"[4,0,5]","action_history":"[0,0]","door_history":"[1,1]","location_rts":"[2714,3106]","trial_type":"two-door-navigation","trial_index":33,"time_elapsed":4107138,"internal_node_id":"0.0-2.0-31.0"},{"group":"hexagon_tri","room_assignment":["purple","blue","red","yellow","grey","green"],"door_color_assignment":["black","white"],"door_generator_assignment":[1,0],"goal":0,"start":5,"action_noise":0.15,"location_history":"[5,0]","action_history":"[1]","door_history":"[0]","location_rts":"[2260]","trial_type":"two-door-navigation","trial_index":34,"time_elapsed":4113924,"internal_node_id":"0.0-2.0-32.0"},{"group":"hexagon_tri","room_assignment":["purple","blue","red","yellow","grey","green"],"door_color_assignment":["black","white"],"door_generator_assignment":[1,0],"goal":3,"start":0,"action_noise":0.15,"location_history":"[0,1,5,0,5,4,0,1,3]","action_history":"[1,1,1,0,0,0,0,0]","door_history":"[0,0,0,1,1,1,1,1]","location_rts":"[1026,1548,2135,1787,1057,964,692,615]","trial_type":"two-door-navigation","trial_index":35,"time_elapsed":4135434,"internal_node_id":"0.0-2.0-33.0"},{"group":"hexagon_tri","room_assignment":["purple","blue","red","yellow","grey","green"],"door_color_assignment":["black","white"],"door_generator_assignment":[1,0],"goal":1,"start":3,"action_noise":0.15,"location_history":"[3,4,2,3,4,0,5,0,5,0,1]","action_history":"[1,1,1,1,0,1,1,0,1,1]","door_history":"[0,0,0,0,1,0,0,1,0,0]","location_rts":"[2132,1452,980,675,1186,495,619,1869,525,792]","trial_type":"two-door-navigation","trial_index":36,"time_elapsed":4159893,"internal_node_id":"0.0-2.0-34.0"},{"group":"hexagon_tri","room_assignment":["purple","blue","red","yellow","grey","green"],"door_color_assignment":["black","white"],"door_generator_assignment":[1,0],"goal":2,"start":1,"action_noise":0.15,"location_history":"[1,5,0,1,3,4,2]","action_history":"[1,1,1,0,1,1]","door_history":"[0,0,0,1,0,0]","location_rts":"[552,725,588,1366,621,681]","trial_type":"two-door-navigation","trial_index":37,"time_elapsed":4174060,"internal_node_id":"0.0-2.0-35.0"},{"group":"hexagon_tri","room_assignment":["purple","blue","red","yellow","grey","green"],"door_color_assignment":["black","white"],"door_generator_assignment":[1,0],"goal":4,"start":2,"action_noise":0.15,"location_history":"[2,3,2,3,4]","action_history":"[1,0,1,0]","door_history":"[0,1,0,1]","location_rts":"[597,862,580,1225]","trial_type":"two-door-navigation","trial_index":38,"time_elapsed":4184917,"internal_node_id":"0.0-2.0-36.0"},{"group":"hexagon_tri","room_assignment":["purple","blue","red","yellow","grey","green"],"door_color_assignment":["black","white"],"door_generator_assignment":[1,0],"goal":5,"start":4,"action_noise":0.15,"location_history":"[4,2,3,2,1,3,2,3,2,3,2,1,5]","action_history":"[1,1,0,0,0,0,1,0,1,0,0,1]","door_history":"[0,0,1,1,1,1,0,1,0,1,1,0]","location_rts":"[1100,660,1324,591,672,614,1277,611,1321,684,664,1609]","trial_type":"two-door-navigation","trial_index":39,"time_elapsed":4211813,"internal_node_id":"0.0-2.0-37.0"},{"group":"hexagon_tri","room_assignment":["purple","blue","red","yellow","grey","green"],"door_color_assignment":["black","white"],"door_generator_assignment":[1,0],"goal":1,"start":5,"action_noise":0.15,"location_history":"[5,0,5,0,1]","action_history":"[1,0,1,1]","door_history":"[0,1,0,0]","location_rts":"[1211,1010,555,690]","trial_type":"two-door-navigation","trial_index":40,"time_elapsed":4222876,"internal_node_id":"0.0-2.0-38.0"},{"group":"hexagon_tri","room_assignment":["purple","blue","red","yellow","grey","green"],"door_color_assignment":["black","white"],"door_generator_assignment":[1,0],"goal":4,"start":1,"action_noise":0.15,"location_history":"[1,5,4]","action_history":"[1,0]","door_history":"[0,1]","location_rts":"[501,734]","trial_type":"two-door-navigation","trial_index":41,"time_elapsed":4229648,"internal_node_id":"0.0-2.0-39.0"},{"group":"hexagon_tri","room_assignment":["purple","blue","red","yellow","grey","green"],"door_color_assignment":["black","white"],"door_generator_assignment":[1,0],"goal":3,"start":4,"action_noise":0.15,"location_history":"[4,2,1,5,0,1,5,0,5,4,2,1,3]","action_history":"[1,1,1,1,1,1,1,1,0,1,0,0]","door_history":"[0,0,0,0,0,0,0,0,1,0,1,1]","location_rts":"[1955,663,584,689,644,726,695,580,434,949,1197,568]","trial_type":"two-door-navigation","trial_index":42,"time_elapsed":4255094,"internal_node_id":"0.0-2.0-40.0"},{"group":"hexagon_tri","room_assignment":["purple","blue","red","yellow","grey","green"],"door_color_assignment":["black","white"],"door_generator_assignment":[1,0],"goal":2,"start":3,"action_noise":0.15,"location_history":"[3,4,0,1,3,2]","action_history":"[1,1,1,0,1]","door_history":"[0,0,0,1,0]","location_rts":"[3026,678,804,914,845]","trial_type":"two-door-navigation","trial_index":43,"time_elapsed":4269974,"internal_node_id":"0.0-2.0-41.0"},{"group":"hexagon_tri","room_assignment":["purple","blue","red","yellow","grey","green"],"door_color_assignment":["black","white"],"door_generator_assignment":[1,0],"goal":0,"start":2,"action_noise":0.15,"location_history":"[2,3,2,3,4,2,3,2,3,4,0]","action_history":"[1,0,0,1,1,1,1,0,1,0]","door_history":"[0,1,1,0,0,0,0,1,0,1]","location_rts":"[1194,711,1717,737,578,655,651,908,570,523]","trial_type":"two-door-navigation","trial_index":44,"time_elapsed":4291945,"internal_node_id":"0.0-2.0-42.0"},{"group":"hexagon_tri","room_assignment":["purple","blue","red","yellow","grey","green"],"door_color_assignment":["black","white"],"door_generator_assignment":[1,0],"goal":5,"start":0,"action_noise":0.15,"location_history":"[0,5]","action_history":"[0]","door_history":"[1]","location_rts":"[2452]","trial_type":"two-door-navigation","trial_index":45,"time_elapsed":4298921,"internal_node_id":"0.0-2.0-43.0"},{"group":"hexagon_tri","room_assignment":["purple","blue","red","yellow","grey","green"],"door_color_assignment":["black","white"],"door_generator_assignment":[1,0],"goal":0,"start":5,"action_noise":0.15,"location_history":"[5,4,2,3,4,2,3,2,3,2,1,3,2,1,5,4,2,1,3,4,2,3,2,1,5,0]","action_history":"[0,1,1,1,1,1,1,0,0,1,0,0,0,1,0,1,0,0,1,1,0,1,1,1,1]","door_history":"[1,0,0,0,0,0,0,1,1,0,1,1,1,0,1,0,1,1,0,0,1,0,0,0,0]","location_rts":"[2710,2294,592,609,583,715,592,1201,1581,1452,463,2918,642,740,574,3041,2005,619,1208,633,1054,593,849,732,616]","trial_type":"two-door-navigation","trial_index":46,"time_elapsed":4356999,"internal_node_id":"0.0-2.0-44.0"},{"group":"hexagon_tri","room_assignment":["purple","blue","red","yellow","grey","green"],"door_color_assignment":["black","white"],"door_generator_assignment":[1,0],"goal":2,"start":0,"action_noise":0.15,"location_history":"[0,5,4,0,5,0,1,3,4,2]","action_history":"[0,0,0,0,0,1,0,1,1]","door_history":"[1,1,1,1,1,0,1,0,0]","location_rts":"[2938,709,612,881,566,1103,580,597,621]","trial_type":"two-door-navigation","trial_index":47,"time_elapsed":4378306,"internal_node_id":"0.0-2.0-45.0"},{"group":"hexagon_tri","room_assignment":["purple","blue","red","yellow","grey","green"],"door_color_assignment":["black","white"],"door_generator_assignment":[1,0],"goal":4,"start":2,"action_noise":0.15,"location_history":"[2,3,4]","action_history":"[1,1]","door_history":"[0,0]","location_rts":"[3482,608]","trial_type":"two-door-navigation","trial_index":48,"time_elapsed":4387948,"internal_node_id":"0.0-2.0-46.0"},{"group":"hexagon_tri","room_assignment":["purple","blue","red","yellow","grey","green"],"door_color_assignment":["black","white"],"door_generator_assignment":[1,0],"goal":1,"start":4,"action_noise":0.15,"location_history":"[4,0,1]","action_history":"[0,1]","door_history":"[1,0]","location_rts":"[1902,1347]","trial_type":"two-door-navigation","trial_index":49,"time_elapsed":4396743,"internal_node_id":"0.0-2.0-47.0"},{"group":"hexagon_tri","room_assignment":["purple","blue","red","yellow","grey","green"],"door_color_assignment":["black","white"],"door_generator_assignment":[1,0],"goal":5,"start":1,"action_noise":0.15,"location_history":"[1,3,4,2,3,4,0,1,5]","action_history":"[0,1,1,1,1,0,1,1]","door_history":"[1,0,0,0,0,1,0,0]","location_rts":"[2120,947,1674,663,645,1210,761,643]","trial_type":"two-door-navigation","trial_index":50,"time_elapsed":4417092,"internal_node_id":"0.0-2.0-48.0"},{"group":"hexagon_tri","room_assignment":["purple","blue","red","yellow","grey","green"],"door_color_assignment":["black","white"],"door_generator_assignment":[1,0],"goal":3,"start":5,"action_noise":0.15,"location_history":"[5,4,2,1,5,4,0,1,3]","action_history":"[0,1,0,1,1,0,1,0]","door_history":"[1,0,1,0,0,1,0,1]","location_rts":"[1641,1108,1290,978,975,1564,975,1983]","trial_type":"two-door-navigation","trial_index":51,"time_elapsed":4439285,"internal_node_id":"0.0-2.0-49.0"},{"view_history":"[{\"page_index\":0,\"viewing_time\":10790}]","rt":10790,"trial_type":"instructions","trial_index":52,"time_elapsed":4451076,"internal_node_id":"0.0-3.0"},{"view_history":"[{\"page_index\":0,\"viewing_time\":1794},{\"page_index\":1,\"viewing_time\":7256}]","rt":9050,"trial_type":"instructions","trial_index":53,"time_elapsed":4461127,"internal_node_id":"0.0-4.0"},{"group":"hexagon_bi","fractal_assignment":["../images/org_blu.png","../images/blu_wht.png","../images/ylw_slt.png","../images/pnk_blu.png","../images/cyn_red.png","../images/gry_blk.png"],"mutagen_generator_assignment":[0,1],"goal":3,"start":5,"action_noise":0.15,"location_history":"[5,4,3]","action_history":"[0,0]","mutagen_history":"[0,0]","location_rts":"[3259,471]","trial_type":"fractal-mutation","trial_index":54,"time_elapsed":4470448,"internal_node_id":"0.0-5.0-0.0"},{"group":"hexagon_bi","fractal_assignment":["../images/org_blu.png","../images/blu_wht.png","../images/ylw_slt.png","../images/pnk_blu.png","../images/cyn_red.png","../images/gry_blk.png"],"mutagen_generator_assignment":[0,1],"goal":1,"start":3,"action_noise":0.15,"location_history":"[3,2,1]","action_history":"[1,0]","mutagen_history":"[1,0]","location_rts":"[1131,916]","trial_type":"fractal-mutation","trial_index":55,"time_elapsed":4478088,"internal_node_id":"0.0-5.0-1.0"},{"group":"hexagon_bi","fractal_assignment":["../images/org_blu.png","../images/blu_wht.png","../images/ylw_slt.png","../images/pnk_blu.png","../images/cyn_red.png","../images/gry_blk.png"],"mutagen_generator_assignment":[0,1],"goal":0,"start":1,"action_noise":0.15,"location_history":"[1,0]","action_history":"[1]","mutagen_history":"[1]","location_rts":"[1450]","trial_type":"fractal-mutation","trial_index":56,"time_elapsed":4484100,"internal_node_id":"0.0-5.0-2.0"},{"group":"hexagon_bi","fractal_assignment":["../images/org_blu.png","../images/blu_wht.png","../images/ylw_slt.png","../images/pnk_blu.png","../images/cyn_red.png","../images/gry_blk.png"],"mutagen_generator_assignment":[0,1],"goal":3,"start":0,"action_noise":0.15,"location_history":"[0,5,0,5,0,1,2,3]","action_history":"[0,1,1,0,1,0,1]","mutagen_history":"[0,1,1,0,1,0,1]","location_rts":"[1163,835,1016,320,596,1434,861]","trial_type":"fractal-mutation","trial_index":57,"time_elapsed":4501121,"internal_node_id":"0.0-5.0-3.0"},{"group":"hexagon_bi","fractal_assignment":["../images/org_blu.png","../images/blu_wht.png","../images/ylw_slt.png","../images/pnk_blu.png","../images/cyn_red.png","../images/gry_blk.png"],"mutagen_generator_assignment":[0,1],"goal":4,"start":3,"action_noise":0.15,"location_history":"[3,2,3,4]","action_history":"[1,1,0]","mutagen_history":"[1,1,0]","location_rts":"[1648,544,275]","trial_type":"fractal-mutation","trial_index":58,"time_elapsed":4510229,"internal_node_id":"0.0-5.0-4.0"},{"group":"hexagon_bi","fractal_assignment":["../images/org_blu.png","../images/blu_wht.png","../images/ylw_slt.png","../images/pnk_blu.png","../images/cyn_red.png","../images/gry_blk.png"],"mutagen_generator_assignment":[0,1],"goal":2,"start":4,"action_noise":0.15,"location_history":"[4,5,0,5,0,1,2]","action_history":"[1,0,1,0,1,0]","mutagen_history":"[1,0,1,0,1,0]","location_rts":"[1723,301,791,568,839,608]","trial_type":"fractal-mutation","trial_index":59,"time_elapsed":4524792,"internal_node_id":"0.0-5.0-5.0"},{"group":"hexagon_bi","fractal_assignment":["../images/org_blu.png","../images/blu_wht.png","../images/ylw_slt.png","../images/pnk_blu.png","../images/cyn_red.png","../images/gry_blk.png"],"mutagen_generator_assignment":[0,1],"goal":1,"start":2,"action_noise":0.15,"location_history":"[2,3,4,3,4,3,4,5,0,5,0,5,4,3,4,5,0,5,0,1]","action_history":"[1,1,0,1,0,0,1,0,0,0,0,1,1,0,1,0,0,0,1]","mutagen_history":"[1,1,0,1,0,0,1,0,0,0,0,1,1,0,1,0,0,0,1]","location_rts":"[1581,1169,270,412,1891,916,468,318,809,519,369,334,1371,394,421,907,597,399,256]","trial_type":"fractal-mutation","trial_index":60,"time_elapsed":4561422,"internal_node_id":"0.0-5.0-6.0"},{"group":"hexagon_bi","fractal_assignment":["../images/org_blu.png","../images/blu_wht.png","../images/ylw_slt.png","../images/pnk_blu.png","../images/cyn_red.png","../images/gry_blk.png"],"mutagen_generator_assignment":[0,1],"goal":5,"start":1,"action_noise":0.15,"location_history":"[1,2,1,0,5]","action_history":"[0,1,1,0]","mutagen_history":"[0,1,1,0]","location_rts":"[1405,338,2303,246]","trial_type":"fractal-mutation","trial_index":61,"time_elapsed":4573378,"internal_node_id":"0.0-5.0-7.0"},{"group":"hexagon_bi","fractal_assignment":["../images/org_blu.png","../images/blu_wht.png","../images/ylw_slt.png","../images/pnk_blu.png","../images/cyn_red.png","../images/gry_blk.png"],"mutagen_generator_assignment":[0,1],"goal":4,"start":5,"action_noise":0.15,"location_history":"[5,0,1,0,5,4]","action_history":"[0,1,1,0,1]","mutagen_history":"[0,1,1,0,1]","location_rts":"[387,968,1127,445,381]","trial_type":"fractal-mutation","trial_index":62,"time_elapsed":4585387,"internal_node_id":"0.0-5.0-8.0"},{"group":"hexagon_bi","fractal_assignment":["../images/org_blu.png","../images/blu_wht.png","../images/ylw_slt.png","../images/pnk_blu.png","../images/cyn_red.png","../images/gry_blk.png"],"mutagen_generator_assignment":[0,1],"goal":2,"start":4,"action_noise":0.15,"location_history":"[4,3,2]","action_history":"[0,1]","mutagen_history":"[0,1]","location_rts":"[1739,726]","trial_type":"fractal-mutation","trial_index":63,"time_elapsed":4593425,"internal_node_id":"0.0-5.0-9.0"},{"group":"hexagon_bi","fractal_assignment":["../images/org_blu.png","../images/blu_wht.png","../images/ylw_slt.png","../images/pnk_blu.png","../images/cyn_red.png","../images/gry_blk.png"],"mutagen_generator_assignment":[0,1],"goal":0,"start":2,"action_noise":0.15,"location_history":"[2,1,0]","action_history":"[0,1]","mutagen_history":"[0,1]","location_rts":"[1611,604]","trial_type":"fractal-mutation","trial_index":64,"time_elapsed":4601223,"internal_node_id":"0.0-5.0-10.0"},{"group":"hexagon_bi","fractal_assignment":["../images/org_blu.png","../images/blu_wht.png","../images/ylw_slt.png","../images/pnk_blu.png","../images/cyn_red.png","../images/gry_blk.png"],"mutagen_generator_assignment":[0,1],"goal":1,"start":0,"action_noise":0.15,"location_history":"[0,1]","action_history":"[1]","mutagen_history":"[1]","location_rts":"[1504]","trial_type":"fractal-mutation","trial_index":65,"time_elapsed":4607265,"internal_node_id":"0.0-5.0-11.0"},{"group":"hexagon_bi","fractal_assignment":["../images/org_blu.png","../images/blu_wht.png","../images/ylw_slt.png","../images/pnk_blu.png","../images/cyn_red.png","../images/gry_blk.png"],"mutagen_generator_assignment":[0,1],"goal":3,"start":1,"action_noise":0.15,"location_history":"[1,2,3]","action_history":"[0,1]","mutagen_history":"[0,1]","location_rts":"[1586,699]","trial_type":"fractal-mutation","trial_index":66,"time_elapsed":4615126,"internal_node_id":"0.0-5.0-12.0"},{"group":"hexagon_bi","fractal_assignment":["../images/org_blu.png","../images/blu_wht.png","../images/ylw_slt.png","../images/pnk_blu.png","../images/cyn_red.png","../images/gry_blk.png"],"mutagen_generator_assignment":[0,1],"goal":5,"start":3,"action_noise":0.15,"location_history":"[3,4,5]","action_history":"[0,1]","mutagen_history":"[0,1]","location_rts":"[1554,667]","trial_type":"fractal-mutation","trial_index":67,"time_elapsed":4622940,"internal_node_id":"0.0-5.0-13.0"},{"group":"hexagon_bi","fractal_assignment":["../images/org_blu.png","../images/blu_wht.png","../images/ylw_slt.png","../images/pnk_blu.png","../images/cyn_red.png","../images/gry_blk.png"],"mutagen_generator_assignment":[0,1],"goal":4,"start":5,"action_noise":0.15,"location_history":"[5,0,5,4]","action_history":"[1,0,1]","mutagen_history":"[1,0,1]","location_rts":"[1691,627,459]","trial_type":"fractal-mutation","trial_index":68,"time_elapsed":4632349,"internal_node_id":"0.0-5.0-14.0"},{"group":"hexagon_bi","fractal_assignment":["../images/org_blu.png","../images/blu_wht.png","../images/ylw_slt.png","../images/pnk_blu.png","../images/cyn_red.png","../images/gry_blk.png"],"mutagen_generator_assignment":[0,1],"goal":0,"start":4,"action_noise":0.15,"location_history":"[4,3,2,3,4,5,4,5,4,3,4,5,4,3,4,3,4,3,4,5,0]","action_history":"[0,1,0,0,0,1,1,0,0,1,1,0,0,0,0,1,0,1,1,0]","mutagen_history":"[0,1,0,0,0,1,1,0,0,1,1,0,0,0,0,1,0,1,1,0]","location_rts":"[1370,543,833,529,834,282,1273,483,605,926,466,348,1561,615,345,812,965,559,310,887]","trial_type":"fractal-mutation","trial_index":69,"time_elapsed":4671145,"internal_node_id":"0.0-5.0-15.0"},{"group":"hexagon_bi","fractal_assignment":["../images/org_blu.png","../images/blu_wht.png","../images/ylw_slt.png","../images/pnk_blu.png","../images/cyn_red.png","../images/gry_blk.png"],"mutagen_generator_assignment":[0,1],"goal":3,"start":0,"action_noise":0.15,"location_history":"[0,1,2,1,0,1,2,1,0,1,0,5,4,5,4,3]","action_history":"[1,0,1,1,1,0,0,0,1,1,0,1,0,0,1]","mutagen_history":"[1,0,1,1,1,0,0,0,1,1,0,1,0,0,1]","location_rts":"[442,481,837,723,692,1109,596,468,670,781,568,295,1126,1058,477]","trial_type":"fractal-mutation","trial_index":70,"time_elapsed":4700543,"internal_node_id":"0.0-5.0-16.0"},{"group":"hexagon_bi","fractal_assignment":["../images/org_blu.png","../images/blu_wht.png","../images/ylw_slt.png","../images/pnk_blu.png","../images/cyn_red.png","../images/gry_blk.png"],"mutagen_generator_assignment":[0,1],"goal":1,"start":3,"action_noise":0.15,"location_history":"[3,4,3,2,3,2,3,4,3,4,5,0,5,4,3,4,5,4,3,2,1]","action_history":"[0,0,1,1,1,0,1,0,0,0,1,0,1,0,0,1,1,0,1,0]","mutagen_history":"[0,0,1,1,1,0,1,0,0,0,1,0,1,0,0,1,1,0,1,0]","location_rts":"[959,926,245,525,493,702,807,299,580,540,388,687,798,1821,1064,408,428,789,229,661]","trial_type":"fractal-mutation","trial_index":71,"time_elapsed":4738118,"internal_node_id":"0.0-5.0-17.0"},{"group":"hexagon_bi","fractal_assignment":["../images/org_blu.png","../images/blu_wht.png","../images/ylw_slt.png","../images/pnk_blu.png","../images/cyn_red.png","../images/gry_blk.png"],"mutagen_generator_assignment":[0,1],"goal":5,"start":1,"action_noise":0.15,"location_history":"[1,2,3,4,5]","action_history":"[0,1,0,0]","mutagen_history":"[0,1,0,0]","location_rts":"[1086,879,1477,1302]","trial_type":"fractal-mutation","trial_index":72,"time_elapsed":4750504,"internal_node_id":"0.0-5.0-18.0"},{"group":"hexagon_bi","fractal_assignment":["../images/org_blu.png","../images/blu_wht.png","../images/ylw_slt.png","../images/pnk_blu.png","../images/cyn_red.png","../images/gry_blk.png"],"mutagen_generator_assignment":[0,1],"goal":2,"start":5,"action_noise":0.15,"location_history":"[5,0,1,2]","action_history":"[1,0,0]","mutagen_history":"[1,0,0]","location_rts":"[2731,1124,909]","trial_type":"fractal-mutation","trial_index":73,"time_elapsed":4761871,"internal_node_id":"0.0-5.0-19.0"},{"group":"hexagon_bi","fractal_assignment":["../images/org_blu.png","../images/blu_wht.png","../images/ylw_slt.png","../images/pnk_blu.png","../images/cyn_red.png","../images/gry_blk.png"],"mutagen_generator_assignment":[0,1],"goal":4,"start":2,"action_noise":0.15,"location_history":"[2,3,4]","action_history":"[1,0]","mutagen_history":"[1,0]","location_rts":"[1448,530]","trial_type":"fractal-mutation","trial_index":74,"time_elapsed":4769427,"internal_node_id":"0.0-5.0-20.0"},{"group":"hexagon_bi","fractal_assignment":["../images/org_blu.png","../images/blu_wht.png","../images/ylw_slt.png","../images/pnk_blu.png","../images/cyn_red.png","../images/gry_blk.png"],"mutagen_generator_assignment":[0,1],"goal":1,"start":4,"action_noise":0.15,"location_history":"[4,3,2,1]","action_history":"[0,1,0]","mutagen_history":"[0,1,0]","location_rts":"[2345,499,857]","trial_type":"fractal-mutation","trial_index":75,"time_elapsed":4779735,"internal_node_id":"0.0-5.0-21.0"},{"group":"hexagon_bi","fractal_assignment":["../images/org_blu.png","../images/blu_wht.png","../images/ylw_slt.png","../images/pnk_blu.png","../images/cyn_red.png","../images/gry_blk.png"],"mutagen_generator_assignment":[0,1],"goal":3,"start":1,"action_noise":0.15,"location_history":"[1,2,3]","action_history":"[0,1]","mutagen_history":"[0,1]","location_rts":"[966,509]","trial_type":"fractal-mutation","trial_index":76,"time_elapsed":4786799,"internal_node_id":"0.0-5.0-22.0"},{"group":"hexagon_bi","fractal_assignment":["../images/org_blu.png","../images/blu_wht.png","../images/ylw_slt.png","../images/pnk_blu.png","../images/cyn_red.png","../images/gry_blk.png"],"mutagen_generator_assignment":[0,1],"goal":2,"start":3,"action_noise":0.15,"location_history":"[3,2]","action_history":"[0]","mutagen_history":"[0]","location_rts":"[949]","trial_type":"fractal-mutation","trial_index":77,"time_elapsed":4792298,"internal_node_id":"0.0-5.0-23.0"},{"group":"hexagon_bi","fractal_assignment":["../images/org_blu.png","../images/blu_wht.png","../images/ylw_slt.png","../images/pnk_blu.png","../images/cyn_red.png","../images/gry_blk.png"],"mutagen_generator_assignment":[0,1],"goal":0,"start":2,"action_noise":0.15,"location_history":"[2,1,0]","action_history":"[0,1]","mutagen_history":"[0,1]","location_rts":"[1211,971]","trial_type":"fractal-mutation","trial_index":78,"time_elapsed":4800047,"internal_node_id":"0.0-5.0-24.0"},{"group":"hexagon_bi","fractal_assignment":["../images/org_blu.png","../images/blu_wht.png","../images/ylw_slt.png","../images/pnk_blu.png","../images/cyn_red.png","../images/gry_blk.png"],"mutagen_generator_assignment":[0,1],"goal":5,"start":0,"action_noise":0.15,"location_history":"[0,5]","action_history":"[0]","mutagen_history":"[0]","location_rts":"[1328]","trial_type":"fractal-mutation","trial_index":79,"time_elapsed":4805913,"internal_node_id":"0.0-5.0-25.0"},{"group":"hexagon_bi","fractal_assignment":["../images/org_blu.png","../images/blu_wht.png","../images/ylw_slt.png","../images/pnk_blu.png","../images/cyn_red.png","../images/gry_blk.png"],"mutagen_generator_assignment":[0,1],"goal":2,"start":5,"action_noise":0.15,"location_history":"[5,4,5,0,1,2]","action_history":"[1,1,0,1,0]","mutagen_history":"[1,1,0,1,0]","location_rts":"[962,944,323,487,902]","trial_type":"fractal-mutation","trial_index":80,"time_elapsed":4818235,"internal_node_id":"0.0-5.0-26.0"},{"group":"hexagon_bi","fractal_assignment":["../images/org_blu.png","../images/blu_wht.png","../images/ylw_slt.png","../images/pnk_blu.png","../images/cyn_red.png","../images/gry_blk.png"],"mutagen_generator_assignment":[0,1],"goal":3,"start":2,"action_noise":0.15,"location_history":"[2,1,2,1,2,3]","action_history":"[1,0,0,0,1]","mutagen_history":"[1,0,0,0,1]","location_rts":"[922,320,602,363,240]","trial_type":"fractal-mutation","trial_index":81,"time_elapsed":4829401,"internal_node_id":"0.0-5.0-27.0"},{"group":"hexagon_bi","fractal_assignment":["../images/org_blu.png","../images/blu_wht.png","../images/ylw_slt.png","../images/pnk_blu.png","../images/cyn_red.png","../images/gry_blk.png"],"mutagen_generator_assignment":[0,1],"goal":0,"start":3,"action_noise":0.15,"location_history":"[3,4,5,0]","action_history":"[0,1,0]","mutagen_history":"[0,1,0]","location_rts":"[988,357,408]","trial_type":"fractal-mutation","trial_index":82,"time_elapsed":4837775,"internal_node_id":"0.0-5.0-28.0"},{"group":"hexagon_bi","fractal_assignment":["../images/org_blu.png","../images/blu_wht.png","../images/ylw_slt.png","../images/pnk_blu.png","../images/cyn_red.png","../images/gry_blk.png"],"mutagen_generator_assignment":[0,1],"goal":1,"start":0,"action_noise":0.15,"location_history":"[0,1]","action_history":"[1]","mutagen_history":"[1]","location_rts":"[958]","trial_type":"fractal-mutation","trial_index":83,"time_elapsed":4843270,"internal_node_id":"0.0-5.0-29.0"},{"group":"hexagon_bi","fractal_assignment":["../images/org_blu.png","../images/blu_wht.png","../images/ylw_slt.png","../images/pnk_blu.png","../images/cyn_red.png","../images/gry_blk.png"],"mutagen_generator_assignment":[0,1],"goal":4,"start":1,"action_noise":0.15,"location_history":"[1,2,3,4]","action_history":"[0,1,0]","mutagen_history":"[0,1,0]","location_rts":"[1170,508,614]","trial_type":"fractal-mutation","trial_index":84,"time_elapsed":4852181,"internal_node_id":"0.0-5.0-30.0"},{"group":"hexagon_bi","fractal_assignment":["../images/org_blu.png","../images/blu_wht.png","../images/ylw_slt.png","../images/pnk_blu.png","../images/cyn_red.png","../images/gry_blk.png"],"mutagen_generator_assignment":[0,1],"goal":5,"start":4,"action_noise":0.15,"location_history":"[4,5]","action_history":"[1]","mutagen_history":"[1]","location_rts":"[1504]","trial_type":"fractal-mutation","trial_index":85,"time_elapsed":4858242,"internal_node_id":"0.0-5.0-31.0"},{"group":"hexagon_bi","fractal_assignment":["../images/org_blu.png","../images/blu_wht.png","../images/ylw_slt.png","../images/pnk_blu.png","../images/cyn_red.png","../images/gry_blk.png"],"mutagen_generator_assignment":[0,1],"goal":0,"start":5,"action_noise":0.15,"location_history":"[5,0]","action_history":"[0]","mutagen_history":"[0]","location_rts":"[702]","trial_type":"fractal-mutation","trial_index":86,"time_elapsed":4863487,"internal_node_id":"0.0-5.0-32.0"},{"group":"hexagon_bi","fractal_assignment":["../images/org_blu.png","../images/blu_wht.png","../images/ylw_slt.png","../images/pnk_blu.png","../images/cyn_red.png","../images/gry_blk.png"],"mutagen_generator_assignment":[0,1],"goal":3,"start":0,"action_noise":0.15,"location_history":"[0,1,2,3]","action_history":"[1,0,1]","mutagen_history":"[1,0,1]","location_rts":"[911,500,774]","trial_type":"fractal-mutation","trial_index":87,"time_elapsed":4872285,"internal_node_id":"0.0-5.0-33.0"},{"group":"hexagon_bi","fractal_assignment":["../images/org_blu.png","../images/blu_wht.png","../images/ylw_slt.png","../images/pnk_blu.png","../images/cyn_red.png","../images/gry_blk.png"],"mutagen_generator_assignment":[0,1],"goal":1,"start":3,"action_noise":0.15,"location_history":"[3,4,3,2,1]","action_history":"[0,1,0,0]","mutagen_history":"[0,1,0,0]","location_rts":"[1414,726,424,391]","trial_type":"fractal-mutation","trial_index":88,"time_elapsed":4882879,"internal_node_id":"0.0-5.0-34.0"},{"group":"hexagon_bi","fractal_assignment":["../images/org_blu.png","../images/blu_wht.png","../images/ylw_slt.png","../images/pnk_blu.png","../images/cyn_red.png","../images/gry_blk.png"],"mutagen_generator_assignment":[0,1],"goal":2,"start":1,"action_noise":0.15,"location_history":"[1,2]","action_history":"[0]","mutagen_history":"[0]","location_rts":"[959]","trial_type":"fractal-mutation","trial_index":89,"time_elapsed":4888388,"internal_node_id":"0.0-5.0-35.0"},{"group":"hexagon_bi","fractal_assignment":["../images/org_blu.png","../images/blu_wht.png","../images/ylw_slt.png","../images/pnk_blu.png","../images/cyn_red.png","../images/gry_blk.png"],"mutagen_generator_assignment":[0,1],"goal":4,"start":2,"action_noise":0.15,"location_history":"[2,3,4]","action_history":"[1,0]","mutagen_history":"[1,0]","location_rts":"[1445,847]","trial_type":"fractal-mutation","trial_index":90,"time_elapsed":4896256,"internal_node_id":"0.0-5.0-36.0"},{"group":"hexagon_bi","fractal_assignment":["../images/org_blu.png","../images/blu_wht.png","../images/ylw_slt.png","../images/pnk_blu.png","../images/cyn_red.png","../images/gry_blk.png"],"mutagen_generator_assignment":[0,1],"goal":5,"start":4,"action_noise":0.15,"location_history":"[4,3,2,1,2,1,2,3,4,3,4,5]","action_history":"[0,1,0,0,1,0,1,0,0,1,1]","mutagen_history":"[0,1,0,0,1,0,1,0,0,1,1]","location_rts":"[2035,733,480,574,296,437,632,739,1160,566,768]","trial_type":"fractal-mutation","trial_index":91,"time_elapsed":4919612,"internal_node_id":"0.0-5.0-37.0"},{"group":"hexagon_bi","fractal_assignment":["../images/org_blu.png","../images/blu_wht.png","../images/ylw_slt.png","../images/pnk_blu.png","../images/cyn_red.png","../images/gry_blk.png"],"mutagen_generator_assignment":[0,1],"goal":1,"start":5,"action_noise":0.15,"location_history":"[5,4,3,2,3,4,5,0,1]","action_history":"[0,0,1,0,0,1,0,1]","mutagen_history":"[0,0,1,0,0,1,0,1]","location_rts":"[1658,1115,507,279,1156,586,968,900]","trial_type":"fractal-mutation","trial_index":92,"time_elapsed":4938560,"internal_node_id":"0.0-5.0-38.0"},{"group":"hexagon_bi","fractal_assignment":["../images/org_blu.png","../images/blu_wht.png","../images/ylw_slt.png","../images/pnk_blu.png","../images/cyn_red.png","../images/gry_blk.png"],"mutagen_generator_assignment":[0,1],"goal":4,"start":1,"action_noise":0.15,"location_history":"[1,2,3,2,3,4]","action_history":"[0,1,1,1,0]","mutagen_history":"[0,1,1,1,0]","location_rts":"[1880,498,539,668,431]","trial_type":"fractal-mutation","trial_index":93,"time_elapsed":4951277,"internal_node_id":"0.0-5.0-39.0"},{"group":"hexagon_bi","fractal_assignment":["../images/org_blu.png","../images/blu_wht.png","../images/ylw_slt.png","../images/pnk_blu.png","../images/cyn_red.png","../images/gry_blk.png"],"mutagen_generator_assignment":[0,1],"goal":3,"start":4,"action_noise":0.15,"location_history":"[4,3]","action_history":"[0]","mutagen_history":"[0]","location_rts":"[1053]","trial_type":"fractal-mutation","trial_index":94,"time_elapsed":4956868,"internal_node_id":"0.0-5.0-40.0"},{"group":"hexagon_bi","fractal_assignment":["../images/org_blu.png","../images/blu_wht.png","../images/ylw_slt.png","../images/pnk_blu.png","../images/cyn_red.png","../images/gry_blk.png"],"mutagen_generator_assignment":[0,1],"goal":2,"start":3,"action_noise":0.15,"location_history":"[3,2]","action_history":"[1]","mutagen_history":"[1]","location_rts":"[1302]","trial_type":"fractal-mutation","trial_index":95,"time_elapsed":4962728,"internal_node_id":"0.0-5.0-41.0"},{"group":"hexagon_bi","fractal_assignment":["../images/org_blu.png","../images/blu_wht.png","../images/ylw_slt.png","../images/pnk_blu.png","../images/cyn_red.png","../images/gry_blk.png"],"mutagen_generator_assignment":[0,1],"goal":0,"start":2,"action_noise":0.15,"location_history":"[2,1,0]","action_history":"[0,1]","mutagen_history":"[0,1]","location_rts":"[1260,591]","trial_type":"fractal-mutation","trial_index":96,"time_elapsed":4970161,"internal_node_id":"0.0-5.0-42.0"},{"group":"hexagon_bi","fractal_assignment":["../images/org_blu.png","../images/blu_wht.png","../images/ylw_slt.png","../images/pnk_blu.png","../images/cyn_red.png","../images/gry_blk.png"],"mutagen_generator_assignment":[0,1],"goal":5,"start":0,"action_noise":0.15,"location_history":"[0,5]","action_history":"[1]","mutagen_history":"[1]","location_rts":"[1472]","trial_type":"fractal-mutation","trial_index":97,"time_elapsed":4976184,"internal_node_id":"0.0-5.0-43.0"},{"group":"hexagon_bi","fractal_assignment":["../images/org_blu.png","../images/blu_wht.png","../images/ylw_slt.png","../images/pnk_blu.png","../images/cyn_red.png","../images/gry_blk.png"],"mutagen_generator_assignment":[0,1],"goal":0,"start":5,"action_noise":0.15,"location_history":"[5,0]","action_history":"[1]","mutagen_history":"[1]","location_rts":"[1254]","trial_type":"fractal-mutation","trial_index":98,"time_elapsed":4981983,"internal_node_id":"0.0-5.0-44.0"},{"group":"hexagon_bi","fractal_assignment":["../images/org_blu.png","../images/blu_wht.png","../images/ylw_slt.png","../images/pnk_blu.png","../images/cyn_red.png","../images/gry_blk.png"],"mutagen_generator_assignment":[0,1],"goal":2,"start":0,"action_noise":0.15,"location_history":"[0,1,0,5,4,3,4,3,4,3,4,3,2]","action_history":"[0,1,0,1,0,0,1,0,0,0,0,1]","mutagen_history":"[0,1,0,1,0,0,1,0,0,0,0,1]","location_rts":"[1023,366,799,1001,1495,486,259,518,339,516,431,352]","trial_type":"fractal-mutation","trial_index":99,"time_elapsed":5005524,"internal_node_id":"0.0-5.0-45.0"},{"group":"hexagon_bi","fractal_assignment":["../images/org_blu.png","../images/blu_wht.png","../images/ylw_slt.png","../images/pnk_blu.png","../images/cyn_red.png","../images/gry_blk.png"],"mutagen_generator_assignment":[0,1],"goal":4,"start":2,"action_noise":0.15,"location_history":"[2,1,0,5,4]","action_history":"[0,1,0,1]","mutagen_history":"[0,1,0,1]","location_rts":"[1802,263,683,789]","trial_type":"fractal-mutation","trial_index":100,"time_elapsed":5016709,"internal_node_id":"0.0-5.0-46.0"},{"group":"hexagon_bi","fractal_assignment":["../images/org_blu.png","../images/blu_wht.png","../images/ylw_slt.png","../images/pnk_blu.png","../images/cyn_red.png","../images/gry_blk.png"],"mutagen_generator_assignment":[0,1],"goal":1,"start":4,"action_noise":0.15,"location_history":"[4,3,4,3,2,1]","action_history":"[0,0,0,1,0]","mutagen_history":"[0,0,0,1,0]","location_rts":"[1209,1078,408,321,232]","trial_type":"fractal-mutation","trial_index":101,"time_elapsed":5028629,"internal_node_id":"0.0-5.0-47.0"},{"group":"hexagon_bi","fractal_assignment":["../images/org_blu.png","../images/blu_wht.png","../images/ylw_slt.png","../images/pnk_blu.png","../images/cyn_red.png","../images/gry_blk.png"],"mutagen_generator_assignment":[0,1],"goal":5,"start":1,"action_noise":0.15,"location_history":"[1,2,3,4,5]","action_history":"[0,1,0,0]","mutagen_history":"[0,1,0,0]","location_rts":"[447,396,801,416]","trial_type":"fractal-mutation","trial_index":102,"time_elapsed":5038339,"internal_node_id":"0.0-5.0-48.0"},{"group":"hexagon_bi","fractal_assignment":["../images/org_blu.png","../images/blu_wht.png","../images/ylw_slt.png","../images/pnk_blu.png","../images/cyn_red.png","../images/gry_blk.png"],"mutagen_generator_assignment":[0,1],"goal":3,"start":5,"action_noise":0.15,"location_history":"[5,0,1,0,5,4,5,4,3]","action_history":"[0,1,1,0,1,1,1,0]","mutagen_history":"[0,1,1,0,1,1,1,0]","location_rts":"[2044,330,589,162,369,510,1152,341]","trial_type":"fractal-mutation","trial_index":103,"time_elapsed":5055652,"internal_node_id":"0.0-5.0-49.0"},{"view_history":"[{\"page_index\":0,\"viewing_time\":4519}]","rt":4520,"trial_type":"instructions","trial_index":104,"time_elapsed":5061172,"internal_node_id":"0.0-6.0"},{"rt":7008,"responses":"{\"Q0\":\"\"}","trial_type":"survey-text","trial_index":105,"time_elapsed":5069185,"internal_node_id":"0.0-7.0"}]