[{"view_history":"[{\"page_index\":0,\"viewing_time\":566851},{\"page_index\":1,\"viewing_time\":6390}]","rt":573241,"trial_type":"instructions","trial_index":0,"time_elapsed":573241,"internal_node_id":"0.0-0.0"},{"view_history":"[{\"page_index\":0,\"viewing_time\":10606},{\"page_index\":1,\"viewing_time\":11553}]","rt":22159,"trial_type":"instructions","trial_index":1,"time_elapsed":596403,"internal_node_id":"0.0-1.0"},{"group":"hexagon_tri","room_assignment":["blue","yellow","green","purple","red","grey"],"door_color_assignment":["black","white"],"door_generator_assignment":[1,0],"goal":3,"start":5,"action_noise":0.15,"location_history":"[5,4,0,5,4,0,1,5,0,1,5,0,1,5,0,5,0,1,5,4,2,1,5,4,2,1,5,4,2,1,5,4,2,1,5,4,0,1,3]","action_history":"[0,0,0,0,0,0,1,1,1,1,1,1,1,1,0,1,0,1,0,1,0,1,0,1,0,1,0,1,0,1,0,1,0,1,0,1,1,1]","door_history":"[1,1,1,1,1,1,0,0,0,0,0,0,0,0,1,0,1,0,1,0,1,0,1,0,1,0,1,0,1,0,1,0,1,0,1,0,0,0]","location_rts":"[4612,621,339,432,365,476,1062,392,506,379,457,394,403,424,642,260,310,340,209,303,362,305,249,333,304,309,256,284,322,366,343,334,384,369,3320,290,786,332]","trial_type":"two-door-navigation","trial_index":2,"time_elapsed":660966,"internal_node_id":"0.0-2.0-0.0"},{"group":"hexagon_tri","room_assignment":["blue","yellow","green","purple","red","grey"],"door_color_assignment":["black","white"],"door_generator_assignment":[1,0],"goal":1,"start":3,"action_noise":0.15,"location_history":"[3,4,2,3,4,2,3,4,2,3,2,1]","action_history":"[1,1,1,1,1,1,1,1,1,0,0]","door_history":"[0,0,0,0,0,0,0,0,0,1,1]","location_rts":"[1131,411,426,371,335,366,300,364,362,890,275]","trial_type":"two-door-navigation","trial_index":3,"time_elapsed":680961,"internal_node_id":"0.0-2.0-1.0"},{"group":"hexagon_tri","room_assignment":["blue","yellow","green","purple","red","grey"],"door_color_assignment":["black","white"],"door_generator_assignment":[1,0],"goal":0,"start":1,"action_noise":0.15,"location_history":"[1,3,4,0]","action_history":"[0,0,0]","door_history":"[1,1,1]","location_rts":"[989,365,337]","trial_type":"two-door-navigation","trial_index":4,"time_elapsed":689236,"internal_node_id":"0.0-2.0-2.0"},{"group":"hexagon_tri","room_assignment":["blue","yellow","green","purple","red","grey"],"door_color_assignment":["black","white"],"door_generator_assignment":[1,0],"goal":3,"start":0,"action_noise":0.15,"location_history":"[0,1,3]","action_history":"[0,0]","door_history":"[1,1]","location_rts":"[908,320]","trial_type":"two-door-navigation","trial_index":5,"time_elapsed":696026,"internal_node_id":"0.0-2.0-3.0"},{"group":"hexagon_tri","room_assignment":["blue","yellow","green","purple","red","grey"],"door_color_assignment":["black","white"],"door_generator_assignment":[1,0],"goal":4,"start":3,"action_noise":0.15,"location_history":"[3,2,1,3,2,1,3,2,1,3,2,1,3,2,1,3,2,3,4]","action_history":"[0,0,0,0,0,0,0,0,0,0,0,0,0,0,0,1,1,1]","door_history":"[1,1,1,1,1,1,1,1,1,1,1,1,1,1,1,0,0,0]","location_rts":"[718,292,328,394,356,376,383,321,420,321,427,325,292,430,411,521,325,365]","trial_type":"two-door-navigation","trial_index":6,"time_elapsed":724962,"internal_node_id":"0.0-2.0-4.0"},{"group":"hexagon_tri","room_assignment":["blue","yellow","green","purple","red","grey"],"door_color_assignment":["black","white"],"door_generator_assignment":[1,0],"goal":2,"start":4,"action_noise":0.15,"location_history":"[4,2]","action_history":"[1]","door_history":"[0]","location_rts":"[583]","trial_type":"two-door-navigation","trial_index":7,"time_elapsed":730072,"internal_node_id":"0.0-2.0-5.0"},{"group":"hexagon_tri","room_assignment":["blue","yellow","green","purple","red","grey"],"door_color_assignment":["black","white"],"door_generator_assignment":[1,0],"goal":1,"start":2,"action_noise":0.15,"location_history":"[2,3,4,2,3,4,0,1]","action_history":"[1,1,1,1,1,0,0]","door_history":"[0,0,0,0,0,1,1]","location_rts":"[468,342,1445,416,335,394,564]","trial_type":"two-door-navigation","trial_index":8,"time_elapsed":744712,"internal_node_id":"0.0-2.0-6.0"},{"group":"hexagon_tri","room_assignment":["blue","yellow","green","purple","red","grey"],"door_color_assignment":["black","white"],"door_generator_assignment":[1,0],"goal":5,"start":1,"action_noise":0.15,"location_history":"[1,5]","action_history":"[1]","door_history":"[0]","location_rts":"[14078]","trial_type":"two-door-navigation","trial_index":9,"time_elapsed":763324,"internal_node_id":"0.0-2.0-7.0"},{"group":"hexagon_tri","room_assignment":["blue","yellow","green","purple","red","grey"],"door_color_assignment":["black","white"],"door_generator_assignment":[1,0],"goal":4,"start":5,"action_noise":0.15,"location_history":"[5,0,1,5,4]","action_history":"[1,1,1,1]","door_history":"[0,0,0,0]","location_rts":"[879,312,353,388]","trial_type":"two-door-navigation","trial_index":10,"time_elapsed":772852,"internal_node_id":"0.0-2.0-8.0"},{"group":"hexagon_tri","room_assignment":["blue","yellow","green","purple","red","grey"],"door_color_assignment":["black","white"],"door_generator_assignment":[1,0],"goal":2,"start":4,"action_noise":0.15,"location_history":"[4,0,5,0,1,3,2]","action_history":"[1,1,1,1,1,1]","door_history":"[0,0,0,0,0,0]","location_rts":"[2500,363,344,476,539,393]","trial_type":"two-door-navigation","trial_index":11,"time_elapsed":787124,"internal_node_id":"0.0-2.0-9.0"},{"group":"hexagon_tri","room_assignment":["blue","yellow","green","purple","red","grey"],"door_color_assignment":["black","white"],"door_generator_assignment":[1,0],"goal":0,"start":2,"action_noise":0.15,"location_history":"[2,3,4,0]","action_history":"[1,1,1]","door_history":"[0,0,0]","location_rts":"[1095,379,377]","trial_type":"two-door-navigation","trial_index":12,"time_elapsed":795555,"internal_node_id":"0.0-2.0-10.0"},{"group":"hexagon_tri","room_assignment":["blue","yellow","green","purple","red","grey"],"door_color_assignment":["black","white"],"door_generator_assignment":[1,0],"goal":1,"start":0,"action_noise":0.15,"location_history":"[0,1]","action_history":"[1]","door_history":"[0]","location_rts":"[652]","trial_type":"two-door-navigation","trial_index":13,"time_elapsed":800735,"internal_node_id":"0.0-2.0-11.0"},{"group":"hexagon_tri","room_assignment":["blue","yellow","green","purple","red","grey"],"door_color_assignment":["black","white"],"door_generator_assignment":[1,0],"goal":3,"start":1,"action_noise":0.15,"location_history":"[1,5,0,1,5,4,2,3]","action_history":"[1,1,1,1,1,1,1]","door_history":"[0,0,0,0,0,0,0]","location_rts":"[447,345,397,401,362,330,412]","trial_type":"two-door-navigation","trial_index":14,"time_elapsed":814109,"internal_node_id":"0.0-2.0-12.0"},{"group":"hexagon_tri","room_assignment":["blue","yellow","green","purple","red","grey"],"door_color_assignment":["black","white"],"door_generator_assignment":[1,0],"goal":5,"start":3,"action_noise":0.15,"location_history":"[3,4,2,3,4,2,3,4,0,5]","action_history":"[1,1,1,1,1,1,1,0,0]","door_history":"[0,0,0,0,0,0,0,1,1]","location_rts":"[606,907,911,433,329,351,444,338,295]","trial_type":"two-door-navigation","trial_index":15,"time_elapsed":831440,"internal_node_id":"0.0-2.0-13.0"},{"group":"hexagon_tri","room_assignment":["blue","yellow","green","purple","red","grey"],"door_color_assignment":["black","white"],"door_generator_assignment":[1,0],"goal":4,"start":5,"action_noise":0.15,"location_history":"[5,4]","action_history":"[0]","door_history":"[1]","location_rts":"[729]","trial_type":"two-door-navigation","trial_index":16,"time_elapsed":836702,"internal_node_id":"0.0-2.0-14.0"},{"group":"hexagon_tri","room_assignment":["blue","yellow","green","purple","red","grey"],"door_color_assignment":["black","white"],"door_generator_assignment":[1,0],"goal":0,"start":4,"action_noise":0.15,"location_history":"[4,0]","action_history":"[0]","door_history":"[1]","location_rts":"[1635]","trial_type":"two-door-navigation","trial_index":17,"time_elapsed":842865,"internal_node_id":"0.0-2.0-15.0"},{"group":"hexagon_tri","room_assignment":["blue","yellow","green","purple","red","grey"],"door_color_assignment":["black","white"],"door_generator_assignment":[1,0],"goal":3,"start":0,"action_noise":0.15,"location_history":"[0,5,4,0,5,0,1,5,0,5,4,2,3]","action_history":"[0,0,0,0,1,1,1,1,1,1,1,1]","door_history":"[1,1,1,1,0,0,0,0,0,0,0,0]","location_rts":"[1418,965,2529,403,968,1059,985,966,1405,705,450,908]","trial_type":"two-door-navigation","trial_index":18,"time_elapsed":871418,"internal_node_id":"0.0-2.0-16.0"},{"group":"hexagon_tri","room_assignment":["blue","yellow","green","purple","red","grey"],"door_color_assignment":["black","white"],"door_generator_assignment":[1,0],"goal":1,"start":3,"action_noise":0.15,"location_history":"[3,2,1]","action_history":"[0,0]","door_history":"[1,1]","location_rts":"[1554,358]","trial_type":"two-door-navigation","trial_index":19,"time_elapsed":878881,"internal_node_id":"0.0-2.0-17.0"},{"group":"hexagon_tri","room_assignment":["blue","yellow","green","purple","red","grey"],"door_color_assignment":["black","white"],"door_generator_assignment":[1,0],"goal":5,"start":1,"action_noise":0.15,"location_history":"[1,3,2,1,3,2,1,5]","action_history":"[0,0,0,0,0,1,1]","door_history":"[1,1,1,1,1,0,0]","location_rts":"[1041,303,375,434,448,552,367]","trial_type":"two-door-navigation","trial_index":20,"time_elapsed":893077,"internal_node_id":"0.0-2.0-18.0"},{"group":"hexagon_tri","room_assignment":["blue","yellow","green","purple","red","grey"],"door_color_assignment":["black","white"],"door_generator_assignment":[1,0],"goal":2,"start":5,"action_noise":0.15,"location_history":"[5,0,1,5,0,5,0,5,4,2]","action_history":"[1,1,1,1,1,1,0,0,0]","door_history":"[0,0,0,0,0,0,1,1,1]","location_rts":"[1024,447,291,385,396,443,302,315,460]","trial_type":"two-door-navigation","trial_index":21,"time_elapsed":909846,"internal_node_id":"0.0-2.0-19.0"},{"group":"hexagon_tri","room_assignment":["blue","yellow","green","purple","red","grey"],"door_color_assignment":["black","white"],"door_generator_assignment":[1,0],"goal":4,"start":2,"action_noise":0.15,"location_history":"[2,3,4]","action_history":"[1,1]","door_history":"[0,0]","location_rts":"[1334,372]","trial_type":"two-door-navigation","trial_index":22,"time_elapsed":917102,"internal_node_id":"0.0-2.0-20.0"},{"group":"hexagon_tri","room_assignment":["blue","yellow","green","purple","red","grey"],"door_color_assignment":["black","white"],"door_generator_assignment":[1,0],"goal":1,"start":4,"action_noise":0.15,"location_history":"[4,0,1]","action_history":"[1,1]","door_history":"[0,0]","location_rts":"[963,345]","trial_type":"two-door-navigation","trial_index":23,"time_elapsed":923967,"internal_node_id":"0.0-2.0-21.0"},{"group":"hexagon_tri","room_assignment":["blue","yellow","green","purple","red","grey"],"door_color_assignment":["black","white"],"door_generator_assignment":[1,0],"goal":3,"start":1,"action_noise":0.15,"location_history":"[1,5,0,5,0,1,5,0,5,4,0,5,0,5,4,0,5,4,2,3]","action_history":"[1,1,1,1,1,1,1,0,0,0,0,0,0,0,0,0,0,1,1]","door_history":"[0,0,0,0,0,0,0,1,1,1,1,1,1,1,1,1,1,0,0]","location_rts":"[995,358,426,429,412,405,445,423,329,358,306,382,417,429,565,389,628,339,486]","trial_type":"two-door-navigation","trial_index":24,"time_elapsed":955419,"internal_node_id":"0.0-2.0-22.0"},{"group":"hexagon_tri","room_assignment":["blue","yellow","green","purple","red","grey"],"door_color_assignment":["black","white"],"door_generator_assignment":[1,0],"goal":2,"start":3,"action_noise":0.15,"location_history":"[3,2]","action_history":"[1]","door_history":"[0]","location_rts":"[608]","trial_type":"two-door-navigation","trial_index":25,"time_elapsed":960561,"internal_node_id":"0.0-2.0-23.0"},{"group":"hexagon_tri","room_assignment":["blue","yellow","green","purple","red","grey"],"door_color_assignment":["black","white"],"door_generator_assignment":[1,0],"goal":0,"start":2,"action_noise":0.15,"location_history":"[2,3,4,2,3,4,2,3,4,0]","action_history":"[1,1,1,1,1,1,1,0,0]","door_history":"[0,0,0,0,0,0,0,1,1]","location_rts":"[663,443,401,422,394,439,395,298,325]","trial_type":"two-door-navigation","trial_index":26,"time_elapsed":977067,"internal_node_id":"0.0-2.0-24.0"},{"group":"hexagon_tri","room_assignment":["blue","yellow","green","purple","red","grey"],"door_color_assignment":["black","white"],"door_generator_assignment":[1,0],"goal":5,"start":0,"action_noise":0.15,"location_history":"[0,5]","action_history":"[0]","door_history":"[1]","location_rts":"[1031]","trial_type":"two-door-navigation","trial_index":27,"time_elapsed":982628,"internal_node_id":"0.0-2.0-25.0"},{"group":"hexagon_tri","room_assignment":["blue","yellow","green","purple","red","grey"],"door_color_assignment":["black","white"],"door_generator_assignment":[1,0],"goal":2,"start":5,"action_noise":0.15,"location_history":"[5,4,0,5,4,0,5,4,0,5,4,2]","action_history":"[0,0,0,0,0,0,0,0,0,1,1]","door_history":"[1,1,1,1,1,1,1,1,1,0,0]","location_rts":"[1002,370,541,1437,427,520,1156,448,554,111,269]","trial_type":"two-door-navigation","trial_index":28,"time_elapsed":1004232,"internal_node_id":"0.0-2.0-26.0"},{"group":"hexagon_tri","room_assignment":["blue","yellow","green","purple","red","grey"],"door_color_assignment":["black","white"],"door_generator_assignment":[1,0],"goal":3,"start":2,"action_noise":0.15,"location_history":"[2,3]","action_history":"[1]","door_history":"[0]","location_rts":"[605]","trial_type":"two-door-navigation","trial_index":29,"time_elapsed":1009369,"internal_node_id":"0.0-2.0-27.0"},{"group":"hexagon_tri","room_assignment":["blue","yellow","green","purple","red","grey"],"door_color_assignment":["black","white"],"door_generator_assignment":[1,0],"goal":0,"start":3,"action_noise":0.15,"location_history":"[3,4,2,3,4,2,3,4,0]","action_history":"[1,1,1,1,1,1,0,0]","door_history":"[0,0,0,0,0,0,1,1]","location_rts":"[423,337,565,778,396,445,383,324]","trial_type":"two-door-navigation","trial_index":30,"time_elapsed":1024727,"internal_node_id":"0.0-2.0-28.0"},{"group":"hexagon_tri","room_assignment":["blue","yellow","green","purple","red","grey"],"door_color_assignment":["black","white"],"door_generator_assignment":[1,0],"goal":1,"start":0,"action_noise":0.15,"location_history":"[0,5,4,0,5,4,0,5,0,1]","action_history":"[0,0,0,0,0,0,1,1,1]","door_history":"[1,1,1,1,1,1,0,0,0]","location_rts":"[890,377,1089,450,501,704,389,408,398]","trial_type":"two-door-navigation","trial_index":31,"time_elapsed":1042649,"internal_node_id":"0.0-2.0-29.0"},{"group":"hexagon_tri","room_assignment":["blue","yellow","green","purple","red","grey"],"door_color_assignment":["black","white"],"door_generator_assignment":[1,0],"goal":4,"start":1,"action_noise":0.15,"location_history":"[1,5,4]","action_history":"[1,0]","door_history":"[0,1]","location_rts":"[1550,339]","trial_type":"two-door-navigation","trial_index":32,"time_elapsed":1050081,"internal_node_id":"0.0-2.0-30.0"},{"group":"hexagon_tri","room_assignment":["blue","yellow","green","purple","red","grey"],"door_color_assignment":["black","white"],"door_generator_assignment":[1,0],"goal":5,"start":4,"action_noise":0.15,"location_history":"[4,2,1,5]","action_history":"[1,0,1]","door_history":"[0,1,0]","location_rts":"[610,398,371]","trial_type":"two-door-navigation","trial_index":33,"time_elapsed":1058034,"internal_node_id":"0.0-2.0-31.0"},{"group":"hexagon_tri","room_assignment":["blue","yellow","green","purple","red","grey"],"door_color_assignment":["black","white"],"door_generator_assignment":[1,0],"goal":0,"start":5,"action_noise":0.15,"location_history":"[5,4,2,1,5,4,2,1,5,4,0]","action_history":"[0,1,0,1,0,1,0,1,0,0]","door_history":"[1,0,1,0,1,0,1,0,1,1]","location_rts":"[533,360,337,346,440,400,448,444,466,299]","trial_type":"two-door-navigation","trial_index":34,"time_elapsed":1075851,"internal_node_id":"0.0-2.0-32.0"},{"group":"hexagon_tri","room_assignment":["blue","yellow","green","purple","red","grey"],"door_color_assignment":["black","white"],"door_generator_assignment":[1,0],"goal":3,"start":0,"action_noise":0.15,"location_history":"[0,5,4,0,5,4,0,1,5,0,1,5,0,1,3]","action_history":"[0,0,0,0,0,0,1,1,1,1,1,1,1,0]","door_history":"[1,1,1,1,1,1,0,0,0,0,0,0,0,1]","location_rts":"[1190,601,401,453,483,394,397,326,361,397,355,421,386,297]","trial_type":"two-door-navigation","trial_index":35,"time_elapsed":1100143,"internal_node_id":"0.0-2.0-33.0"},{"group":"hexagon_tri","room_assignment":["blue","yellow","green","purple","red","grey"],"door_color_assignment":["black","white"],"door_generator_assignment":[1,0],"goal":1,"start":3,"action_noise":0.15,"location_history":"[3,2,1]","action_history":"[0,0]","door_history":"[1,1]","location_rts":"[676,389]","trial_type":"two-door-navigation","trial_index":36,"time_elapsed":1106761,"internal_node_id":"0.0-2.0-34.0"},{"group":"hexagon_tri","room_assignment":["blue","yellow","green","purple","red","grey"],"door_color_assignment":["black","white"],"door_generator_assignment":[1,0],"goal":2,"start":1,"action_noise":0.15,"location_history":"[1,5,4,0,5,4,0,5,4,2]","action_history":"[0,0,0,0,0,0,1,1,1]","door_history":"[1,1,1,1,1,1,0,0,0]","location_rts":"[890,774,319,419,400,437,448,395,397]","trial_type":"two-door-navigation","trial_index":37,"time_elapsed":1123952,"internal_node_id":"0.0-2.0-35.0"},{"group":"hexagon_tri","room_assignment":["blue","yellow","green","purple","red","grey"],"door_color_assignment":["black","white"],"door_generator_assignment":[1,0],"goal":4,"start":2,"action_noise":0.15,"location_history":"[2,3,4]","action_history":"[1,1]","door_history":"[0,0]","location_rts":"[773,385]","trial_type":"two-door-navigation","trial_index":38,"time_elapsed":1130661,"internal_node_id":"0.0-2.0-36.0"},{"group":"hexagon_tri","room_assignment":["blue","yellow","green","purple","red","grey"],"door_color_assignment":["black","white"],"door_generator_assignment":[1,0],"goal":5,"start":4,"action_noise":0.15,"location_history":"[4,2,3,4,2,1,3,2,3,2,1,3,2,1,5]","action_history":"[1,1,1,1,0,0,0,0,0,0,0,0,1,1]","door_history":"[0,0,0,0,1,1,1,1,1,1,1,1,0,0]","location_rts":"[1346,359,449,402,789,359,387,381,391,346,426,421,338,424]","trial_type":"two-door-navigation","trial_index":39,"time_elapsed":1155318,"internal_node_id":"0.0-2.0-37.0"},{"group":"hexagon_tri","room_assignment":["blue","yellow","green","purple","red","grey"],"door_color_assignment":["black","white"],"door_generator_assignment":[1,0],"goal":1,"start":5,"action_noise":0.15,"location_history":"[5,0,1]","action_history":"[1,1]","door_history":"[0,0]","location_rts":"[1029,372]","trial_type":"two-door-navigation","trial_index":40,"time_elapsed":1162269,"internal_node_id":"0.0-2.0-38.0"},{"group":"hexagon_tri","room_assignment":["blue","yellow","green","purple","red","grey"],"door_color_assignment":["black","white"],"door_generator_assignment":[1,0],"goal":4,"start":1,"action_noise":0.15,"location_history":"[1,5,4]","action_history":"[1,1]","door_history":"[0,0]","location_rts":"[622,348]","trial_type":"two-door-navigation","trial_index":41,"time_elapsed":1168787,"internal_node_id":"0.0-2.0-39.0"},{"group":"hexagon_tri","room_assignment":["blue","yellow","green","purple","red","grey"],"door_color_assignment":["black","white"],"door_generator_assignment":[1,0],"goal":3,"start":4,"action_noise":0.15,"location_history":"[4,2,3]","action_history":"[1,1]","door_history":"[0,0]","location_rts":"[1558,430]","trial_type":"two-door-navigation","trial_index":42,"time_elapsed":1176326,"internal_node_id":"0.0-2.0-40.0"},{"group":"hexagon_tri","room_assignment":["blue","yellow","green","purple","red","grey"],"door_color_assignment":["black","white"],"door_generator_assignment":[1,0],"goal":2,"start":3,"action_noise":0.15,"location_history":"[3,4,0,5,4,0,5,4,0,1,3,4,0,5,0,1,5,0,1,5,0,1,5,0,5,4,0,5,4,2]","action_history":"[1,1,0,0,0,0,1,0,1,0,1,0,1,1,1,1,1,1,1,1,1,1,1,0,0,0,0,0,0]","door_history":"[0,0,1,1,1,1,0,1,0,1,0,1,0,0,0,0,0,0,0,0,0,0,0,1,1,1,1,1,1]","location_rts":"[835,344,422,324,337,403,389,330,349,362,351,306,406,330,357,377,319,373,1147,381,396,352,411,402,325,324,278,289,333]","trial_type":"two-door-navigation","trial_index":43,"time_elapsed":1221053,"internal_node_id":"0.0-2.0-41.0"},{"group":"hexagon_tri","room_assignment":["blue","yellow","green","purple","red","grey"],"door_color_assignment":["black","white"],"door_generator_assignment":[1,0],"goal":0,"start":2,"action_noise":0.15,"location_history":"[2,1,3,4,0]","action_history":"[0,0,0,0]","door_history":"[1,1,1,1]","location_rts":"[780,365,377,402]","trial_type":"two-door-navigation","trial_index":44,"time_elapsed":1230580,"internal_node_id":"0.0-2.0-42.0"},{"group":"hexagon_tri","room_assignment":["blue","yellow","green","purple","red","grey"],"door_color_assignment":["black","white"],"door_generator_assignment":[1,0],"goal":5,"start":0,"action_noise":0.15,"location_history":"[0,5]","action_history":"[0]","door_history":"[1]","location_rts":"[890]","trial_type":"two-door-navigation","trial_index":45,"time_elapsed":1235999,"internal_node_id":"0.0-2.0-43.0"},{"group":"hexagon_tri","room_assignment":["blue","yellow","green","purple","red","grey"],"door_color_assignment":["black","white"],"door_generator_assignment":[1,0],"goal":0,"start":5,"action_noise":0.15,"location_history":"[5,0]","action_history":"[0]","door_history":"[1]","location_rts":"[560]","trial_type":"two-door-navigation","trial_index":46,"time_elapsed":1241083,"internal_node_id":"0.0-2.0-44.0"},{"group":"hexagon_tri","room_assignment":["blue","yellow","green","purple","red","grey"],"door_color_assignment":["black","white"],"door_generator_assignment":[1,0],"goal":2,"start":0,"action_noise":0.15,"location_history":"[0,1,3,4,0,5,4,2]","action_history":"[0,0,0,0,0,0,0]","door_history":"[1,1,1,1,1,1,1]","location_rts":"[687,344,413,316,375,354,384]","trial_type":"two-door-navigation","trial_index":47,"time_elapsed":1254623,"internal_node_id":"0.0-2.0-45.0"},{"group":"hexagon_tri","room_assignment":["blue","yellow","green","purple","red","grey"],"door_color_assignment":["black","white"],"door_generator_assignment":[1,0],"goal":4,"start":2,"action_noise":0.15,"location_history":"[2,1,3,2,3,2,1,5,0,1,5,0,1,3,4]","action_history":"[0,0,0,0,0,0,0,1,1,1,1,1,1,1]","door_history":"[1,1,1,1,1,1,1,0,0,0,0,0,0,0]","location_rts":"[1052,330,414,439,379,339,1063,340,602,437,491,453,492,477]","trial_type":"two-door-navigation","trial_index":48,"time_elapsed":1279769,"internal_node_id":"0.0-2.0-46.0"},{"group":"hexagon_tri","room_assignment":["blue","yellow","green","purple","red","grey"],"door_color_assignment":["black","white"],"door_generator_assignment":[1,0],"goal":1,"start":4,"action_noise":0.15,"location_history":"[4,0,1]","action_history":"[1,1]","door_history":"[0,0]","location_rts":"[523,464]","trial_type":"two-door-navigation","trial_index":49,"time_elapsed":1286307,"internal_node_id":"0.0-2.0-47.0"},{"group":"hexagon_tri","room_assignment":["blue","yellow","green","purple","red","grey"],"door_color_assignment":["black","white"],"door_generator_assignment":[1,0],"goal":5,"start":1,"action_noise":0.15,"location_history":"[1,3,4,2,3,2,3,2,1,3,2,3,2,1,5]","action_history":"[1,1,1,1,0,0,0,0,0,0,0,0,0,0]","door_history":"[0,0,0,0,1,1,1,1,1,1,1,1,1,1]","location_rts":"[580,376,382,375,415,339,372,328,421,344,359,297,433,320]","trial_type":"two-door-navigation","trial_index":50,"time_elapsed":1309487,"internal_node_id":"0.0-2.0-48.0"},{"group":"hexagon_tri","room_assignment":["blue","yellow","green","purple","red","grey"],"door_color_assignment":["black","white"],"door_generator_assignment":[1,0],"goal":3,"start":5,"action_noise":0.15,"location_history":"[5,4,0,5,4,0,1,5,0,1,5,0,5,0,1,5,4,0,1,3]","action_history":"[0,0,0,0,1,1,1,1,1,1,1,1,1,1,1,0,0,0,0]","door_history":"[1,1,1,1,0,0,0,0,0,0,0,0,0,0,0,1,1,1,1]","location_rts":"[564,411,455,360,373,391,409,649,515,453,518,483,468,706,429,368,481,390,427]","trial_type":"two-door-navigation","trial_index":51,"time_elapsed":1341282,"internal_node_id":"0.0-2.0-49.0"},{"view_history":"[{\"page_index\":0,\"viewing_time\":102275}]","rt":102275,"trial_type":"instructions","trial_index":52,"time_elapsed":1444558,"internal_node_id":"0.0-3.0"},{"view_history":"[{\"page_index\":0,\"viewing_time\":3834},{\"page_index\":1,\"viewing_time\":27477}]","rt":31311,"trial_type":"instructions","trial_index":53,"time_elapsed":1476870,"internal_node_id":"0.0-4.0"},{"group":"hexagon_bi","fractal_assignment":["../images/gry_blk.png","../images/org_blu.png","../images/blu_wht.png","../images/cyn_red.png","../images/ylw_slt.png","../images/pnk_blu.png"],"mutagen_generator_assignment":[0,1],"goal":3,"start":5,"action_noise":0.15,"location_history":"[5,4,3]","action_history":"[1,1]","mutagen_history":"[1,1]","location_rts":"[4533,682]","trial_type":"fractal-mutation","trial_index":54,"time_elapsed":1487986,"internal_node_id":"0.0-5.0-0.0"},{"group":"hexagon_bi","fractal_assignment":["../images/gry_blk.png","../images/org_blu.png","../images/blu_wht.png","../images/cyn_red.png","../images/ylw_slt.png","../images/pnk_blu.png"],"mutagen_generator_assignment":[0,1],"goal":1,"start":3,"action_noise":0.15,"location_history":"[3,2,1]","action_history":"[1,1]","mutagen_history":"[1,1]","location_rts":"[842,405]","trial_type":"fractal-mutation","trial_index":55,"time_elapsed":1495085,"internal_node_id":"0.0-5.0-1.0"},{"group":"hexagon_bi","fractal_assignment":["../images/gry_blk.png","../images/org_blu.png","../images/blu_wht.png","../images/cyn_red.png","../images/ylw_slt.png","../images/pnk_blu.png"],"mutagen_generator_assignment":[0,1],"goal":0,"start":1,"action_noise":0.15,"location_history":"[1,0]","action_history":"[1]","mutagen_history":"[1]","location_rts":"[758]","trial_type":"fractal-mutation","trial_index":56,"time_elapsed":1500576,"internal_node_id":"0.0-5.0-2.0"},{"group":"hexagon_bi","fractal_assignment":["../images/gry_blk.png","../images/org_blu.png","../images/blu_wht.png","../images/cyn_red.png","../images/ylw_slt.png","../images/pnk_blu.png"],"mutagen_generator_assignment":[0,1],"goal":3,"start":0,"action_noise":0.15,"location_history":"[0,1,0,1,0,5,4,3]","action_history":"[1,1,1,1,0,0,0]","mutagen_history":"[1,1,1,1,0,0,0]","location_rts":"[550,737,717,1000,419,487,560]","trial_type":"fractal-mutation","trial_index":57,"time_elapsed":1516705,"internal_node_id":"0.0-5.0-3.0"},{"group":"hexagon_bi","fractal_assignment":["../images/gry_blk.png","../images/org_blu.png","../images/blu_wht.png","../images/cyn_red.png","../images/ylw_slt.png","../images/pnk_blu.png"],"mutagen_generator_assignment":[0,1],"goal":4,"start":3,"action_noise":0.15,"location_history":"[3,4]","action_history":"[0]","mutagen_history":"[0]","location_rts":"[889]","trial_type":"fractal-mutation","trial_index":58,"time_elapsed":1522192,"internal_node_id":"0.0-5.0-4.0"},{"group":"hexagon_bi","fractal_assignment":["../images/gry_blk.png","../images/org_blu.png","../images/blu_wht.png","../images/cyn_red.png","../images/ylw_slt.png","../images/pnk_blu.png"],"mutagen_generator_assignment":[0,1],"goal":2,"start":4,"action_noise":0.15,"location_history":"[4,3,4,5,4,5,4,5,0,5,0,5,0,5,4,3,4,3,2]","action_history":"[0,0,1,1,1,1,1,0,0,0,0,0,0,1,0,0,0,1]","mutagen_history":"[0,0,1,1,1,1,1,0,0,0,0,0,0,1,0,0,0,1]","location_rts":"[856,1389,1265,434,487,475,544,479,634,455,680,465,588,801,708,739,481,498]","trial_type":"fractal-mutation","trial_index":59,"time_elapsed":1558282,"internal_node_id":"0.0-5.0-5.0"},{"group":"hexagon_bi","fractal_assignment":["../images/gry_blk.png","../images/org_blu.png","../images/blu_wht.png","../images/cyn_red.png","../images/ylw_slt.png","../images/pnk_blu.png"],"mutagen_generator_assignment":[0,1],"goal":1,"start":2,"action_noise":0.15,"location_history":"[2,3,2,3,4,3,4,3,4,5,0,1]","action_history":"[1,1,1,0,0,0,0,0,1,0,1]","mutagen_history":"[1,1,1,0,0,0,0,0,1,0,1]","location_rts":"[1105,721,609,450,591,471,725,502,949,447,663]","trial_type":"fractal-mutation","trial_index":60,"time_elapsed":1581597,"internal_node_id":"0.0-5.0-6.0"},{"group":"hexagon_bi","fractal_assignment":["../images/gry_blk.png","../images/org_blu.png","../images/blu_wht.png","../images/cyn_red.png","../images/ylw_slt.png","../images/pnk_blu.png"],"mutagen_generator_assignment":[0,1],"goal":5,"start":1,"action_noise":0.15,"location_history":"[1,2,3,4,5]","action_history":"[0,1,0,1]","mutagen_history":"[0,1,0,1]","location_rts":"[689,392,1001,346]","trial_type":"fractal-mutation","trial_index":61,"time_elapsed":1592206,"internal_node_id":"0.0-5.0-7.0"},{"group":"hexagon_bi","fractal_assignment":["../images/gry_blk.png","../images/org_blu.png","../images/blu_wht.png","../images/cyn_red.png","../images/ylw_slt.png","../images/pnk_blu.png"],"mutagen_generator_assignment":[0,1],"goal":4,"start":5,"action_noise":0.15,"location_history":"[5,0,1,2,3,4]","action_history":"[0,1,0,1,0]","mutagen_history":"[0,1,0,1,0]","location_rts":"[560,437,736,505,565]","trial_type":"fractal-mutation","trial_index":62,"time_elapsed":1604236,"internal_node_id":"0.0-5.0-8.0"},{"group":"hexagon_bi","fractal_assignment":["../images/gry_blk.png","../images/org_blu.png","../images/blu_wht.png","../images/cyn_red.png","../images/ylw_slt.png","../images/pnk_blu.png"],"mutagen_generator_assignment":[0,1],"goal":2,"start":4,"action_noise":0.15,"location_history":"[4,5,0,5,0,1,0,1,0,1,2]","action_history":"[1,0,1,0,1,0,1,0,1,1]","mutagen_history":"[1,0,1,0,1,0,1,0,1,1]","location_rts":"[727,723,546,374,463,517,690,681,499,453]","trial_type":"fractal-mutation","trial_index":63,"time_elapsed":1624997,"internal_node_id":"0.0-5.0-9.0"},{"group":"hexagon_bi","fractal_assignment":["../images/gry_blk.png","../images/org_blu.png","../images/blu_wht.png","../images/cyn_red.png","../images/ylw_slt.png","../images/pnk_blu.png"],"mutagen_generator_assignment":[0,1],"goal":0,"start":2,"action_noise":0.15,"location_history":"[2,3,2,1,2,1,2,1,0]","action_history":"[1,1,1,0,0,0,0,1]","mutagen_history":"[1,1,1,0,0,0,0,1]","location_rts":"[1247,915,552,459,444,416,566,397]","trial_type":"fractal-mutation","trial_index":64,"time_elapsed":1642668,"internal_node_id":"0.0-5.0-10.0"},{"group":"hexagon_bi","fractal_assignment":["../images/gry_blk.png","../images/org_blu.png","../images/blu_wht.png","../images/cyn_red.png","../images/ylw_slt.png","../images/pnk_blu.png"],"mutagen_generator_assignment":[0,1],"goal":1,"start":0,"action_noise":0.15,"location_history":"[0,5,0,1]","action_history":"[0,0,1]","mutagen_history":"[0,0,1]","location_rts":"[517,783,511]","trial_type":"fractal-mutation","trial_index":65,"time_elapsed":1651385,"internal_node_id":"0.0-5.0-11.0"},{"group":"hexagon_bi","fractal_assignment":["../images/gry_blk.png","../images/org_blu.png","../images/blu_wht.png","../images/cyn_red.png","../images/ylw_slt.png","../images/pnk_blu.png"],"mutagen_generator_assignment":[0,1],"goal":3,"start":1,"action_noise":0.15,"location_history":"[1,0,1,2,1,0,5,4,3]","action_history":"[1,1,0,0,1,0,1,0]","mutagen_history":"[1,1,0,0,1,0,1,0]","location_rts":"[1670,652,815,636,615,389,654,459]","trial_type":"fractal-mutation","trial_index":66,"time_elapsed":1669853,"internal_node_id":"0.0-5.0-12.0"},{"group":"hexagon_bi","fractal_assignment":["../images/gry_blk.png","../images/org_blu.png","../images/blu_wht.png","../images/cyn_red.png","../images/ylw_slt.png","../images/pnk_blu.png"],"mutagen_generator_assignment":[0,1],"goal":5,"start":3,"action_noise":0.15,"location_history":"[3,4,5]","action_history":"[0,0]","mutagen_history":"[0,0]","location_rts":"[1310,385]","trial_type":"fractal-mutation","trial_index":67,"time_elapsed":1677264,"internal_node_id":"0.0-5.0-13.0"},{"group":"hexagon_bi","fractal_assignment":["../images/gry_blk.png","../images/org_blu.png","../images/blu_wht.png","../images/cyn_red.png","../images/ylw_slt.png","../images/pnk_blu.png"],"mutagen_generator_assignment":[0,1],"goal":4,"start":5,"action_noise":0.15,"location_history":"[5,0,5,0,5,4]","action_history":"[0,0,0,1,1]","mutagen_history":"[0,0,0,1,1]","location_rts":"[484,620,630,316,939]","trial_type":"fractal-mutation","trial_index":68,"time_elapsed":1689505,"internal_node_id":"0.0-5.0-14.0"},{"group":"hexagon_bi","fractal_assignment":["../images/gry_blk.png","../images/org_blu.png","../images/blu_wht.png","../images/cyn_red.png","../images/ylw_slt.png","../images/pnk_blu.png"],"mutagen_generator_assignment":[0,1],"goal":0,"start":4,"action_noise":0.15,"location_history":"[4,5,4,3,4,3,4,5,0]","action_history":"[1,1,0,0,0,0,1,0]","mutagen_history":"[1,1,0,0,0,0,1,0]","location_rts":"[600,772,783,633,567,893,558,641]","trial_type":"fractal-mutation","trial_index":69,"time_elapsed":1707706,"internal_node_id":"0.0-5.0-15.0"},{"group":"hexagon_bi","fractal_assignment":["../images/gry_blk.png","../images/org_blu.png","../images/blu_wht.png","../images/cyn_red.png","../images/ylw_slt.png","../images/pnk_blu.png"],"mutagen_generator_assignment":[0,1],"goal":3,"start":0,"action_noise":0.15,"location_history":"[0,5,4,5,4,5,0,1,0,5,0,1,2,3]","action_history":"[0,1,0,1,1,0,0,0,0,1,1,1,1]","mutagen_history":"[0,1,0,1,1,0,0,0,0,1,1,1,1]","location_rts":"[593,422,492,470,473,371,1625,734,612,529,366,497,727]","trial_type":"fractal-mutation","trial_index":70,"time_elapsed":1734213,"internal_node_id":"0.0-5.0-16.0"},{"group":"hexagon_bi","fractal_assignment":["../images/gry_blk.png","../images/org_blu.png","../images/blu_wht.png","../images/cyn_red.png","../images/ylw_slt.png","../images/pnk_blu.png"],"mutagen_generator_assignment":[0,1],"goal":1,"start":3,"action_noise":0.15,"location_history":"[3,2,1]","action_history":"[1,0]","mutagen_history":"[1,0]","location_rts":"[751,675]","trial_type":"fractal-mutation","trial_index":71,"time_elapsed":1741465,"internal_node_id":"0.0-5.0-17.0"},{"group":"hexagon_bi","fractal_assignment":["../images/gry_blk.png","../images/org_blu.png","../images/blu_wht.png","../images/cyn_red.png","../images/ylw_slt.png","../images/pnk_blu.png"],"mutagen_generator_assignment":[0,1],"goal":5,"start":1,"action_noise":0.15,"location_history":"[1,0,5]","action_history":"[1,0]","mutagen_history":"[1,0]","location_rts":"[466,507]","trial_type":"fractal-mutation","trial_index":72,"time_elapsed":1748186,"internal_node_id":"0.0-5.0-18.0"},{"group":"hexagon_bi","fractal_assignment":["../images/gry_blk.png","../images/org_blu.png","../images/blu_wht.png","../images/cyn_red.png","../images/ylw_slt.png","../images/pnk_blu.png"],"mutagen_generator_assignment":[0,1],"goal":2,"start":5,"action_noise":0.15,"location_history":"[5,4,3,2]","action_history":"[1,0,0]","mutagen_history":"[1,0,0]","location_rts":"[581,507,716]","trial_type":"fractal-mutation","trial_index":73,"time_elapsed":1756919,"internal_node_id":"0.0-5.0-19.0"},{"group":"hexagon_bi","fractal_assignment":["../images/gry_blk.png","../images/org_blu.png","../images/blu_wht.png","../images/cyn_red.png","../images/ylw_slt.png","../images/pnk_blu.png"],"mutagen_generator_assignment":[0,1],"goal":4,"start":2,"action_noise":0.15,"location_history":"[2,1,2,1,0,1,2,3,2,3,2,3,4]","action_history":"[0,0,0,1,1,1,1,1,1,1,0,0]","mutagen_history":"[0,0,0,1,1,1,1,1,1,1,0,0]","location_rts":"[836,496,540,677,522,874,659,619,698,659,559,438]","trial_type":"fractal-mutation","trial_index":74,"time_elapsed":1781882,"internal_node_id":"0.0-5.0-20.0"},{"group":"hexagon_bi","fractal_assignment":["../images/gry_blk.png","../images/org_blu.png","../images/blu_wht.png","../images/cyn_red.png","../images/ylw_slt.png","../images/pnk_blu.png"],"mutagen_generator_assignment":[0,1],"goal":1,"start":4,"action_noise":0.15,"location_history":"[4,5,0,5,0,1]","action_history":"[0,0,0,0,1]","mutagen_history":"[0,0,0,0,1]","location_rts":"[553,537,523,435,653]","trial_type":"fractal-mutation","trial_index":75,"time_elapsed":1793667,"internal_node_id":"0.0-5.0-21.0"},{"group":"hexagon_bi","fractal_assignment":["../images/gry_blk.png","../images/org_blu.png","../images/blu_wht.png","../images/cyn_red.png","../images/ylw_slt.png","../images/pnk_blu.png"],"mutagen_generator_assignment":[0,1],"goal":3,"start":1,"action_noise":0.15,"location_history":"[1,2,1,0,5,4,3]","action_history":"[0,0,1,1,1,1]","mutagen_history":"[0,0,1,1,1,1]","location_rts":"[1792,598,499,566,472,500]","trial_type":"fractal-mutation","trial_index":76,"time_elapsed":1808490,"internal_node_id":"0.0-5.0-22.0"},{"group":"hexagon_bi","fractal_assignment":["../images/gry_blk.png","../images/org_blu.png","../images/blu_wht.png","../images/cyn_red.png","../images/ylw_slt.png","../images/pnk_blu.png"],"mutagen_generator_assignment":[0,1],"goal":2,"start":3,"action_noise":0.15,"location_history":"[3,2]","action_history":"[1]","mutagen_history":"[1]","location_rts":"[673]","trial_type":"fractal-mutation","trial_index":77,"time_elapsed":1813871,"internal_node_id":"0.0-5.0-23.0"},{"group":"hexagon_bi","fractal_assignment":["../images/gry_blk.png","../images/org_blu.png","../images/blu_wht.png","../images/cyn_red.png","../images/ylw_slt.png","../images/pnk_blu.png"],"mutagen_generator_assignment":[0,1],"goal":0,"start":2,"action_noise":0.15,"location_history":"[2,3,2,1,0]","action_history":"[1,1,1,1]","mutagen_history":"[1,1,1,1]","location_rts":"[810,1513,774,674]","trial_type":"fractal-mutation","trial_index":78,"time_elapsed":1825891,"internal_node_id":"0.0-5.0-24.0"},{"group":"hexagon_bi","fractal_assignment":["../images/gry_blk.png","../images/org_blu.png","../images/blu_wht.png","../images/cyn_red.png","../images/ylw_slt.png","../images/pnk_blu.png"],"mutagen_generator_assignment":[0,1],"goal":5,"start":0,"action_noise":0.15,"location_history":"[0,5]","action_history":"[1]","mutagen_history":"[1]","location_rts":"[742]","trial_type":"fractal-mutation","trial_index":79,"time_elapsed":1831302,"internal_node_id":"0.0-5.0-25.0"},{"group":"hexagon_bi","fractal_assignment":["../images/gry_blk.png","../images/org_blu.png","../images/blu_wht.png","../images/cyn_red.png","../images/ylw_slt.png","../images/pnk_blu.png"],"mutagen_generator_assignment":[0,1],"goal":2,"start":5,"action_noise":0.15,"location_history":"[5,4,3,2]","action_history":"[1,1,1]","mutagen_history":"[1,1,1]","location_rts":"[736,405,469]","trial_type":"fractal-mutation","trial_index":80,"time_elapsed":1839866,"internal_node_id":"0.0-5.0-26.0"},{"group":"hexagon_bi","fractal_assignment":["../images/gry_blk.png","../images/org_blu.png","../images/blu_wht.png","../images/cyn_red.png","../images/ylw_slt.png","../images/pnk_blu.png"],"mutagen_generator_assignment":[0,1],"goal":3,"start":2,"action_noise":0.15,"location_history":"[2,3]","action_history":"[1]","mutagen_history":"[1]","location_rts":"[1046]","trial_type":"fractal-mutation","trial_index":81,"time_elapsed":1845604,"internal_node_id":"0.0-5.0-27.0"},{"group":"hexagon_bi","fractal_assignment":["../images/gry_blk.png","../images/org_blu.png","../images/blu_wht.png","../images/cyn_red.png","../images/ylw_slt.png","../images/pnk_blu.png"],"mutagen_generator_assignment":[0,1],"goal":0,"start":3,"action_noise":0.15,"location_history":"[3,4,5,0]","action_history":"[1,1,0]","mutagen_history":"[1,1,0]","location_rts":"[651,607,458]","trial_type":"fractal-mutation","trial_index":82,"time_elapsed":1854336,"internal_node_id":"0.0-5.0-28.0"},{"group":"hexagon_bi","fractal_assignment":["../images/gry_blk.png","../images/org_blu.png","../images/blu_wht.png","../images/cyn_red.png","../images/ylw_slt.png","../images/pnk_blu.png"],"mutagen_generator_assignment":[0,1],"goal":1,"start":0,"action_noise":0.15,"location_history":"[0,1]","action_history":"[1]","mutagen_history":"[1]","location_rts":"[842]","trial_type":"fractal-mutation","trial_index":83,"time_elapsed":1859853,"internal_node_id":"0.0-5.0-29.0"},{"group":"hexagon_bi","fractal_assignment":["../images/gry_blk.png","../images/org_blu.png","../images/blu_wht.png","../images/cyn_red.png","../images/ylw_slt.png","../images/pnk_blu.png"],"mutagen_generator_assignment":[0,1],"goal":4,"start":1,"action_noise":0.15,"location_history":"[1,2,3,2,3,2,3,2,3,4]","action_history":"[0,1,1,1,1,1,1,0,0]","mutagen_history":"[0,1,1,1,1,1,1,0,0]","location_rts":"[1407,425,586,601,544,498,536,537,422]","trial_type":"fractal-mutation","trial_index":84,"time_elapsed":1879293,"internal_node_id":"0.0-5.0-30.0"},{"group":"hexagon_bi","fractal_assignment":["../images/gry_blk.png","../images/org_blu.png","../images/blu_wht.png","../images/cyn_red.png","../images/ylw_slt.png","../images/pnk_blu.png"],"mutagen_generator_assignment":[0,1],"goal":5,"start":4,"action_noise":0.15,"location_history":"[4,3,4,3,4,5]","action_history":"[0,0,0,0,1]","mutagen_history":"[0,0,0,0,1]","location_rts":"[1349,667,533,865,562]","trial_type":"fractal-mutation","trial_index":85,"time_elapsed":1892366,"internal_node_id":"0.0-5.0-31.0"},{"group":"hexagon_bi","fractal_assignment":["../images/gry_blk.png","../images/org_blu.png","../images/blu_wht.png","../images/cyn_red.png","../images/ylw_slt.png","../images/pnk_blu.png"],"mutagen_generator_assignment":[0,1],"goal":0,"start":5,"action_noise":0.15,"location_history":"[5,4,5,4,3,2,3,4,5,0]","action_history":"[1,1,1,0,0,1,0,0,0]","mutagen_history":"[1,1,1,0,0,1,0,0,0]","location_rts":"[1320,1403,991,360,581,1081,986,494,672]","trial_type":"fractal-mutation","trial_index":86,"time_elapsed":1914017,"internal_node_id":"0.0-5.0-32.0"},{"group":"hexagon_bi","fractal_assignment":["../images/gry_blk.png","../images/org_blu.png","../images/blu_wht.png","../images/cyn_red.png","../images/ylw_slt.png","../images/pnk_blu.png"],"mutagen_generator_assignment":[0,1],"goal":3,"start":0,"action_noise":0.15,"location_history":"[0,1,2,3]","action_history":"[1,1,1]","mutagen_history":"[1,1,1]","location_rts":"[549,801,572]","trial_type":"fractal-mutation","trial_index":87,"time_elapsed":1922960,"internal_node_id":"0.0-5.0-33.0"},{"group":"hexagon_bi","fractal_assignment":["../images/gry_blk.png","../images/org_blu.png","../images/blu_wht.png","../images/cyn_red.png","../images/ylw_slt.png","../images/pnk_blu.png"],"mutagen_generator_assignment":[0,1],"goal":1,"start":3,"action_noise":0.15,"location_history":"[3,2,3,2,1]","action_history":"[1,1,1,0]","mutagen_history":"[1,1,1,0]","location_rts":"[747,521,453,571]","trial_type":"fractal-mutation","trial_index":88,"time_elapsed":1933449,"internal_node_id":"0.0-5.0-34.0"},{"group":"hexagon_bi","fractal_assignment":["../images/gry_blk.png","../images/org_blu.png","../images/blu_wht.png","../images/cyn_red.png","../images/ylw_slt.png","../images/pnk_blu.png"],"mutagen_generator_assignment":[0,1],"goal":2,"start":1,"action_noise":0.15,"location_history":"[1,2]","action_history":"[0]","mutagen_history":"[0]","location_rts":"[857]","trial_type":"fractal-mutation","trial_index":89,"time_elapsed":1938911,"internal_node_id":"0.0-5.0-35.0"},{"group":"hexagon_bi","fractal_assignment":["../images/gry_blk.png","../images/org_blu.png","../images/blu_wht.png","../images/cyn_red.png","../images/ylw_slt.png","../images/pnk_blu.png"],"mutagen_generator_assignment":[0,1],"goal":4,"start":2,"action_noise":0.15,"location_history":"[2,3,2,3,2,1,2,1,2,1,2,1,0,5,4]","action_history":"[1,1,1,1,0,0,0,0,0,0,0,1,0,1]","mutagen_history":"[1,1,1,1,0,0,0,0,0,0,0,1,0,1]","location_rts":"[867,876,373,583,370,529,446,482,590,500,1241,262,831,442]","trial_type":"fractal-mutation","trial_index":90,"time_elapsed":1966809,"internal_node_id":"0.0-5.0-36.0"},{"group":"hexagon_bi","fractal_assignment":["../images/gry_blk.png","../images/org_blu.png","../images/blu_wht.png","../images/cyn_red.png","../images/ylw_slt.png","../images/pnk_blu.png"],"mutagen_generator_assignment":[0,1],"goal":5,"start":4,"action_noise":0.15,"location_history":"[4,5]","action_history":"[1]","mutagen_history":"[1]","location_rts":"[954]","trial_type":"fractal-mutation","trial_index":91,"time_elapsed":1972478,"internal_node_id":"0.0-5.0-37.0"},{"group":"hexagon_bi","fractal_assignment":["../images/gry_blk.png","../images/org_blu.png","../images/blu_wht.png","../images/cyn_red.png","../images/ylw_slt.png","../images/pnk_blu.png"],"mutagen_generator_assignment":[0,1],"goal":1,"start":5,"action_noise":0.15,"location_history":"[5,4,3,4,3,2,1]","action_history":"[1,0,1,0,1,0]","mutagen_history":"[1,0,1,0,1,0]","location_rts":"[708,372,349,338,368,348]","trial_type":"fractal-mutation","trial_index":92,"time_elapsed":1985347,"internal_node_id":"0.0-5.0-38.0"},{"group":"hexagon_bi","fractal_assignment":["../images/gry_blk.png","../images/org_blu.png","../images/blu_wht.png","../images/cyn_red.png","../images/ylw_slt.png","../images/pnk_blu.png"],"mutagen_generator_assignment":[0,1],"goal":4,"start":1,"action_noise":0.15,"location_history":"[1,2,3,4]","action_history":"[0,1,0]","mutagen_history":"[0,1,0]","location_rts":"[495,387,346]","trial_type":"fractal-mutation","trial_index":93,"time_elapsed":1993451,"internal_node_id":"0.0-5.0-39.0"},{"group":"hexagon_bi","fractal_assignment":["../images/gry_blk.png","../images/org_blu.png","../images/blu_wht.png","../images/cyn_red.png","../images/ylw_slt.png","../images/pnk_blu.png"],"mutagen_generator_assignment":[0,1],"goal":3,"start":4,"action_noise":0.15,"location_history":"[4,5,0,1,2,3]","action_history":"[1,0,1,0,1]","mutagen_history":"[1,0,1,0,1]","location_rts":"[623,55,659,408,512]","trial_type":"fractal-mutation","trial_index":94,"time_elapsed":2004966,"internal_node_id":"0.0-5.0-40.0"},{"group":"hexagon_bi","fractal_assignment":["../images/gry_blk.png","../images/org_blu.png","../images/blu_wht.png","../images/cyn_red.png","../images/ylw_slt.png","../images/pnk_blu.png"],"mutagen_generator_assignment":[0,1],"goal":2,"start":3,"action_noise":0.15,"location_history":"[3,2]","action_history":"[1]","mutagen_history":"[1]","location_rts":"[677]","trial_type":"fractal-mutation","trial_index":95,"time_elapsed":2010313,"internal_node_id":"0.0-5.0-41.0"},{"group":"hexagon_bi","fractal_assignment":["../images/gry_blk.png","../images/org_blu.png","../images/blu_wht.png","../images/cyn_red.png","../images/ylw_slt.png","../images/pnk_blu.png"],"mutagen_generator_assignment":[0,1],"goal":0,"start":2,"action_noise":0.15,"location_history":"[2,3,4,5,0]","action_history":"[1,0,1,0]","mutagen_history":"[1,0,1,0]","location_rts":"[549,457,1030,631]","trial_type":"fractal-mutation","trial_index":96,"time_elapsed":2021019,"internal_node_id":"0.0-5.0-42.0"},{"group":"hexagon_bi","fractal_assignment":["../images/gry_blk.png","../images/org_blu.png","../images/blu_wht.png","../images/cyn_red.png","../images/ylw_slt.png","../images/pnk_blu.png"],"mutagen_generator_assignment":[0,1],"goal":5,"start":0,"action_noise":0.15,"location_history":"[0,5]","action_history":"[0]","mutagen_history":"[0]","location_rts":"[683]","trial_type":"fractal-mutation","trial_index":97,"time_elapsed":2026325,"internal_node_id":"0.0-5.0-43.0"},{"group":"hexagon_bi","fractal_assignment":["../images/gry_blk.png","../images/org_blu.png","../images/blu_wht.png","../images/cyn_red.png","../images/ylw_slt.png","../images/pnk_blu.png"],"mutagen_generator_assignment":[0,1],"goal":0,"start":5,"action_noise":0.15,"location_history":"[5,4,3,2,1,0]","action_history":"[1,0,1,0,1]","mutagen_history":"[1,0,1,0,1]","location_rts":"[807,591,701,432,613]","trial_type":"fractal-mutation","trial_index":98,"time_elapsed":2038693,"internal_node_id":"0.0-5.0-44.0"},{"group":"hexagon_bi","fractal_assignment":["../images/gry_blk.png","../images/org_blu.png","../images/blu_wht.png","../images/cyn_red.png","../images/ylw_slt.png","../images/pnk_blu.png"],"mutagen_generator_assignment":[0,1],"goal":2,"start":0,"action_noise":0.15,"location_history":"[0,1,0,5,0,1,2]","action_history":"[1,0,0,0,1,1]","mutagen_history":"[1,0,0,0,1,1]","location_rts":"[797,570,472,598,543,714]","trial_type":"fractal-mutation","trial_index":99,"time_elapsed":2052810,"internal_node_id":"0.0-5.0-45.0"},{"group":"hexagon_bi","fractal_assignment":["../images/gry_blk.png","../images/org_blu.png","../images/blu_wht.png","../images/cyn_red.png","../images/ylw_slt.png","../images/pnk_blu.png"],"mutagen_generator_assignment":[0,1],"goal":4,"start":2,"action_noise":0.15,"location_history":"[2,3,2,3,4]","action_history":"[1,0,1,1]","mutagen_history":"[1,0,1,1]","location_rts":"[716,520,473,546]","trial_type":"fractal-mutation","trial_index":100,"time_elapsed":2063246,"internal_node_id":"0.0-5.0-46.0"},{"group":"hexagon_bi","fractal_assignment":["../images/gry_blk.png","../images/org_blu.png","../images/blu_wht.png","../images/cyn_red.png","../images/ylw_slt.png","../images/pnk_blu.png"],"mutagen_generator_assignment":[0,1],"goal":1,"start":4,"action_noise":0.15,"location_history":"[4,3,4,5,0,1]","action_history":"[1,0,1,0,1]","mutagen_history":"[1,0,1,0,1]","location_rts":"[751,656,1818,776,659]","trial_type":"fractal-mutation","trial_index":101,"time_elapsed":2077174,"internal_node_id":"0.0-5.0-47.0"},{"group":"hexagon_bi","fractal_assignment":["../images/gry_blk.png","../images/org_blu.png","../images/blu_wht.png","../images/cyn_red.png","../images/ylw_slt.png","../images/pnk_blu.png"],"mutagen_generator_assignment":[0,1],"goal":5,"start":1,"action_noise":0.15,"location_history":"[1,0,1,2,1,0,1,2,3,2,1,0,5]","action_history":"[1,1,1,0,1,1,1,1,1,0,0,0]","mutagen_history":"[1,1,1,0,1,1,1,1,1,0,0,0]","location_rts":"[838,456,489,358,518,323,407,622,499,700,461,475]","trial_type":"fractal-mutation","trial_index":102,"time_elapsed":2100538,"internal_node_id":"0.0-5.0-48.0"},{"group":"hexagon_bi","fractal_assignment":["../images/gry_blk.png","../images/org_blu.png","../images/blu_wht.png","../images/cyn_red.png","../images/ylw_slt.png","../images/pnk_blu.png"],"mutagen_generator_assignment":[0,1],"goal":3,"start":5,"action_noise":0.15,"location_history":"[5,0,5,0,1,0,1,2,3]","action_history":"[0,0,0,1,1,0,1,1]","mutagen_history":"[0,0,0,1,1,0,1,1]","location_rts":"[832,685,752,404,369,1331,416,797]","trial_type":"fractal-mutation","trial_index":103,"time_elapsed":2118896,"internal_node_id":"0.0-5.0-49.0"},{"view_history":"[{\"page_index\":0,\"viewing_time\":6836}]","rt":6837,"trial_type":"instructions","trial_index":104,"time_elapsed":2126734,"internal_node_id":"0.0-6.0"},{"rt":2873,"responses":"{\"Q0\":\"\"}","trial_type":"survey-text","trial_index":105,"time_elapsed":2130612,"internal_node_id":"0.0-7.0"}]