[{"view_history":"[{\"page_index\":0,\"viewing_time\":787887},{\"page_index\":1,\"viewing_time\":9352}]","rt":797240,"trial_type":"instructions","trial_index":0,"time_elapsed":797240,"internal_node_id":"0.0-0.0"},{"view_history":"[{\"page_index\":0,\"viewing_time\":2607},{\"page_index\":1,\"viewing_time\":19372}]","rt":21979,"trial_type":"instructions","trial_index":1,"time_elapsed":820220,"internal_node_id":"0.0-1.0"},{"group":"hexagon_tri","room_assignment":["purple","red","yellow","green","grey","blue"],"door_color_assignment":["black","white"],"door_generator_assignment":[1,0],"goal":3,"start":5,"action_noise":0.15,"location_history":"[5,0,1,5,4,0,5,0,5,4,0,1,3]","action_history":"[1,1,1,0,0,0,1,0,0,0,0,1]","door_history":"[0,0,0,1,1,1,0,1,1,1,1,0]","location_rts":"[2877,512,383,614,443,389,886,880,279,320,335,1237]","trial_type":"two-door-navigation","trial_index":2,"time_elapsed":844974,"internal_node_id":"0.0-2.0-0.0"},{"group":"hexagon_tri","room_assignment":["purple","red","yellow","green","grey","blue"],"door_color_assignment":["black","white"],"door_generator_assignment":[1,0],"goal":1,"start":3,"action_noise":0.15,"location_history":"[3,2,1]","action_history":"[0,1]","door_history":"[1,0]","location_rts":"[2618,813]","trial_type":"two-door-navigation","trial_index":3,"time_elapsed":853924,"internal_node_id":"0.0-2.0-1.0"},{"group":"hexagon_tri","room_assignment":["purple","red","yellow","green","grey","blue"],"door_color_assignment":["black","white"],"door_generator_assignment":[1,0],"goal":0,"start":1,"action_noise":0.15,"location_history":"[1,3,2,1,5,4,2,1,3,2,3,2,3,2,3,4,2,3,4,2,3,4,0]","action_history":"[0,0,0,1,0,0,0,0,0,0,0,0,0,1,1,1,1,1,1,1,1,0]","door_history":"[1,1,1,0,1,1,1,1,1,1,1,1,1,0,0,0,0,0,0,0,0,1]","location_rts":"[2176,478,714,1659,1492,633,495,528,399,3847,2431,601,630,651,492,473,454,326,576,422,386,10414]","trial_type":"two-door-navigation","trial_index":4,"time_elapsed":909851,"internal_node_id":"0.0-2.0-2.0"},{"group":"hexagon_tri","room_assignment":["purple","red","yellow","green","grey","blue"],"door_color_assignment":["black","white"],"door_generator_assignment":[1,0],"goal":3,"start":0,"action_noise":0.15,"location_history":"[0,5,4,0,5,0,5,0,1,3]","action_history":"[0,0,0,0,1,1,1,1,1]","door_history":"[1,1,1,1,0,0,0,0,0]","location_rts":"[1468,2691,3272,1132,1087,346,276,321,548]","trial_type":"two-door-navigation","trial_index":5,"time_elapsed":933574,"internal_node_id":"0.0-2.0-3.0"},{"group":"hexagon_tri","room_assignment":["purple","red","yellow","green","grey","blue"],"door_color_assignment":["black","white"],"door_generator_assignment":[1,0],"goal":4,"start":3,"action_noise":0.15,"location_history":"[3,2,1,3,2,1,3,4]","action_history":"[0,0,0,0,0,0,1]","door_history":"[1,1,1,1,1,1,0]","location_rts":"[1642,579,392,1307,458,515,1072]","trial_type":"two-door-navigation","trial_index":6,"time_elapsed":950078,"internal_node_id":"0.0-2.0-4.0"},{"group":"hexagon_tri","room_assignment":["purple","red","yellow","green","grey","blue"],"door_color_assignment":["black","white"],"door_generator_assignment":[1,0],"goal":2,"start":4,"action_noise":0.15,"location_history":"[4,2]","action_history":"[1]","door_history":"[0]","location_rts":"[9062]","trial_type":"two-door-navigation","trial_index":7,"time_elapsed":963646,"internal_node_id":"0.0-2.0-5.0"},{"group":"hexagon_tri","room_assignment":["purple","red","yellow","green","grey","blue"],"door_color_assignment":["black","white"],"door_generator_assignment":[1,0],"goal":1,"start":2,"action_noise":0.15,"location_history":"[2,3,2,3,2,1]","action_history":"[0,0,0,0,0]","door_history":"[1,1,1,1,1]","location_rts":"[1872,318,1394,378,1227]","trial_type":"two-door-navigation","trial_index":8,"time_elapsed":977372,"internal_node_id":"0.0-2.0-6.0"},{"group":"hexagon_tri","room_assignment":["purple","red","yellow","green","grey","blue"],"door_color_assignment":["black","white"],"door_generator_assignment":[1,0],"goal":5,"start":1,"action_noise":0.15,"location_history":"[1,5]","action_history":"[1]","door_history":"[0]","location_rts":"[2065]","trial_type":"two-door-navigation","trial_index":9,"time_elapsed":983942,"internal_node_id":"0.0-2.0-7.0"},{"group":"hexagon_tri","room_assignment":["purple","red","yellow","green","grey","blue"],"door_color_assignment":["black","white"],"door_generator_assignment":[1,0],"goal":4,"start":5,"action_noise":0.15,"location_history":"[5,4]","action_history":"[0]","door_history":"[1]","location_rts":"[1114]","trial_type":"two-door-navigation","trial_index":10,"time_elapsed":989564,"internal_node_id":"0.0-2.0-8.0"},{"group":"hexagon_tri","room_assignment":["purple","red","yellow","green","grey","blue"],"door_color_assignment":["black","white"],"door_generator_assignment":[1,0],"goal":2,"start":4,"action_noise":0.15,"location_history":"[4,0,5,4,2]","action_history":"[0,0,0,1]","door_history":"[1,1,1,0]","location_rts":"[1266,282,439,796]","trial_type":"two-door-navigation","trial_index":11,"time_elapsed":999879,"internal_node_id":"0.0-2.0-9.0"},{"group":"hexagon_tri","room_assignment":["purple","red","yellow","green","grey","blue"],"door_color_assignment":["black","white"],"door_generator_assignment":[1,0],"goal":0,"start":2,"action_noise":0.15,"location_history":"[2,1,3,2,1,5,0]","action_history":"[0,0,0,0,1,1]","door_history":"[1,1,1,1,0,0]","location_rts":"[1048,322,356,619,391,483]","trial_type":"two-door-navigation","trial_index":12,"time_elapsed":1012644,"internal_node_id":"0.0-2.0-10.0"},{"group":"hexagon_tri","room_assignment":["purple","red","yellow","green","grey","blue"],"door_color_assignment":["black","white"],"door_generator_assignment":[1,0],"goal":1,"start":0,"action_noise":0.15,"location_history":"[0,5,4,0,1]","action_history":"[0,0,0,1]","door_history":"[1,1,1,0]","location_rts":"[1517,350,588,1415]","trial_type":"two-door-navigation","trial_index":13,"time_elapsed":1024038,"internal_node_id":"0.0-2.0-11.0"},{"group":"hexagon_tri","room_assignment":["purple","red","yellow","green","grey","blue"],"door_color_assignment":["black","white"],"door_generator_assignment":[1,0],"goal":3,"start":1,"action_noise":0.15,"location_history":"[1,3]","action_history":"[0]","door_history":"[1]","location_rts":"[13347]","trial_type":"two-door-navigation","trial_index":14,"time_elapsed":1041889,"internal_node_id":"0.0-2.0-12.0"},{"group":"hexagon_tri","room_assignment":["purple","red","yellow","green","grey","blue"],"door_color_assignment":["black","white"],"door_generator_assignment":[1,0],"goal":5,"start":3,"action_noise":0.15,"location_history":"[3,4,2,1,3,2,3,4,2,3,4,0,5]","action_history":"[1,1,0,0,0,1,1,1,1,1,1,1]","door_history":"[0,0,1,1,1,0,0,0,0,0,0,0]","location_rts":"[1524,472,1273,1317,434,656,402,526,388,310,380,1752]","trial_type":"two-door-navigation","trial_index":15,"time_elapsed":1066890,"internal_node_id":"0.0-2.0-13.0"},{"group":"hexagon_tri","room_assignment":["purple","red","yellow","green","grey","blue"],"door_color_assignment":["black","white"],"door_generator_assignment":[1,0],"goal":4,"start":5,"action_noise":0.15,"location_history":"[5,4]","action_history":"[0]","door_history":"[1]","location_rts":"[1936]","trial_type":"two-door-navigation","trial_index":16,"time_elapsed":1073334,"internal_node_id":"0.0-2.0-14.0"},{"group":"hexagon_tri","room_assignment":["purple","red","yellow","green","grey","blue"],"door_color_assignment":["black","white"],"door_generator_assignment":[1,0],"goal":0,"start":4,"action_noise":0.15,"location_history":"[4,2,3,4,2,3,4,0]","action_history":"[1,1,1,1,1,1,0]","door_history":"[0,0,0,0,0,0,1]","location_rts":"[1292,412,578,378,406,804,362]","trial_type":"two-door-navigation","trial_index":17,"time_elapsed":1088130,"internal_node_id":"0.0-2.0-15.0"},{"group":"hexagon_tri","room_assignment":["purple","red","yellow","green","grey","blue"],"door_color_assignment":["black","white"],"door_generator_assignment":[1,0],"goal":3,"start":0,"action_noise":0.15,"location_history":"[0,1,5,4,0,5,4,0,1,3]","action_history":"[1,1,0,0,0,0,0,0,0]","door_history":"[0,0,1,1,1,1,1,1,1]","location_rts":"[2202,646,978,452,329,376,333,578,889]","trial_type":"two-door-navigation","trial_index":18,"time_elapsed":1107470,"internal_node_id":"0.0-2.0-16.0"},{"group":"hexagon_tri","room_assignment":["purple","red","yellow","green","grey","blue"],"door_color_assignment":["black","white"],"door_generator_assignment":[1,0],"goal":1,"start":3,"action_noise":0.15,"location_history":"[3,4,0,5,4,2,1]","action_history":"[1,0,0,0,0,0]","door_history":"[0,1,1,1,1,1]","location_rts":"[2508,655,497,252,271,1357]","trial_type":"two-door-navigation","trial_index":19,"time_elapsed":1122555,"internal_node_id":"0.0-2.0-17.0"},{"group":"hexagon_tri","room_assignment":["purple","red","yellow","green","grey","blue"],"door_color_assignment":["black","white"],"door_generator_assignment":[1,0],"goal":5,"start":1,"action_noise":0.15,"location_history":"[1,3,2,1,3,2,1,3,4,0,1,5]","action_history":"[0,0,0,0,0,0,1,1,1,1,1]","door_history":"[1,1,1,1,1,1,0,0,0,0,0]","location_rts":"[533,648,364,783,648,360,289,574,400,404,874]","trial_type":"two-door-navigation","trial_index":20,"time_elapsed":1142997,"internal_node_id":"0.0-2.0-18.0"},{"group":"hexagon_tri","room_assignment":["purple","red","yellow","green","grey","blue"],"door_color_assignment":["black","white"],"door_generator_assignment":[1,0],"goal":2,"start":5,"action_noise":0.15,"location_history":"[5,4,0,5,4,0,5,4,2]","action_history":"[0,0,0,0,0,0,1,0]","door_history":"[1,1,1,1,1,1,0,1]","location_rts":"[118827,255,278,229,371,323,674,506]","trial_type":"two-door-navigation","trial_index":21,"time_elapsed":1276013,"internal_node_id":"0.0-2.0-19.0"},{"group":"hexagon_tri","room_assignment":["purple","red","yellow","green","grey","blue"],"door_color_assignment":["black","white"],"door_generator_assignment":[1,0],"goal":4,"start":2,"action_noise":0.15,"location_history":"[2,1,3,2,3,2,3,4]","action_history":"[0,0,0,0,0,1,1]","door_history":"[1,1,1,1,1,0,0]","location_rts":"[473,888,665,544,676,298,474]","trial_type":"two-door-navigation","trial_index":22,"time_elapsed":1290576,"internal_node_id":"0.0-2.0-20.0"},{"group":"hexagon_tri","room_assignment":["purple","red","yellow","green","grey","blue"],"door_color_assignment":["black","white"],"door_generator_assignment":[1,0],"goal":1,"start":4,"action_noise":0.15,"location_history":"[4,0,5,4,2,3,2,3,2,1]","action_history":"[0,0,1,1,1,1,1,0,0]","door_history":"[1,1,0,0,0,0,0,1,1]","location_rts":"[404,445,1010,595,358,431,455,839,411]","trial_type":"two-door-navigation","trial_index":23,"time_elapsed":1308083,"internal_node_id":"0.0-2.0-21.0"},{"group":"hexagon_tri","room_assignment":["purple","red","yellow","green","grey","blue"],"door_color_assignment":["black","white"],"door_generator_assignment":[1,0],"goal":3,"start":1,"action_noise":0.15,"location_history":"[1,5,4,0,5,4,0,5,4,0,1,3]","action_history":"[1,0,0,0,0,0,0,0,0,0,0]","door_history":"[0,1,1,1,1,1,1,1,1,1,1]","location_rts":"[1724,465,365,170,196,217,210,296,2444,403,1655]","trial_type":"two-door-navigation","trial_index":24,"time_elapsed":1330789,"internal_node_id":"0.0-2.0-22.0"},{"group":"hexagon_tri","room_assignment":["purple","red","yellow","green","grey","blue"],"door_color_assignment":["black","white"],"door_generator_assignment":[1,0],"goal":2,"start":3,"action_noise":0.15,"location_history":"[3,4,2]","action_history":"[0,1]","door_history":"[1,0]","location_rts":"[2846,809]","trial_type":"two-door-navigation","trial_index":25,"time_elapsed":1339958,"internal_node_id":"0.0-2.0-23.0"},{"group":"hexagon_tri","room_assignment":["purple","red","yellow","green","grey","blue"],"door_color_assignment":["black","white"],"door_generator_assignment":[1,0],"goal":0,"start":2,"action_noise":0.15,"location_history":"[2,1,3,2,3,4,2,3,4,0]","action_history":"[0,0,0,1,1,1,1,1,0]","door_history":"[1,1,1,0,0,0,0,0,1]","location_rts":"[1466,212,943,608,408,447,400,432,941]","trial_type":"two-door-navigation","trial_index":26,"time_elapsed":1358388,"internal_node_id":"0.0-2.0-24.0"},{"group":"hexagon_tri","room_assignment":["purple","red","yellow","green","grey","blue"],"door_color_assignment":["black","white"],"door_generator_assignment":[1,0],"goal":5,"start":0,"action_noise":0.15,"location_history":"[0,5]","action_history":"[0]","door_history":"[1]","location_rts":"[345]","trial_type":"two-door-navigation","trial_index":27,"time_elapsed":1363238,"internal_node_id":"0.0-2.0-25.0"},{"group":"hexagon_tri","room_assignment":["purple","red","yellow","green","grey","blue"],"door_color_assignment":["black","white"],"door_generator_assignment":[1,0],"goal":2,"start":5,"action_noise":0.15,"location_history":"[5,0,5,4,0,1,5,0,5,4,2]","action_history":"[0,0,0,0,0,0,0,0,0,0]","door_history":"[1,1,1,1,1,1,1,1,1,1]","location_rts":"[387,330,542,326,380,354,374,531,413,796]","trial_type":"two-door-navigation","trial_index":28,"time_elapsed":1381219,"internal_node_id":"0.0-2.0-26.0"},{"group":"hexagon_tri","room_assignment":["purple","red","yellow","green","grey","blue"],"door_color_assignment":["black","white"],"door_generator_assignment":[1,0],"goal":3,"start":2,"action_noise":0.15,"location_history":"[2,1,5,4,0,5,4,0,5,4,0,5,4,0,1,3]","action_history":"[1,1,0,0,0,0,0,0,0,0,0,0,0,1,1]","door_history":"[0,0,1,1,1,1,1,1,1,1,1,1,1,0,0]","location_rts":"[1382,878,744,548,201,213,194,285,281,568,328,610,379,628,466]","trial_type":"two-door-navigation","trial_index":29,"time_elapsed":1407531,"internal_node_id":"0.0-2.0-27.0"},{"group":"hexagon_tri","room_assignment":["purple","red","yellow","green","grey","blue"],"door_color_assignment":["black","white"],"door_generator_assignment":[1,0],"goal":0,"start":3,"action_noise":0.15,"location_history":"[3,4,2,3,4,2,3,4,0]","action_history":"[1,1,1,1,1,1,1,0]","door_history":"[0,0,0,0,0,0,0,1]","location_rts":"[211637,418,431,654,591,827,561,492]","trial_type":"two-door-navigation","trial_index":30,"time_elapsed":1634735,"internal_node_id":"0.0-2.0-28.0"},{"group":"hexagon_tri","room_assignment":["purple","red","yellow","green","grey","blue"],"door_color_assignment":["black","white"],"door_generator_assignment":[1,0],"goal":1,"start":0,"action_noise":0.15,"location_history":"[0,1]","action_history":"[1]","door_history":"[0]","location_rts":"[18065]","trial_type":"two-door-navigation","trial_index":31,"time_elapsed":1657307,"internal_node_id":"0.0-2.0-29.0"},{"group":"hexagon_tri","room_assignment":["purple","red","yellow","green","grey","blue"],"door_color_assignment":["black","white"],"door_generator_assignment":[1,0],"goal":4,"start":1,"action_noise":0.15,"location_history":"[1,5,0,1,5,4]","action_history":"[1,1,1,0,0]","door_history":"[0,0,0,1,1]","location_rts":"[18072,485,388,874,321]","trial_type":"two-door-navigation","trial_index":32,"time_elapsed":1685972,"internal_node_id":"0.0-2.0-30.0"},{"group":"hexagon_tri","room_assignment":["purple","red","yellow","green","grey","blue"],"door_color_assignment":["black","white"],"door_generator_assignment":[1,0],"goal":5,"start":4,"action_noise":0.15,"location_history":"[4,2,3,4,2,1,3,2,1,5]","action_history":"[1,1,1,1,0,0,0,0,0]","door_history":"[0,0,0,0,1,1,1,1,1]","location_rts":"[7288,352,233,360,315,357,314,233,560]","trial_type":"two-door-navigation","trial_index":33,"time_elapsed":1708563,"internal_node_id":"0.0-2.0-31.0"},{"group":"hexagon_tri","room_assignment":["purple","red","yellow","green","grey","blue"],"door_color_assignment":["black","white"],"door_generator_assignment":[1,0],"goal":0,"start":5,"action_noise":0.15,"location_history":"[5,0]","action_history":"[1]","door_history":"[0]","location_rts":"[12565]","trial_type":"two-door-navigation","trial_index":34,"time_elapsed":1725640,"internal_node_id":"0.0-2.0-32.0"},{"group":"hexagon_tri","room_assignment":["purple","red","yellow","green","grey","blue"],"door_color_assignment":["black","white"],"door_generator_assignment":[1,0],"goal":3,"start":0,"action_noise":0.15,"location_history":"[0,5,4,2,3]","action_history":"[0,0,1,1]","door_history":"[1,1,0,0]","location_rts":"[5893,598,868,1522]","trial_type":"two-door-navigation","trial_index":35,"time_elapsed":1742043,"internal_node_id":"0.0-2.0-33.0"},{"group":"hexagon_tri","room_assignment":["purple","red","yellow","green","grey","blue"],"door_color_assignment":["black","white"],"door_generator_assignment":[1,0],"goal":1,"start":3,"action_noise":0.15,"location_history":"[3,2,1]","action_history":"[0,0]","door_history":"[1,1]","location_rts":"[1412,412]","trial_type":"two-door-navigation","trial_index":36,"time_elapsed":1749382,"internal_node_id":"0.0-2.0-34.0"},{"group":"hexagon_tri","room_assignment":["purple","red","yellow","green","grey","blue"],"door_color_assignment":["black","white"],"door_generator_assignment":[1,0],"goal":2,"start":1,"action_noise":0.15,"location_history":"[1,3,2]","action_history":"[0,0]","door_history":"[1,1]","location_rts":"[5304,485]","trial_type":"two-door-navigation","trial_index":37,"time_elapsed":1760684,"internal_node_id":"0.0-2.0-35.0"},{"group":"hexagon_tri","room_assignment":["purple","red","yellow","green","grey","blue"],"door_color_assignment":["black","white"],"door_generator_assignment":[1,0],"goal":4,"start":2,"action_noise":0.15,"location_history":"[2,1,5,4]","action_history":"[1,1,1]","door_history":"[0,0,0]","location_rts":"[1573,468,711]","trial_type":"two-door-navigation","trial_index":38,"time_elapsed":1769959,"internal_node_id":"0.0-2.0-36.0"},{"group":"hexagon_tri","room_assignment":["purple","red","yellow","green","grey","blue"],"door_color_assignment":["black","white"],"door_generator_assignment":[1,0],"goal":5,"start":4,"action_noise":0.15,"location_history":"[4,0,5]","action_history":"[0,0]","door_history":"[1,1]","location_rts":"[5185,2315]","trial_type":"two-door-navigation","trial_index":39,"time_elapsed":1782975,"internal_node_id":"0.0-2.0-37.0"},{"group":"hexagon_tri","room_assignment":["purple","red","yellow","green","grey","blue"],"door_color_assignment":["black","white"],"door_generator_assignment":[1,0],"goal":1,"start":5,"action_noise":0.15,"location_history":"[5,4,0,1]","action_history":"[0,0,1]","door_history":"[1,1,0]","location_rts":"[1400,473,911]","trial_type":"two-door-navigation","trial_index":40,"time_elapsed":1792282,"internal_node_id":"0.0-2.0-38.0"},{"group":"hexagon_tri","room_assignment":["purple","red","yellow","green","grey","blue"],"door_color_assignment":["black","white"],"door_generator_assignment":[1,0],"goal":4,"start":1,"action_noise":0.15,"location_history":"[1,3,2,3,2,1,5,0,5,4]","action_history":"[0,0,1,1,1,1,1,0,0]","door_history":"[1,1,0,0,0,0,0,1,1]","location_rts":"[5404,477,293,450,367,347,350,459,432]","trial_type":"two-door-navigation","trial_index":41,"time_elapsed":1813426,"internal_node_id":"0.0-2.0-39.0"},{"group":"hexagon_tri","room_assignment":["purple","red","yellow","green","grey","blue"],"door_color_assignment":["black","white"],"door_generator_assignment":[1,0],"goal":3,"start":4,"action_noise":0.15,"location_history":"[4,2,3]","action_history":"[1,1]","door_history":"[0,0]","location_rts":"[12977,661]","trial_type":"two-door-navigation","trial_index":42,"time_elapsed":1832582,"internal_node_id":"0.0-2.0-40.0"},{"group":"hexagon_tri","room_assignment":["purple","red","yellow","green","grey","blue"],"door_color_assignment":["black","white"],"door_generator_assignment":[1,0],"goal":2,"start":3,"action_noise":0.15,"location_history":"[3,2]","action_history":"[0]","door_history":"[1]","location_rts":"[13546]","trial_type":"two-door-navigation","trial_index":43,"time_elapsed":1850637,"internal_node_id":"0.0-2.0-41.0"},{"group":"hexagon_tri","room_assignment":["purple","red","yellow","green","grey","blue"],"door_color_assignment":["black","white"],"door_generator_assignment":[1,0],"goal":0,"start":2,"action_noise":0.15,"location_history":"[2,1,5,0]","action_history":"[0,1,1]","door_history":"[1,0,0]","location_rts":"[1042,7908,418]","trial_type":"two-door-navigation","trial_index":44,"time_elapsed":1866529,"internal_node_id":"0.0-2.0-42.0"},{"group":"hexagon_tri","room_assignment":["purple","red","yellow","green","grey","blue"],"door_color_assignment":["black","white"],"door_generator_assignment":[1,0],"goal":5,"start":0,"action_noise":0.15,"location_history":"[0,1,3,2,3,2,3,4,2,3,4,2,1,3,2,1,3,4,0,5]","action_history":"[0,0,0,0,0,1,1,1,1,1,1,0,0,0,0,0,1,0,0]","door_history":"[1,1,1,1,1,0,0,0,0,0,0,1,1,1,1,1,0,1,1]","location_rts":"[17410,584,307,399,1628,9478,405,365,308,1930,3403,1266,1010,291,315,529,374,624,322]","trial_type":"two-door-navigation","trial_index":45,"time_elapsed":1930118,"internal_node_id":"0.0-2.0-43.0"},{"group":"hexagon_tri","room_assignment":["purple","red","yellow","green","grey","blue"],"door_color_assignment":["black","white"],"door_generator_assignment":[1,0],"goal":0,"start":5,"action_noise":0.15,"location_history":"[5,4,0]","action_history":"[0,0]","door_history":"[1,1]","location_rts":"[6995,412]","trial_type":"two-door-navigation","trial_index":46,"time_elapsed":1943038,"internal_node_id":"0.0-2.0-44.0"},{"group":"hexagon_tri","room_assignment":["purple","red","yellow","green","grey","blue"],"door_color_assignment":["black","white"],"door_generator_assignment":[1,0],"goal":2,"start":0,"action_noise":0.15,"location_history":"[0,1,5,4,0,5,0,5,4,2]","action_history":"[0,0,0,0,0,0,0,0,1]","door_history":"[1,1,1,1,1,1,1,1,0]","location_rts":"[405,1004,376,620,308,308,1492,538,344]","trial_type":"two-door-navigation","trial_index":47,"time_elapsed":1960978,"internal_node_id":"0.0-2.0-45.0"},{"group":"hexagon_tri","room_assignment":["purple","red","yellow","green","grey","blue"],"door_color_assignment":["black","white"],"door_generator_assignment":[1,0],"goal":4,"start":2,"action_noise":0.15,"location_history":"[2,3,4]","action_history":"[1,1]","door_history":"[0,0]","location_rts":"[1471,395]","trial_type":"two-door-navigation","trial_index":48,"time_elapsed":1968367,"internal_node_id":"0.0-2.0-46.0"},{"group":"hexagon_tri","room_assignment":["purple","red","yellow","green","grey","blue"],"door_color_assignment":["black","white"],"door_generator_assignment":[1,0],"goal":1,"start":4,"action_noise":0.15,"location_history":"[4,2,3,4,0,1]","action_history":"[1,1,1,0,1]","door_history":"[0,0,0,1,0]","location_rts":"[3385,1422,347,879,1103]","trial_type":"two-door-navigation","trial_index":49,"time_elapsed":1984037,"internal_node_id":"0.0-2.0-47.0"},{"group":"hexagon_tri","room_assignment":["purple","red","yellow","green","grey","blue"],"door_color_assignment":["black","white"],"door_generator_assignment":[1,0],"goal":5,"start":1,"action_noise":0.15,"location_history":"[1,3,4,0,1,5]","action_history":"[0,1,1,1,1]","door_history":"[1,0,0,0,0]","location_rts":"[7320,351,479,626,378]","trial_type":"two-door-navigation","trial_index":50,"time_elapsed":2001721,"internal_node_id":"0.0-2.0-48.0"},{"group":"hexagon_tri","room_assignment":["purple","red","yellow","green","grey","blue"],"door_color_assignment":["black","white"],"door_generator_assignment":[1,0],"goal":3,"start":5,"action_noise":0.15,"location_history":"[5,0,5,4,0,1,5,4,2,3]","action_history":"[1,0,0,0,1,1,0,1,1]","door_history":"[0,1,1,1,0,0,1,0,0]","location_rts":"[1357,11207,439,2204,793,380,857,425,156]","trial_type":"two-door-navigation","trial_index":51,"time_elapsed":2032120,"internal_node_id":"0.0-2.0-49.0"},{"view_history":"[{\"page_index\":0,\"viewing_time\":3453}]","rt":3454,"trial_type":"instructions","trial_index":52,"time_elapsed":2036576,"internal_node_id":"0.0-3.0"},{"view_history":"[{\"page_index\":0,\"viewing_time\":3646},{\"page_index\":1,\"viewing_time\":3784}]","rt":7431,"trial_type":"instructions","trial_index":53,"time_elapsed":2045008,"internal_node_id":"0.0-4.0"},{"group":"hexagon_bi","fractal_assignment":["../images/pnk_blu.png","../images/org_blu.png","../images/cyn_red.png","../images/blu_wht.png","../images/gry_blk.png","../images/ylw_slt.png"],"mutagen_generator_assignment":[0,1],"goal":3,"start":5,"action_noise":0.15,"location_history":"[5,0,5,0,5,4,3]","action_history":"[0,0,0,0,1,0]","mutagen_history":"[0,0,0,0,1,0]","location_rts":"[5740,690,567,579,1396,587]","trial_type":"fractal-mutation","trial_index":54,"time_elapsed":2064220,"internal_node_id":"0.0-5.0-0.0"},{"group":"hexagon_bi","fractal_assignment":["../images/pnk_blu.png","../images/org_blu.png","../images/cyn_red.png","../images/blu_wht.png","../images/gry_blk.png","../images/ylw_slt.png"],"mutagen_generator_assignment":[0,1],"goal":1,"start":3,"action_noise":0.15,"location_history":"[3,2,1]","action_history":"[1,1]","mutagen_history":"[1,1]","location_rts":"[1276,509]","trial_type":"fractal-mutation","trial_index":55,"time_elapsed":2071589,"internal_node_id":"0.0-5.0-1.0"},{"group":"hexagon_bi","fractal_assignment":["../images/pnk_blu.png","../images/org_blu.png","../images/cyn_red.png","../images/blu_wht.png","../images/gry_blk.png","../images/ylw_slt.png"],"mutagen_generator_assignment":[0,1],"goal":0,"start":1,"action_noise":0.15,"location_history":"[1,2,3,2,3,4,3,4,3,4,3,4,5,4,5,0]","action_history":"[1,1,1,1,0,0,0,1,0,0,0,1,1,1,0]","mutagen_history":"[1,1,1,1,0,0,0,1,0,0,0,1,1,1,0]","location_rts":"[1452,608,499,493,710,490,628,928,1003,585,1116,982,128,1020,593]","trial_type":"fractal-mutation","trial_index":56,"time_elapsed":2101715,"internal_node_id":"0.0-5.0-2.0"},{"group":"hexagon_bi","fractal_assignment":["../images/pnk_blu.png","../images/org_blu.png","../images/cyn_red.png","../images/blu_wht.png","../images/gry_blk.png","../images/ylw_slt.png"],"mutagen_generator_assignment":[0,1],"goal":3,"start":0,"action_noise":0.15,"location_history":"[0,5,0,5,0,5,0,1,0,5,0,5,4,3]","action_history":"[0,0,0,0,0,0,1,1,0,0,0,1,1]","mutagen_history":"[0,0,0,0,0,0,1,1,0,0,0,1,1]","location_rts":"[1414,429,686,755,903,415,846,360,1185,342,683,285,361]","trial_type":"fractal-mutation","trial_index":57,"time_elapsed":2127174,"internal_node_id":"0.0-5.0-3.0"},{"group":"hexagon_bi","fractal_assignment":["../images/pnk_blu.png","../images/org_blu.png","../images/cyn_red.png","../images/blu_wht.png","../images/gry_blk.png","../images/ylw_slt.png"],"mutagen_generator_assignment":[0,1],"goal":4,"start":3,"action_noise":0.15,"location_history":"[3,4]","action_history":"[0]","mutagen_history":"[0]","location_rts":"[11687]","trial_type":"fractal-mutation","trial_index":58,"time_elapsed":2143375,"internal_node_id":"0.0-5.0-4.0"},{"group":"hexagon_bi","fractal_assignment":["../images/pnk_blu.png","../images/org_blu.png","../images/cyn_red.png","../images/blu_wht.png","../images/gry_blk.png","../images/ylw_slt.png"],"mutagen_generator_assignment":[0,1],"goal":2,"start":4,"action_noise":0.15,"location_history":"[4,3,4,5,4,3,2]","action_history":"[0,0,1,1,1,1]","mutagen_history":"[0,0,1,1,1,1]","location_rts":"[1051,552,1407,495,522,506]","trial_type":"fractal-mutation","trial_index":59,"time_elapsed":2157598,"internal_node_id":"0.0-5.0-5.0"},{"group":"hexagon_bi","fractal_assignment":["../images/pnk_blu.png","../images/org_blu.png","../images/cyn_red.png","../images/blu_wht.png","../images/gry_blk.png","../images/ylw_slt.png"],"mutagen_generator_assignment":[0,1],"goal":1,"start":2,"action_noise":0.15,"location_history":"[2,1]","action_history":"[0]","mutagen_history":"[0]","location_rts":"[1154]","trial_type":"fractal-mutation","trial_index":60,"time_elapsed":2163282,"internal_node_id":"0.0-5.0-6.0"},{"group":"hexagon_bi","fractal_assignment":["../images/pnk_blu.png","../images/org_blu.png","../images/cyn_red.png","../images/blu_wht.png","../images/gry_blk.png","../images/ylw_slt.png"],"mutagen_generator_assignment":[0,1],"goal":5,"start":1,"action_noise":0.15,"location_history":"[1,2,1,0,5]","action_history":"[0,0,1,0]","mutagen_history":"[0,0,1,0]","location_rts":"[1651,713,721,986]","trial_type":"fractal-mutation","trial_index":61,"time_elapsed":2174906,"internal_node_id":"0.0-5.0-7.0"},{"group":"hexagon_bi","fractal_assignment":["../images/pnk_blu.png","../images/org_blu.png","../images/cyn_red.png","../images/blu_wht.png","../images/gry_blk.png","../images/ylw_slt.png"],"mutagen_generator_assignment":[0,1],"goal":4,"start":5,"action_noise":0.15,"location_history":"[5,0,5,4]","action_history":"[0,0,1]","mutagen_history":"[0,0,1]","location_rts":"[1427,685,816]","trial_type":"fractal-mutation","trial_index":62,"time_elapsed":2184407,"internal_node_id":"0.0-5.0-8.0"},{"group":"hexagon_bi","fractal_assignment":["../images/pnk_blu.png","../images/org_blu.png","../images/cyn_red.png","../images/blu_wht.png","../images/gry_blk.png","../images/ylw_slt.png"],"mutagen_generator_assignment":[0,1],"goal":2,"start":4,"action_noise":0.15,"location_history":"[4,5,0,1,0,5,0,5,4,5,4,5,0,5,4,3,4,3,2]","action_history":"[1,1,1,0,0,0,0,1,1,1,1,1,1,1,0,0,0,1]","mutagen_history":"[1,1,1,0,0,0,0,1,1,1,1,1,1,1,0,0,0,1]","location_rts":"[1211,525,599,673,595,545,576,825,1011,914,804,437,524,433,614,465,757,906]","trial_type":"fractal-mutation","trial_index":63,"time_elapsed":2218708,"internal_node_id":"0.0-5.0-9.0"},{"group":"hexagon_bi","fractal_assignment":["../images/pnk_blu.png","../images/org_blu.png","../images/cyn_red.png","../images/blu_wht.png","../images/gry_blk.png","../images/ylw_slt.png"],"mutagen_generator_assignment":[0,1],"goal":0,"start":2,"action_noise":0.15,"location_history":"[2,3,2,1,2,1,0]","action_history":"[1,1,0,0,0,1]","mutagen_history":"[1,1,0,0,0,1]","location_rts":"[3685,736,458,1267,835,577]","trial_type":"fractal-mutation","trial_index":64,"time_elapsed":2235909,"internal_node_id":"0.0-5.0-10.0"},{"group":"hexagon_bi","fractal_assignment":["../images/pnk_blu.png","../images/org_blu.png","../images/cyn_red.png","../images/blu_wht.png","../images/gry_blk.png","../images/ylw_slt.png"],"mutagen_generator_assignment":[0,1],"goal":1,"start":0,"action_noise":0.15,"location_history":"[0,5,4,3,4,3,4,3,4,5,0,1]","action_history":"[0,1,0,0,0,0,0,0,1,0,1]","mutagen_history":"[0,1,0,0,0,0,0,0,1,0,1]","location_rts":"[1300,645,596,495,553,489,486,539,820,1343,835]","trial_type":"fractal-mutation","trial_index":65,"time_elapsed":2258774,"internal_node_id":"0.0-5.0-11.0"},{"group":"hexagon_bi","fractal_assignment":["../images/pnk_blu.png","../images/org_blu.png","../images/cyn_red.png","../images/blu_wht.png","../images/gry_blk.png","../images/ylw_slt.png"],"mutagen_generator_assignment":[0,1],"goal":3,"start":1,"action_noise":0.15,"location_history":"[1,0,5,0,1,2,3]","action_history":"[0,0,0,1,1,1]","mutagen_history":"[0,0,0,1,1,1]","location_rts":"[6069,439,538,744,485,604]","trial_type":"fractal-mutation","trial_index":66,"time_elapsed":2277305,"internal_node_id":"0.0-5.0-12.0"},{"group":"hexagon_bi","fractal_assignment":["../images/pnk_blu.png","../images/org_blu.png","../images/cyn_red.png","../images/blu_wht.png","../images/gry_blk.png","../images/ylw_slt.png"],"mutagen_generator_assignment":[0,1],"goal":5,"start":3,"action_noise":0.15,"location_history":"[3,4,5]","action_history":"[1,1]","mutagen_history":"[1,1]","location_rts":"[1732,1195]","trial_type":"fractal-mutation","trial_index":67,"time_elapsed":2285806,"internal_node_id":"0.0-5.0-13.0"},{"group":"hexagon_bi","fractal_assignment":["../images/pnk_blu.png","../images/org_blu.png","../images/cyn_red.png","../images/blu_wht.png","../images/gry_blk.png","../images/ylw_slt.png"],"mutagen_generator_assignment":[0,1],"goal":4,"start":5,"action_noise":0.15,"location_history":"[5,4]","action_history":"[1]","mutagen_history":"[1]","location_rts":"[1264]","trial_type":"fractal-mutation","trial_index":68,"time_elapsed":2291593,"internal_node_id":"0.0-5.0-14.0"},{"group":"hexagon_bi","fractal_assignment":["../images/pnk_blu.png","../images/org_blu.png","../images/cyn_red.png","../images/blu_wht.png","../images/gry_blk.png","../images/ylw_slt.png"],"mutagen_generator_assignment":[0,1],"goal":0,"start":4,"action_noise":0.15,"location_history":"[4,3,4,3,4,3,4,5,0]","action_history":"[0,0,0,0,0,0,1,1]","mutagen_history":"[0,0,0,0,0,0,1,1]","location_rts":"[1430,563,830,603,800,1476,529,819]","trial_type":"fractal-mutation","trial_index":69,"time_elapsed":2310312,"internal_node_id":"0.0-5.0-15.0"},{"group":"hexagon_bi","fractal_assignment":["../images/pnk_blu.png","../images/org_blu.png","../images/cyn_red.png","../images/blu_wht.png","../images/gry_blk.png","../images/ylw_slt.png"],"mutagen_generator_assignment":[0,1],"goal":3,"start":0,"action_noise":0.15,"location_history":"[0,1,0,1,2,1,2,3]","action_history":"[1,1,0,0,0,0,1]","mutagen_history":"[1,1,0,0,0,0,1]","location_rts":"[1879,466,853,474,428,508,418]","trial_type":"fractal-mutation","trial_index":70,"time_elapsed":2325979,"internal_node_id":"0.0-5.0-16.0"},{"group":"hexagon_bi","fractal_assignment":["../images/pnk_blu.png","../images/org_blu.png","../images/cyn_red.png","../images/blu_wht.png","../images/gry_blk.png","../images/ylw_slt.png"],"mutagen_generator_assignment":[0,1],"goal":1,"start":3,"action_noise":0.15,"location_history":"[3,4,3,4,5,0,1]","action_history":"[0,0,0,0,0,1]","mutagen_history":"[0,0,0,0,0,1]","location_rts":"[958,385,564,459,520,548]","trial_type":"fractal-mutation","trial_index":71,"time_elapsed":2339030,"internal_node_id":"0.0-5.0-17.0"},{"group":"hexagon_bi","fractal_assignment":["../images/pnk_blu.png","../images/org_blu.png","../images/cyn_red.png","../images/blu_wht.png","../images/gry_blk.png","../images/ylw_slt.png"],"mutagen_generator_assignment":[0,1],"goal":5,"start":1,"action_noise":0.15,"location_history":"[1,2,1,0,5]","action_history":"[0,0,1,0]","mutagen_history":"[0,0,1,0]","location_rts":"[1282,667,467,772]","trial_type":"fractal-mutation","trial_index":72,"time_elapsed":2349797,"internal_node_id":"0.0-5.0-18.0"},{"group":"hexagon_bi","fractal_assignment":["../images/pnk_blu.png","../images/org_blu.png","../images/cyn_red.png","../images/blu_wht.png","../images/gry_blk.png","../images/ylw_slt.png"],"mutagen_generator_assignment":[0,1],"goal":2,"start":5,"action_noise":0.15,"location_history":"[5,0,5,0,5,4,5,0,5,4,5,0,5,4,5,4,5,4,5,4,5,4,3,4,3,2]","action_history":"[0,0,1,0,0,1,0,0,0,0,0,0,0,1,1,1,1,1,1,1,1,0,0,0,1]","mutagen_history":"[0,0,1,0,0,1,0,0,0,0,0,0,0,1,1,1,1,1,1,1,1,0,0,0,1]","location_rts":"[1644,1123,1234,1097,614,686,799,527,338,429,508,476,429,1505,1126,515,415,429,260,345,370,498,587,952,603]","trial_type":"fractal-mutation","trial_index":73,"time_elapsed":2396405,"internal_node_id":"0.0-5.0-19.0"},{"group":"hexagon_bi","fractal_assignment":["../images/pnk_blu.png","../images/org_blu.png","../images/cyn_red.png","../images/blu_wht.png","../images/gry_blk.png","../images/ylw_slt.png"],"mutagen_generator_assignment":[0,1],"goal":4,"start":2,"action_noise":0.15,"location_history":"[2,3,2,3,4]","action_history":"[1,1,1,0]","mutagen_history":"[1,1,1,0]","location_rts":"[1240,595,716,711]","trial_type":"fractal-mutation","trial_index":74,"time_elapsed":2407255,"internal_node_id":"0.0-5.0-20.0"},{"group":"hexagon_bi","fractal_assignment":["../images/pnk_blu.png","../images/org_blu.png","../images/cyn_red.png","../images/blu_wht.png","../images/gry_blk.png","../images/ylw_slt.png"],"mutagen_generator_assignment":[0,1],"goal":1,"start":4,"action_noise":0.15,"location_history":"[4,3,4,3,4,5,0,5,4,5,4,5,0,5,0,5,4,3,2,1]","action_history":"[0,0,0,1,1,0,0,0,1,1,1,0,0,0,0,0,0,1,1]","mutagen_history":"[0,0,0,1,1,0,0,0,1,1,1,0,0,0,0,0,0,1,1]","location_rts":"[3987,601,565,550,533,2010,1032,795,873,1106,919,527,539,470,403,461,1148,508,528]","trial_type":"fractal-mutation","trial_index":75,"time_elapsed":2447717,"internal_node_id":"0.0-5.0-21.0"},{"group":"hexagon_bi","fractal_assignment":["../images/pnk_blu.png","../images/org_blu.png","../images/cyn_red.png","../images/blu_wht.png","../images/gry_blk.png","../images/ylw_slt.png"],"mutagen_generator_assignment":[0,1],"goal":3,"start":1,"action_noise":0.15,"location_history":"[1,0,1,0,1,0,1,0,5,0,5,0,5,0,1,0,5,4,3]","action_history":"[1,1,1,1,1,1,1,0,0,0,0,0,0,1,0,0,0,0]","mutagen_history":"[1,1,1,1,1,1,1,0,0,0,0,0,0,1,0,0,0,0]","location_rts":"[1081,514,1034,906,1389,810,1196,666,511,599,557,542,1169,455,4405,636,566,580]","trial_type":"fractal-mutation","trial_index":76,"time_elapsed":2487205,"internal_node_id":"0.0-5.0-22.0"},{"group":"hexagon_bi","fractal_assignment":["../images/pnk_blu.png","../images/org_blu.png","../images/cyn_red.png","../images/blu_wht.png","../images/gry_blk.png","../images/ylw_slt.png"],"mutagen_generator_assignment":[0,1],"goal":2,"start":3,"action_noise":0.15,"location_history":"[3,2]","action_history":"[1]","mutagen_history":"[1]","location_rts":"[1441]","trial_type":"fractal-mutation","trial_index":77,"time_elapsed":2493158,"internal_node_id":"0.0-5.0-23.0"},{"group":"hexagon_bi","fractal_assignment":["../images/pnk_blu.png","../images/org_blu.png","../images/cyn_red.png","../images/blu_wht.png","../images/gry_blk.png","../images/ylw_slt.png"],"mutagen_generator_assignment":[0,1],"goal":0,"start":2,"action_noise":0.15,"location_history":"[2,3,2,3,4,3,4,5,4,5,0]","action_history":"[1,1,0,0,0,0,1,1,1,0]","mutagen_history":"[1,1,0,0,0,0,1,1,1,0]","location_rts":"[1819,744,869,526,549,892,595,1230,805,369]","trial_type":"fractal-mutation","trial_index":78,"time_elapsed":2515269,"internal_node_id":"0.0-5.0-24.0"},{"group":"hexagon_bi","fractal_assignment":["../images/pnk_blu.png","../images/org_blu.png","../images/cyn_red.png","../images/blu_wht.png","../images/gry_blk.png","../images/ylw_slt.png"],"mutagen_generator_assignment":[0,1],"goal":5,"start":0,"action_noise":0.15,"location_history":"[0,5]","action_history":"[0]","mutagen_history":"[0]","location_rts":"[1231]","trial_type":"fractal-mutation","trial_index":79,"time_elapsed":2521025,"internal_node_id":"0.0-5.0-25.0"},{"group":"hexagon_bi","fractal_assignment":["../images/pnk_blu.png","../images/org_blu.png","../images/cyn_red.png","../images/blu_wht.png","../images/gry_blk.png","../images/ylw_slt.png"],"mutagen_generator_assignment":[0,1],"goal":2,"start":5,"action_noise":0.15,"location_history":"[5,4,5,4,3,4,5,0,5,0,5,4,5,4,5,4,5,0,1,0,1,2]","action_history":"[1,1,1,0,0,1,0,0,0,0,1,1,1,1,1,1,1,1,1,1,0]","mutagen_history":"[1,1,1,0,0,1,0,0,0,0,1,1,1,1,1,1,1,1,1,1,0]","location_rts":"[2834,645,2115,852,1337,609,963,773,634,708,569,792,500,372,172,88,870,794,1067,624,752]","trial_type":"fractal-mutation","trial_index":80,"time_elapsed":2564102,"internal_node_id":"0.0-5.0-26.0"},{"group":"hexagon_bi","fractal_assignment":["../images/pnk_blu.png","../images/org_blu.png","../images/cyn_red.png","../images/blu_wht.png","../images/gry_blk.png","../images/ylw_slt.png"],"mutagen_generator_assignment":[0,1],"goal":3,"start":2,"action_noise":0.15,"location_history":"[2,3]","action_history":"[1]","mutagen_history":"[1]","location_rts":"[1945]","trial_type":"fractal-mutation","trial_index":81,"time_elapsed":2570578,"internal_node_id":"0.0-5.0-27.0"},{"group":"hexagon_bi","fractal_assignment":["../images/pnk_blu.png","../images/org_blu.png","../images/cyn_red.png","../images/blu_wht.png","../images/gry_blk.png","../images/ylw_slt.png"],"mutagen_generator_assignment":[0,1],"goal":0,"start":3,"action_noise":0.15,"location_history":"[3,2,3,2,1,2,1,2,1,0]","action_history":"[1,1,1,0,0,0,0,0,1]","mutagen_history":"[1,1,1,0,0,0,0,0,1]","location_rts":"[1270,700,749,1197,564,676,530,850,272]","trial_type":"fractal-mutation","trial_index":82,"time_elapsed":2590051,"internal_node_id":"0.0-5.0-28.0"},{"group":"hexagon_bi","fractal_assignment":["../images/pnk_blu.png","../images/org_blu.png","../images/cyn_red.png","../images/blu_wht.png","../images/gry_blk.png","../images/ylw_slt.png"],"mutagen_generator_assignment":[0,1],"goal":1,"start":0,"action_noise":0.15,"location_history":"[0,1]","action_history":"[1]","mutagen_history":"[1]","location_rts":"[1628]","trial_type":"fractal-mutation","trial_index":83,"time_elapsed":2596222,"internal_node_id":"0.0-5.0-29.0"},{"group":"hexagon_bi","fractal_assignment":["../images/pnk_blu.png","../images/org_blu.png","../images/cyn_red.png","../images/blu_wht.png","../images/gry_blk.png","../images/ylw_slt.png"],"mutagen_generator_assignment":[0,1],"goal":4,"start":1,"action_noise":0.15,"location_history":"[1,0,1,0,1,2,3,2,3,4]","action_history":"[1,1,1,1,0,1,1,0,0]","mutagen_history":"[1,1,1,1,0,1,1,0,0]","location_rts":"[1642,568,760,612,271,1661,655,546,783]","trial_type":"fractal-mutation","trial_index":84,"time_elapsed":2616439,"internal_node_id":"0.0-5.0-30.0"},{"group":"hexagon_bi","fractal_assignment":["../images/pnk_blu.png","../images/org_blu.png","../images/cyn_red.png","../images/blu_wht.png","../images/gry_blk.png","../images/ylw_slt.png"],"mutagen_generator_assignment":[0,1],"goal":5,"start":4,"action_noise":0.15,"location_history":"[4,3,4,5]","action_history":"[0,0,0]","mutagen_history":"[0,0,0]","location_rts":"[22351,503,815]","trial_type":"fractal-mutation","trial_index":85,"time_elapsed":2646652,"internal_node_id":"0.0-5.0-31.0"},{"group":"hexagon_bi","fractal_assignment":["../images/pnk_blu.png","../images/org_blu.png","../images/cyn_red.png","../images/blu_wht.png","../images/gry_blk.png","../images/ylw_slt.png"],"mutagen_generator_assignment":[0,1],"goal":0,"start":5,"action_noise":0.15,"location_history":"[5,4,3,4,3,4,3,4,5,0]","action_history":"[1,0,0,0,0,0,0,1,0]","mutagen_history":"[1,0,0,0,0,0,0,1,0]","location_rts":"[972,1479,974,705,766,568,628,284,1250]","trial_type":"fractal-mutation","trial_index":86,"time_elapsed":2666954,"internal_node_id":"0.0-5.0-32.0"},{"group":"hexagon_bi","fractal_assignment":["../images/pnk_blu.png","../images/org_blu.png","../images/cyn_red.png","../images/blu_wht.png","../images/gry_blk.png","../images/ylw_slt.png"],"mutagen_generator_assignment":[0,1],"goal":3,"start":0,"action_noise":0.15,"location_history":"[0,1,0,1,2,1,2,3]","action_history":"[1,1,1,0,0,0,1]","mutagen_history":"[1,1,1,0,0,0,1]","location_rts":"[1422,456,732,497,1067,813,340]","trial_type":"fractal-mutation","trial_index":87,"time_elapsed":2682938,"internal_node_id":"0.0-5.0-33.0"},{"group":"hexagon_bi","fractal_assignment":["../images/pnk_blu.png","../images/org_blu.png","../images/cyn_red.png","../images/blu_wht.png","../images/gry_blk.png","../images/ylw_slt.png"],"mutagen_generator_assignment":[0,1],"goal":1,"start":3,"action_noise":0.15,"location_history":"[3,4,3,4,3,2,3,4,3,2,3,4,3,4,3,2,1]","action_history":"[0,0,0,0,1,1,1,1,1,0,0,0,0,1,1,1]","mutagen_history":"[0,0,0,0,1,1,1,1,1,0,0,0,0,1,1,1]","location_rts":"[3403,425,1129,918,1118,446,556,269,446,324,485,513,640,282,620,135]","trial_type":"fractal-mutation","trial_index":88,"time_elapsed":2714524,"internal_node_id":"0.0-5.0-34.0"},{"group":"hexagon_bi","fractal_assignment":["../images/pnk_blu.png","../images/org_blu.png","../images/cyn_red.png","../images/blu_wht.png","../images/gry_blk.png","../images/ylw_slt.png"],"mutagen_generator_assignment":[0,1],"goal":2,"start":1,"action_noise":0.15,"location_history":"[1,0,5,0,5,4,5,4,5,0,1,2]","action_history":"[0,0,0,1,1,1,1,1,1,1,0]","mutagen_history":"[0,0,0,1,1,1,1,1,1,1,0]","location_rts":"[2460,411,478,387,184,821,241,8,479,166,144]","trial_type":"fractal-mutation","trial_index":89,"time_elapsed":2735039,"internal_node_id":"0.0-5.0-35.0"},{"group":"hexagon_bi","fractal_assignment":["../images/pnk_blu.png","../images/org_blu.png","../images/cyn_red.png","../images/blu_wht.png","../images/gry_blk.png","../images/ylw_slt.png"],"mutagen_generator_assignment":[0,1],"goal":4,"start":2,"action_noise":0.15,"location_history":"[2,3,2,3,2,3,2,3,2,1,2,3,4]","action_history":"[1,1,1,1,1,1,0,0,0,0,1,1]","mutagen_history":"[1,1,1,1,1,1,0,0,0,0,1,1]","location_rts":"[896,462,378,720,437,929,349,450,362,411,277,224]","trial_type":"fractal-mutation","trial_index":90,"time_elapsed":2756722,"internal_node_id":"0.0-5.0-36.0"},{"group":"hexagon_bi","fractal_assignment":["../images/pnk_blu.png","../images/org_blu.png","../images/cyn_red.png","../images/blu_wht.png","../images/gry_blk.png","../images/ylw_slt.png"],"mutagen_generator_assignment":[0,1],"goal":5,"start":4,"action_noise":0.15,"location_history":"[4,5]","action_history":"[1]","mutagen_history":"[1]","location_rts":"[1701]","trial_type":"fractal-mutation","trial_index":91,"time_elapsed":2762949,"internal_node_id":"0.0-5.0-37.0"},{"group":"hexagon_bi","fractal_assignment":["../images/pnk_blu.png","../images/org_blu.png","../images/cyn_red.png","../images/blu_wht.png","../images/gry_blk.png","../images/ylw_slt.png"],"mutagen_generator_assignment":[0,1],"goal":1,"start":5,"action_noise":0.15,"location_history":"[5,4,3,2,1]","action_history":"[1,0,1,1]","mutagen_history":"[1,0,1,1]","location_rts":"[1806,1008,863,607]","trial_type":"fractal-mutation","trial_index":92,"time_elapsed":2774833,"internal_node_id":"0.0-5.0-38.0"},{"group":"hexagon_bi","fractal_assignment":["../images/pnk_blu.png","../images/org_blu.png","../images/cyn_red.png","../images/blu_wht.png","../images/gry_blk.png","../images/ylw_slt.png"],"mutagen_generator_assignment":[0,1],"goal":4,"start":1,"action_noise":0.15,"location_history":"[1,0,5,4]","action_history":"[1,1,1]","mutagen_history":"[1,1,1]","location_rts":"[1287,633,501]","trial_type":"fractal-mutation","trial_index":93,"time_elapsed":2783828,"internal_node_id":"0.0-5.0-39.0"},{"group":"hexagon_bi","fractal_assignment":["../images/pnk_blu.png","../images/org_blu.png","../images/cyn_red.png","../images/blu_wht.png","../images/gry_blk.png","../images/ylw_slt.png"],"mutagen_generator_assignment":[0,1],"goal":3,"start":4,"action_noise":0.15,"location_history":"[4,5,4,5,0,1,0,5,4,3]","action_history":"[0,0,0,0,1,1,1,1,0]","mutagen_history":"[0,0,0,0,1,1,1,1,0]","location_rts":"[764,425,768,417,564,464,450,504,676]","trial_type":"fractal-mutation","trial_index":94,"time_elapsed":2801521,"internal_node_id":"0.0-5.0-40.0"},{"group":"hexagon_bi","fractal_assignment":["../images/pnk_blu.png","../images/org_blu.png","../images/cyn_red.png","../images/blu_wht.png","../images/gry_blk.png","../images/ylw_slt.png"],"mutagen_generator_assignment":[0,1],"goal":2,"start":3,"action_noise":0.15,"location_history":"[3,4,3,4,3,2]","action_history":"[0,0,0,0,1]","mutagen_history":"[0,0,0,0,1]","location_rts":"[439,543,317,450,690]","trial_type":"fractal-mutation","trial_index":95,"time_elapsed":2812556,"internal_node_id":"0.0-5.0-41.0"},{"group":"hexagon_bi","fractal_assignment":["../images/pnk_blu.png","../images/org_blu.png","../images/cyn_red.png","../images/blu_wht.png","../images/gry_blk.png","../images/ylw_slt.png"],"mutagen_generator_assignment":[0,1],"goal":0,"start":2,"action_noise":0.15,"location_history":"[2,1,2,1,2,1,0]","action_history":"[0,0,0,0,0,1]","mutagen_history":"[0,0,0,0,0,1]","location_rts":"[1269,362,1330,716,925,209]","trial_type":"fractal-mutation","trial_index":96,"time_elapsed":2826980,"internal_node_id":"0.0-5.0-42.0"},{"group":"hexagon_bi","fractal_assignment":["../images/pnk_blu.png","../images/org_blu.png","../images/cyn_red.png","../images/blu_wht.png","../images/gry_blk.png","../images/ylw_slt.png"],"mutagen_generator_assignment":[0,1],"goal":5,"start":0,"action_noise":0.15,"location_history":"[0,1,2,1,2,1,2,1,0,5]","action_history":"[1,0,0,0,0,0,0,1,0]","mutagen_history":"[1,0,0,0,0,0,0,1,0]","location_rts":"[741,422,574,677,541,413,664,365,488]","trial_type":"fractal-mutation","trial_index":97,"time_elapsed":2844589,"internal_node_id":"0.0-5.0-43.0"},{"group":"hexagon_bi","fractal_assignment":["../images/pnk_blu.png","../images/org_blu.png","../images/cyn_red.png","../images/blu_wht.png","../images/gry_blk.png","../images/ylw_slt.png"],"mutagen_generator_assignment":[0,1],"goal":0,"start":5,"action_noise":0.15,"location_history":"[5,4,5,4,3,4,5,4,5,4,3,2,3,2,3,2,3,2,1,0]","action_history":"[1,0,0,0,0,1,1,1,1,1,1,1,1,1,1,1,1,0,1]","mutagen_history":"[1,0,0,0,0,1,1,1,1,1,1,1,1,1,1,1,1,0,1]","location_rts":"[2751,880,981,767,716,432,866,637,615,743,460,433,388,410,320,405,419,365,1949]","trial_type":"fractal-mutation","trial_index":98,"time_elapsed":2882026,"internal_node_id":"0.0-5.0-44.0"},{"group":"hexagon_bi","fractal_assignment":["../images/pnk_blu.png","../images/org_blu.png","../images/cyn_red.png","../images/blu_wht.png","../images/gry_blk.png","../images/ylw_slt.png"],"mutagen_generator_assignment":[0,1],"goal":2,"start":0,"action_noise":0.15,"location_history":"[0,1,0,1,0,1,2]","action_history":"[1,1,1,1,1,0]","mutagen_history":"[1,1,1,1,1,0]","location_rts":"[1637,557,470,372,1286,566]","trial_type":"fractal-mutation","trial_index":99,"time_elapsed":2896575,"internal_node_id":"0.0-5.0-45.0"},{"group":"hexagon_bi","fractal_assignment":["../images/pnk_blu.png","../images/org_blu.png","../images/cyn_red.png","../images/blu_wht.png","../images/gry_blk.png","../images/ylw_slt.png"],"mutagen_generator_assignment":[0,1],"goal":4,"start":2,"action_noise":0.15,"location_history":"[2,1,0,1,0,1,0,5,0,1,0,1,2,1,2,3,2,3,2,3,2,3,2,3,2,1,2,1,2,1,2,3,4]","action_history":"[0,1,1,1,1,0,0,0,1,1,0,0,0,0,1,1,1,0,1,1,1,1,1,1,0,0,0,0,0,1,1,1]","mutagen_history":"[0,1,1,1,1,0,0,0,1,1,0,0,0,0,1,1,1,0,1,1,1,1,1,1,0,0,0,0,0,1,1,1]","location_rts":"[1803,11939,588,511,622,590,580,399,366,592,442,480,453,795,378,612,1103,546,678,510,440,431,395,505,443,595,726,676,407,291,402,342]","trial_type":"fractal-mutation","trial_index":100,"time_elapsed":2962601,"internal_node_id":"0.0-5.0-46.0"},{"group":"hexagon_bi","fractal_assignment":["../images/pnk_blu.png","../images/org_blu.png","../images/cyn_red.png","../images/blu_wht.png","../images/gry_blk.png","../images/ylw_slt.png"],"mutagen_generator_assignment":[0,1],"goal":1,"start":4,"action_noise":0.15,"location_history":"[4,5,0,1]","action_history":"[0,1,1]","mutagen_history":"[0,1,1]","location_rts":"[1805,1695,636]","trial_type":"fractal-mutation","trial_index":101,"time_elapsed":2973323,"internal_node_id":"0.0-5.0-47.0"},{"group":"hexagon_bi","fractal_assignment":["../images/pnk_blu.png","../images/org_blu.png","../images/cyn_red.png","../images/blu_wht.png","../images/gry_blk.png","../images/ylw_slt.png"],"mutagen_generator_assignment":[0,1],"goal":5,"start":1,"action_noise":0.15,"location_history":"[1,2,3,4,5]","action_history":"[0,1,1,1]","mutagen_history":"[0,1,1,1]","location_rts":"[1282,695,951,1084]","trial_type":"fractal-mutation","trial_index":102,"time_elapsed":2984926,"internal_node_id":"0.0-5.0-48.0"},{"group":"hexagon_bi","fractal_assignment":["../images/pnk_blu.png","../images/org_blu.png","../images/cyn_red.png","../images/blu_wht.png","../images/gry_blk.png","../images/ylw_slt.png"],"mutagen_generator_assignment":[0,1],"goal":3,"start":5,"action_noise":0.15,"location_history":"[5,4,3]","action_history":"[0,0]","mutagen_history":"[0,0]","location_rts":"[1942,1115]","trial_type":"fractal-mutation","trial_index":103,"time_elapsed":2993510,"internal_node_id":"0.0-5.0-49.0"},{"view_history":"[{\"page_index\":0,\"viewing_time\":8953}]","rt":8954,"trial_type":"instructions","trial_index":104,"time_elapsed":3003464,"internal_node_id":"0.0-6.0"},{"rt":4681,"responses":"{\"Q0\":\"ty\"}","trial_type":"survey-text","trial_index":105,"time_elapsed":3009152,"internal_node_id":"0.0-7.0"}]