[{"view_history":"[{\"page_index\":0,\"viewing_time\":2842},{\"page_index\":1,\"viewing_time\":4349}]","rt":7192,"trial_type":"instructions","trial_index":0,"time_elapsed":7192,"internal_node_id":"0.0-0.0"},{"view_history":"[{\"page_index\":0,\"viewing_time\":1894},{\"page_index\":1,\"viewing_time\":3407}]","rt":5302,"trial_type":"instructions","trial_index":1,"time_elapsed":13496,"internal_node_id":"0.0-1.0"},{"group":"hexagon_bi","room_assignment":["grey","purple","blue","red","yellow","green"],"door_color_assignment":["black","white"],"door_generator_assignment":[0,1],"goal":3,"start":5,"action_noise":0.15,"location_history":"[5,4,5,4,3]","action_history":"[1,1,1,0]","door_history":"[1,1,1,0]","location_rts":"[3326,1247,1958,367]","trial_type":"two-door-navigation","trial_index":2,"time_elapsed":27966,"internal_node_id":"0.0-2.0-0.0"},{"group":"hexagon_bi","room_assignment":["grey","purple","blue","red","yellow","green"],"door_color_assignment":["black","white"],"door_generator_assignment":[0,1],"goal":1,"start":3,"action_noise":0.15,"location_history":"[3,4,3,4,5,0,5,0,1]","action_history":"[0,0,0,1,0,0,0,1]","door_history":"[0,0,0,1,0,0,0,1]","location_rts":"[4664,3404,1287,951,2616,531,700,1432]","trial_type":"two-door-navigation","trial_index":3,"time_elapsed":55207,"internal_node_id":"0.0-2.0-1.0"},{"group":"hexagon_bi","room_assignment":["grey","purple","blue","red","yellow","green"],"door_color_assignment":["black","white"],"door_generator_assignment":[0,1],"goal":0,"start":1,"action_noise":0.15,"location_history":"[1,2,1,0]","action_history":"[0,0,1]","door_history":"[0,0,1]","location_rts":"[1855,2143,967]","trial_type":"two-door-navigation","trial_index":4,"time_elapsed":66724,"internal_node_id":"0.0-2.0-2.0"},{"group":"hexagon_bi","room_assignment":["grey","purple","blue","red","yellow","green"],"door_color_assignment":["black","white"],"door_generator_assignment":[0,1],"goal":3,"start":0,"action_noise":0.15,"location_history":"[0,5,4,3]","action_history":"[1,1,0]","door_history":"[1,1,0]","location_rts":"[2163,2509,3557]","trial_type":"two-door-navigation","trial_index":5,"time_elapsed":81512,"internal_node_id":"0.0-2.0-3.0"},{"group":"hexagon_bi","room_assignment":["grey","purple","blue","red","yellow","green"],"door_color_assignment":["black","white"],"door_generator_assignment":[0,1],"goal":4,"start":3,"action_noise":0.15,"location_history":"[3,4]","action_history":"[0]","door_history":"[0]","location_rts":"[2199]","trial_type":"two-door-navigation","trial_index":6,"time_elapsed":88230,"internal_node_id":"0.0-2.0-4.0"},{"group":"hexagon_bi","room_assignment":["grey","purple","blue","red","yellow","green"],"door_color_assignment":["black","white"],"door_generator_assignment":[0,1],"goal":2,"start":4,"action_noise":0.15,"location_history":"[4,5,4,5,0,1,0,1,2]","action_history":"[1,1,1,0,1,1,1,0]","door_history":"[1,1,1,0,1,1,1,0]","location_rts":"[1904,2622,1184,727,567,2115,872,1506]","trial_type":"two-door-navigation","trial_index":7,"time_elapsed":111376,"internal_node_id":"0.0-2.0-5.0"},{"group":"hexagon_bi","room_assignment":["grey","purple","blue","red","yellow","green"],"door_color_assignment":["black","white"],"door_generator_assignment":[0,1],"goal":1,"start":2,"action_noise":0.15,"location_history":"[2,1]","action_history":"[0]","door_history":"[0]","location_rts":"[1694]","trial_type":"two-door-navigation","trial_index":8,"time_elapsed":117593,"internal_node_id":"0.0-2.0-6.0"},{"group":"hexagon_bi","room_assignment":["grey","purple","blue","red","yellow","green"],"door_color_assignment":["black","white"],"door_generator_assignment":[0,1],"goal":5,"start":1,"action_noise":0.15,"location_history":"[1,0,5]","action_history":"[1,0]","door_history":"[1,0]","location_rts":"[2925,661]","trial_type":"two-door-navigation","trial_index":9,"time_elapsed":126719,"internal_node_id":"0.0-2.0-7.0"},{"group":"hexagon_bi","room_assignment":["grey","purple","blue","red","yellow","green"],"door_color_assignment":["black","white"],"door_generator_assignment":[0,1],"goal":4,"start":5,"action_noise":0.15,"location_history":"[5,4]","action_history":"[1]","door_history":"[1]","location_rts":"[3938]","trial_type":"two-door-navigation","trial_index":10,"time_elapsed":135176,"internal_node_id":"0.0-2.0-8.0"},{"group":"hexagon_bi","room_assignment":["grey","purple","blue","red","yellow","green"],"door_color_assignment":["black","white"],"door_generator_assignment":[0,1],"goal":2,"start":4,"action_noise":0.15,"location_history":"[4,3,4,5,4,5,0,1,0,1,2]","action_history":"[1,0,1,1,1,0,1,1,1,0]","door_history":"[1,0,1,1,1,0,1,1,1,0]","location_rts":"[3655,518,3318,404,597,1503,2829,2038,292,392]","trial_type":"two-door-navigation","trial_index":11,"time_elapsed":164407,"internal_node_id":"0.0-2.0-9.0"},{"group":"hexagon_bi","room_assignment":["grey","purple","blue","red","yellow","green"],"door_color_assignment":["black","white"],"door_generator_assignment":[0,1],"goal":0,"start":2,"action_noise":0.15,"location_history":"[2,3,2,1,0]","action_history":"[1,1,0,1]","door_history":"[1,1,0,1]","location_rts":"[4040,2068,1357,745]","trial_type":"two-door-navigation","trial_index":12,"time_elapsed":180192,"internal_node_id":"0.0-2.0-10.0"},{"group":"hexagon_bi","room_assignment":["grey","purple","blue","red","yellow","green"],"door_color_assignment":["black","white"],"door_generator_assignment":[0,1],"goal":1,"start":0,"action_noise":0.15,"location_history":"[0,5,4,5,0,1]","action_history":"[1,1,1,0,1]","door_history":"[1,1,1,0,1]","location_rts":"[2335,2935,2261,1815,1509]","trial_type":"two-door-navigation","trial_index":13,"time_elapsed":199638,"internal_node_id":"0.0-2.0-11.0"},{"group":"hexagon_bi","room_assignment":["grey","purple","blue","red","yellow","green"],"door_color_assignment":["black","white"],"door_generator_assignment":[0,1],"goal":3,"start":1,"action_noise":0.15,"location_history":"[1,2,1,0,1,2,3]","action_history":"[0,1,1,0,0,1]","door_history":"[0,1,1,0,0,1]","location_rts":"[1897,1543,2139,882,3421,2572]","trial_type":"two-door-navigation","trial_index":14,"time_elapsed":221703,"internal_node_id":"0.0-2.0-12.0"},{"group":"hexagon_bi","room_assignment":["grey","purple","blue","red","yellow","green"],"door_color_assignment":["black","white"],"door_generator_assignment":[0,1],"goal":5,"start":3,"action_noise":0.15,"location_history":"[3,4,5]","action_history":"[0,1]","door_history":"[0,1]","location_rts":"[1777,1980]","trial_type":"two-door-navigation","trial_index":15,"time_elapsed":230998,"internal_node_id":"0.0-2.0-13.0"},{"group":"hexagon_bi","room_assignment":["grey","purple","blue","red","yellow","green"],"door_color_assignment":["black","white"],"door_generator_assignment":[0,1],"goal":4,"start":5,"action_noise":0.15,"location_history":"[5,4]","action_history":"[1]","door_history":"[1]","location_rts":"[1472]","trial_type":"two-door-navigation","trial_index":16,"time_elapsed":236992,"internal_node_id":"0.0-2.0-14.0"},{"group":"hexagon_bi","room_assignment":["grey","purple","blue","red","yellow","green"],"door_color_assignment":["black","white"],"door_generator_assignment":[0,1],"goal":0,"start":4,"action_noise":0.15,"location_history":"[4,3,4,5,0]","action_history":"[1,0,1,0]","door_history":"[1,0,1,0]","location_rts":"[3622,1534,1171,591]","trial_type":"two-door-navigation","trial_index":17,"time_elapsed":251488,"internal_node_id":"0.0-2.0-15.0"},{"group":"hexagon_bi","room_assignment":["grey","purple","blue","red","yellow","green"],"door_color_assignment":["black","white"],"door_generator_assignment":[0,1],"goal":3,"start":0,"action_noise":0.15,"location_history":"[0,1,2,1,2,3]","action_history":"[1,0,1,0,1]","door_history":"[1,0,1,0,1]","location_rts":"[3702,772,649,1441,336]","trial_type":"two-door-navigation","trial_index":18,"time_elapsed":266973,"internal_node_id":"0.0-2.0-16.0"},{"group":"hexagon_bi","room_assignment":["grey","purple","blue","red","yellow","green"],"door_color_assignment":["black","white"],"door_generator_assignment":[0,1],"goal":1,"start":3,"action_noise":0.15,"location_history":"[3,4,3,2,1]","action_history":"[0,0,1,0]","door_history":"[0,0,1,0]","location_rts":"[2186,1604,310,1276]","trial_type":"two-door-navigation","trial_index":19,"time_elapsed":279926,"internal_node_id":"0.0-2.0-17.0"},{"group":"hexagon_bi","room_assignment":["grey","purple","blue","red","yellow","green"],"door_color_assignment":["black","white"],"door_generator_assignment":[0,1],"goal":5,"start":1,"action_noise":0.15,"location_history":"[1,2,3,2,1,0,5]","action_history":"[0,1,0,0,1,0]","door_history":"[0,1,0,0,1,0]","location_rts":"[1856,957,1581,1182,1397,1072]","trial_type":"two-door-navigation","trial_index":20,"time_elapsed":297584,"internal_node_id":"0.0-2.0-18.0"},{"group":"hexagon_bi","room_assignment":["grey","purple","blue","red","yellow","green"],"door_color_assignment":["black","white"],"door_generator_assignment":[0,1],"goal":2,"start":5,"action_noise":0.15,"location_history":"[5,4,3,2]","action_history":"[1,0,1]","door_history":"[1,0,1]","location_rts":"[2944,1735,1605]","trial_type":"two-door-navigation","trial_index":21,"time_elapsed":310422,"internal_node_id":"0.0-2.0-19.0"},{"group":"hexagon_bi","room_assignment":["grey","purple","blue","red","yellow","green"],"door_color_assignment":["black","white"],"door_generator_assignment":[0,1],"goal":4,"start":2,"action_noise":0.15,"location_history":"[2,3,4]","action_history":"[1,0]","door_history":"[1,0]","location_rts":"[1688,1575]","trial_type":"two-door-navigation","trial_index":22,"time_elapsed":319224,"internal_node_id":"0.0-2.0-20.0"},{"group":"hexagon_bi","room_assignment":["grey","purple","blue","red","yellow","green"],"door_color_assignment":["black","white"],"door_generator_assignment":[0,1],"goal":1,"start":4,"action_noise":0.15,"location_history":"[4,5,0,1]","action_history":"[1,0,1]","door_history":"[1,0,1]","location_rts":"[2670,687,703]","trial_type":"two-door-navigation","trial_index":23,"time_elapsed":329840,"internal_node_id":"0.0-2.0-21.0"},{"group":"hexagon_bi","room_assignment":["grey","purple","blue","red","yellow","green"],"door_color_assignment":["black","white"],"door_generator_assignment":[0,1],"goal":3,"start":1,"action_noise":0.15,"location_history":"[1,2,1,2,3]","action_history":"[0,1,1,1]","door_history":"[0,1,1,1]","location_rts":"[2638,1501,1158,922]","trial_type":"two-door-navigation","trial_index":24,"time_elapsed":343637,"internal_node_id":"0.0-2.0-22.0"},{"group":"hexagon_bi","room_assignment":["grey","purple","blue","red","yellow","green"],"door_color_assignment":["black","white"],"door_generator_assignment":[0,1],"goal":2,"start":3,"action_noise":0.15,"location_history":"[3,2]","action_history":"[1]","door_history":"[1]","location_rts":"[2592]","trial_type":"two-door-navigation","trial_index":25,"time_elapsed":350753,"internal_node_id":"0.0-2.0-23.0"},{"group":"hexagon_bi","room_assignment":["grey","purple","blue","red","yellow","green"],"door_color_assignment":["black","white"],"door_generator_assignment":[0,1],"goal":0,"start":2,"action_noise":0.15,"location_history":"[2,1,0]","action_history":"[0,1]","door_history":"[0,1]","location_rts":"[2056,1194]","trial_type":"two-door-navigation","trial_index":26,"time_elapsed":359543,"internal_node_id":"0.0-2.0-24.0"},{"group":"hexagon_bi","room_assignment":["grey","purple","blue","red","yellow","green"],"door_color_assignment":["black","white"],"door_generator_assignment":[0,1],"goal":5,"start":0,"action_noise":0.15,"location_history":"[0,5]","action_history":"[0]","door_history":"[0]","location_rts":"[1311]","trial_type":"two-door-navigation","trial_index":27,"time_elapsed":365374,"internal_node_id":"0.0-2.0-25.0"},{"group":"hexagon_bi","room_assignment":["grey","purple","blue","red","yellow","green"],"door_color_assignment":["black","white"],"door_generator_assignment":[0,1],"goal":2,"start":5,"action_noise":0.15,"location_history":"[5,0,1,2]","action_history":"[0,1,0]","door_history":"[0,1,0]","location_rts":"[2208,406,389]","trial_type":"two-door-navigation","trial_index":28,"time_elapsed":374932,"internal_node_id":"0.0-2.0-26.0"},{"group":"hexagon_bi","room_assignment":["grey","purple","blue","red","yellow","green"],"door_color_assignment":["black","white"],"door_generator_assignment":[0,1],"goal":3,"start":2,"action_noise":0.15,"location_history":"[2,3]","action_history":"[1]","door_history":"[1]","location_rts":"[1538]","trial_type":"two-door-navigation","trial_index":29,"time_elapsed":380990,"internal_node_id":"0.0-2.0-27.0"},{"group":"hexagon_bi","room_assignment":["grey","purple","blue","red","yellow","green"],"door_color_assignment":["black","white"],"door_generator_assignment":[0,1],"goal":0,"start":3,"action_noise":0.15,"location_history":"[3,4,3,4,5,0]","action_history":"[1,0,0,1,0]","door_history":"[1,0,0,1,0]","location_rts":"[1457,975,1406,1407,377]","trial_type":"two-door-navigation","trial_index":30,"time_elapsed":395199,"internal_node_id":"0.0-2.0-28.0"},{"group":"hexagon_bi","room_assignment":["grey","purple","blue","red","yellow","green"],"door_color_assignment":["black","white"],"door_generator_assignment":[0,1],"goal":1,"start":0,"action_noise":0.15,"location_history":"[0,5,0,1]","action_history":"[0,0,1]","door_history":"[0,0,1]","location_rts":"[2585,1390,390]","trial_type":"two-door-navigation","trial_index":31,"time_elapsed":406120,"internal_node_id":"0.0-2.0-29.0"},{"group":"hexagon_bi","room_assignment":["grey","purple","blue","red","yellow","green"],"door_color_assignment":["black","white"],"door_generator_assignment":[0,1],"goal":4,"start":1,"action_noise":0.15,"location_history":"[1,0,1,2,3,4]","action_history":"[1,1,0,1,0]","door_history":"[1,1,0,1,0]","location_rts":"[1462,1680,340,1032,416]","trial_type":"two-door-navigation","trial_index":32,"time_elapsed":419638,"internal_node_id":"0.0-2.0-30.0"},{"group":"hexagon_bi","room_assignment":["grey","purple","blue","red","yellow","green"],"door_color_assignment":["black","white"],"door_generator_assignment":[0,1],"goal":5,"start":4,"action_noise":0.15,"location_history":"[4,5]","action_history":"[0]","door_history":"[0]","location_rts":"[1770]","trial_type":"two-door-navigation","trial_index":33,"time_elapsed":425925,"internal_node_id":"0.0-2.0-31.0"},{"group":"hexagon_bi","room_assignment":["grey","purple","blue","red","yellow","green"],"door_color_assignment":["black","white"],"door_generator_assignment":[0,1],"goal":0,"start":5,"action_noise":0.15,"location_history":"[5,0]","action_history":"[0]","door_history":"[0]","location_rts":"[1072]","trial_type":"two-door-navigation","trial_index":34,"time_elapsed":431519,"internal_node_id":"0.0-2.0-32.0"},{"group":"hexagon_bi","room_assignment":["grey","purple","blue","red","yellow","green"],"door_color_assignment":["black","white"],"door_generator_assignment":[0,1],"goal":3,"start":0,"action_noise":0.15,"location_history":"[0,1,2,3]","action_history":"[1,0,1]","door_history":"[1,0,1]","location_rts":"[2138,869,290]","trial_type":"two-door-navigation","trial_index":35,"time_elapsed":441368,"internal_node_id":"0.0-2.0-33.0"},{"group":"hexagon_bi","room_assignment":["grey","purple","blue","red","yellow","green"],"door_color_assignment":["black","white"],"door_generator_assignment":[0,1],"goal":1,"start":3,"action_noise":0.15,"location_history":"[3,4,5,0,1]","action_history":"[1,1,0,1]","door_history":"[1,1,0,1]","location_rts":"[3976,2388,289,833]","trial_type":"two-door-navigation","trial_index":36,"time_elapsed":456427,"internal_node_id":"0.0-2.0-34.0"},{"group":"hexagon_bi","room_assignment":["grey","purple","blue","red","yellow","green"],"door_color_assignment":["black","white"],"door_generator_assignment":[0,1],"goal":2,"start":1,"action_noise":0.15,"location_history":"[1,0,1,2]","action_history":"[1,1,0]","door_history":"[1,1,0]","location_rts":"[2172,1437,532]","trial_type":"two-door-navigation","trial_index":37,"time_elapsed":467131,"internal_node_id":"0.0-2.0-35.0"},{"group":"hexagon_bi","room_assignment":["grey","purple","blue","red","yellow","green"],"door_color_assignment":["black","white"],"door_generator_assignment":[0,1],"goal":4,"start":2,"action_noise":0.15,"location_history":"[2,3,4]","action_history":"[1,0]","door_history":"[1,0]","location_rts":"[3675,262]","trial_type":"two-door-navigation","trial_index":38,"time_elapsed":476611,"internal_node_id":"0.0-2.0-36.0"},{"group":"hexagon_bi","room_assignment":["grey","purple","blue","red","yellow","green"],"door_color_assignment":["black","white"],"door_generator_assignment":[0,1],"goal":5,"start":4,"action_noise":0.15,"location_history":"[4,3,4,3,4,5]","action_history":"[0,0,0,0,1]","door_history":"[0,0,0,0,1]","location_rts":"[1229,1207,759,564,390]","trial_type":"two-door-navigation","trial_index":39,"time_elapsed":489348,"internal_node_id":"0.0-2.0-37.0"},{"group":"hexagon_bi","room_assignment":["grey","purple","blue","red","yellow","green"],"door_color_assignment":["black","white"],"door_generator_assignment":[0,1],"goal":1,"start":5,"action_noise":0.15,"location_history":"[5,4,5,0,5,0,1]","action_history":"[1,0,1,0,0,1]","door_history":"[1,0,1,0,0,1]","location_rts":"[4196,1558,807,337,358,247]","trial_type":"two-door-navigation","trial_index":40,"time_elapsed":506453,"internal_node_id":"0.0-2.0-38.0"},{"group":"hexagon_bi","room_assignment":["grey","purple","blue","red","yellow","green"],"door_color_assignment":["black","white"],"door_generator_assignment":[0,1],"goal":4,"start":1,"action_noise":0.15,"location_history":"[1,2,3,4]","action_history":"[0,1,0]","door_history":"[0,1,0]","location_rts":"[2049,1343,1016]","trial_type":"two-door-navigation","trial_index":41,"time_elapsed":517415,"internal_node_id":"0.0-2.0-39.0"},{"group":"hexagon_bi","room_assignment":["grey","purple","blue","red","yellow","green"],"door_color_assignment":["black","white"],"door_generator_assignment":[0,1],"goal":3,"start":4,"action_noise":0.15,"location_history":"[4,5,4,3]","action_history":"[1,1,0]","door_history":"[1,1,0]","location_rts":"[2387,2052,937]","trial_type":"two-door-navigation","trial_index":42,"time_elapsed":529345,"internal_node_id":"0.0-2.0-40.0"},{"group":"hexagon_bi","room_assignment":["grey","purple","blue","red","yellow","green"],"door_color_assignment":["black","white"],"door_generator_assignment":[0,1],"goal":2,"start":3,"action_noise":0.15,"location_history":"[3,2]","action_history":"[1]","door_history":"[1]","location_rts":"[2870]","trial_type":"two-door-navigation","trial_index":43,"time_elapsed":536739,"internal_node_id":"0.0-2.0-41.0"},{"group":"hexagon_bi","room_assignment":["grey","purple","blue","red","yellow","green"],"door_color_assignment":["black","white"],"door_generator_assignment":[0,1],"goal":0,"start":2,"action_noise":0.15,"location_history":"[2,1,0]","action_history":"[0,1]","door_history":"[0,1]","location_rts":"[2475,777]","trial_type":"two-door-navigation","trial_index":44,"time_elapsed":545526,"internal_node_id":"0.0-2.0-42.0"},{"group":"hexagon_bi","room_assignment":["grey","purple","blue","red","yellow","green"],"door_color_assignment":["black","white"],"door_generator_assignment":[0,1],"goal":5,"start":0,"action_noise":0.15,"location_history":"[0,5]","action_history":"[0]","door_history":"[0]","location_rts":"[1146]","trial_type":"two-door-navigation","trial_index":45,"time_elapsed":551192,"internal_node_id":"0.0-2.0-43.0"},{"group":"hexagon_bi","room_assignment":["grey","purple","blue","red","yellow","green"],"door_color_assignment":["black","white"],"door_generator_assignment":[0,1],"goal":0,"start":5,"action_noise":0.15,"location_history":"[5,0]","action_history":"[0]","door_history":"[0]","location_rts":"[5455]","trial_type":"two-door-navigation","trial_index":46,"time_elapsed":561165,"internal_node_id":"0.0-2.0-44.0"},{"group":"hexagon_bi","room_assignment":["grey","purple","blue","red","yellow","green"],"door_color_assignment":["black","white"],"door_generator_assignment":[0,1],"goal":2,"start":0,"action_noise":0.15,"location_history":"[0,1,2]","action_history":"[1,0]","door_history":"[1,0]","location_rts":"[5090,950]","trial_type":"two-door-navigation","trial_index":47,"time_elapsed":572743,"internal_node_id":"0.0-2.0-45.0"},{"group":"hexagon_bi","room_assignment":["grey","purple","blue","red","yellow","green"],"door_color_assignment":["black","white"],"door_generator_assignment":[0,1],"goal":4,"start":2,"action_noise":0.15,"location_history":"[2,3,4]","action_history":"[1,0]","door_history":"[1,0]","location_rts":"[2464,783]","trial_type":"two-door-navigation","trial_index":48,"time_elapsed":581529,"internal_node_id":"0.0-2.0-46.0"},{"group":"hexagon_bi","room_assignment":["grey","purple","blue","red","yellow","green"],"door_color_assignment":["black","white"],"door_generator_assignment":[0,1],"goal":1,"start":4,"action_noise":0.15,"location_history":"[4,5,0,5,0,1]","action_history":"[1,0,1,0,1]","door_history":"[1,0,1,0,1]","location_rts":"[3150,1342,284,1057,318]","trial_type":"two-door-navigation","trial_index":49,"time_elapsed":596271,"internal_node_id":"0.0-2.0-47.0"},{"group":"hexagon_bi","room_assignment":["grey","purple","blue","red","yellow","green"],"door_color_assignment":["black","white"],"door_generator_assignment":[0,1],"goal":5,"start":1,"action_noise":0.15,"location_history":"[1,0,5]","action_history":"[1,0]","door_history":"[1,0]","location_rts":"[2889,357]","trial_type":"two-door-navigation","trial_index":50,"time_elapsed":605052,"internal_node_id":"0.0-2.0-48.0"},{"group":"hexagon_bi","room_assignment":["grey","purple","blue","red","yellow","green"],"door_color_assignment":["black","white"],"door_generator_assignment":[0,1],"goal":3,"start":5,"action_noise":0.15,"location_history":"[5,0,1,2,3]","action_history":"[1,1,0,1]","door_history":"[1,1,0,1]","location_rts":"[5539,2094,966,279]","trial_type":"two-door-navigation","trial_index":51,"time_elapsed":621503,"internal_node_id":"0.0-2.0-49.0"},{"view_history":"[{\"page_index\":0,\"viewing_time\":3696}]","rt":3697,"trial_type":"instructions","trial_index":52,"time_elapsed":626200,"internal_node_id":"0.0-3.0"},{"view_history":"[{\"page_index\":0,\"viewing_time\":3670},{\"page_index\":1,\"viewing_time\":793625}]","rt":797296,"trial_type":"instructions","trial_index":53,"time_elapsed":1424497,"internal_node_id":"0.0-4.0"},{"group":"hexagon_tri","fractal_assignment":["../images/blu_wht.png","../images/ylw_slt.png","../images/gry_blk.png","../images/cyn_red.png","../images/pnk_blu.png","../images/org_blu.png"],"mutagen_generator_assignment":[0,1],"goal":3,"start":5,"action_noise":0.15,"location_history":"[5,4,2,3]","action_history":"[0,1,1]","mutagen_history":"[0,1,1]","location_rts":"[3109,1310,1122]","trial_type":"fractal-mutation","trial_index":54,"time_elapsed":1436619,"internal_node_id":"0.0-5.0-0.0"},{"group":"hexagon_tri","fractal_assignment":["../images/blu_wht.png","../images/ylw_slt.png","../images/gry_blk.png","../images/cyn_red.png","../images/pnk_blu.png","../images/org_blu.png"],"mutagen_generator_assignment":[0,1],"goal":1,"start":3,"action_noise":0.15,"location_history":"[3,2,1]","action_history":"[0,0]","mutagen_history":"[0,0]","location_rts":"[2124,535]","trial_type":"fractal-mutation","trial_index":55,"time_elapsed":1444819,"internal_node_id":"0.0-5.0-1.0"},{"group":"hexagon_tri","fractal_assignment":["../images/blu_wht.png","../images/ylw_slt.png","../images/gry_blk.png","../images/cyn_red.png","../images/pnk_blu.png","../images/org_blu.png"],"mutagen_generator_assignment":[0,1],"goal":0,"start":1,"action_noise":0.15,"location_history":"[1,3,2,1,5,0]","action_history":"[0,0,0,1,1]","mutagen_history":"[0,0,0,1,1]","location_rts":"[1299,1319,832,348,799]","trial_type":"fractal-mutation","trial_index":56,"time_elapsed":1458034,"internal_node_id":"0.0-5.0-2.0"},{"group":"hexagon_tri","fractal_assignment":["../images/blu_wht.png","../images/ylw_slt.png","../images/gry_blk.png","../images/cyn_red.png","../images/pnk_blu.png","../images/org_blu.png"],"mutagen_generator_assignment":[0,1],"goal":3,"start":0,"action_noise":0.15,"location_history":"[0,5,0,1,3]","action_history":"[0,1,0,0]","mutagen_history":"[0,1,0,0]","location_rts":"[2469,1677,1343,1834]","trial_type":"fractal-mutation","trial_index":57,"time_elapsed":1472961,"internal_node_id":"0.0-5.0-3.0"},{"group":"hexagon_tri","fractal_assignment":["../images/blu_wht.png","../images/ylw_slt.png","../images/gry_blk.png","../images/cyn_red.png","../images/pnk_blu.png","../images/org_blu.png"],"mutagen_generator_assignment":[0,1],"goal":4,"start":3,"action_noise":0.15,"location_history":"[3,4]","action_history":"[1]","mutagen_history":"[1]","location_rts":"[3774]","trial_type":"fractal-mutation","trial_index":58,"time_elapsed":1481263,"internal_node_id":"0.0-5.0-4.0"},{"group":"hexagon_tri","fractal_assignment":["../images/blu_wht.png","../images/ylw_slt.png","../images/gry_blk.png","../images/cyn_red.png","../images/pnk_blu.png","../images/org_blu.png"],"mutagen_generator_assignment":[0,1],"goal":2,"start":4,"action_noise":0.15,"location_history":"[4,2]","action_history":"[1]","mutagen_history":"[1]","location_rts":"[1728]","trial_type":"fractal-mutation","trial_index":59,"time_elapsed":1487521,"internal_node_id":"0.0-5.0-5.0"},{"group":"hexagon_tri","fractal_assignment":["../images/blu_wht.png","../images/ylw_slt.png","../images/gry_blk.png","../images/cyn_red.png","../images/pnk_blu.png","../images/org_blu.png"],"mutagen_generator_assignment":[0,1],"goal":1,"start":2,"action_noise":0.15,"location_history":"[2,1]","action_history":"[0]","mutagen_history":"[0]","location_rts":"[1358]","trial_type":"fractal-mutation","trial_index":60,"time_elapsed":1493401,"internal_node_id":"0.0-5.0-6.0"},{"group":"hexagon_tri","fractal_assignment":["../images/blu_wht.png","../images/ylw_slt.png","../images/gry_blk.png","../images/cyn_red.png","../images/pnk_blu.png","../images/org_blu.png"],"mutagen_generator_assignment":[0,1],"goal":5,"start":1,"action_noise":0.15,"location_history":"[1,5]","action_history":"[1]","mutagen_history":"[1]","location_rts":"[1758]","trial_type":"fractal-mutation","trial_index":61,"time_elapsed":1499690,"internal_node_id":"0.0-5.0-7.0"},{"group":"hexagon_tri","fractal_assignment":["../images/blu_wht.png","../images/ylw_slt.png","../images/gry_blk.png","../images/cyn_red.png","../images/pnk_blu.png","../images/org_blu.png"],"mutagen_generator_assignment":[0,1],"goal":4,"start":5,"action_noise":0.15,"location_history":"[5,4]","action_history":"[1]","mutagen_history":"[1]","location_rts":"[1438]","trial_type":"fractal-mutation","trial_index":62,"time_elapsed":1505657,"internal_node_id":"0.0-5.0-8.0"},{"group":"hexagon_tri","fractal_assignment":["../images/blu_wht.png","../images/ylw_slt.png","../images/gry_blk.png","../images/cyn_red.png","../images/pnk_blu.png","../images/org_blu.png"],"mutagen_generator_assignment":[0,1],"goal":2,"start":4,"action_noise":0.15,"location_history":"[4,2]","action_history":"[1]","mutagen_history":"[1]","location_rts":"[1460]","trial_type":"fractal-mutation","trial_index":63,"time_elapsed":1511639,"internal_node_id":"0.0-5.0-9.0"},{"group":"hexagon_tri","fractal_assignment":["../images/blu_wht.png","../images/ylw_slt.png","../images/gry_blk.png","../images/cyn_red.png","../images/pnk_blu.png","../images/org_blu.png"],"mutagen_generator_assignment":[0,1],"goal":0,"start":2,"action_noise":0.15,"location_history":"[2,1,5,4,0]","action_history":"[0,1,0,0]","mutagen_history":"[0,1,0,0]","location_rts":"[3791,817,1554,1111]","trial_type":"fractal-mutation","trial_index":64,"time_elapsed":1526485,"internal_node_id":"0.0-5.0-10.0"},{"group":"hexagon_tri","fractal_assignment":["../images/blu_wht.png","../images/ylw_slt.png","../images/gry_blk.png","../images/cyn_red.png","../images/pnk_blu.png","../images/org_blu.png"],"mutagen_generator_assignment":[0,1],"goal":1,"start":0,"action_noise":0.15,"location_history":"[0,1]","action_history":"[1]","mutagen_history":"[1]","location_rts":"[1737]","trial_type":"fractal-mutation","trial_index":65,"time_elapsed":1532753,"internal_node_id":"0.0-5.0-11.0"},{"group":"hexagon_tri","fractal_assignment":["../images/blu_wht.png","../images/ylw_slt.png","../images/gry_blk.png","../images/cyn_red.png","../images/pnk_blu.png","../images/org_blu.png"],"mutagen_generator_assignment":[0,1],"goal":3,"start":1,"action_noise":0.15,"location_history":"[1,5,4,2,3]","action_history":"[0,0,1,0]","mutagen_history":"[0,0,1,0]","location_rts":"[1404,2310,447,1122]","trial_type":"fractal-mutation","trial_index":66,"time_elapsed":1545625,"internal_node_id":"0.0-5.0-12.0"},{"group":"hexagon_tri","fractal_assignment":["../images/blu_wht.png","../images/ylw_slt.png","../images/gry_blk.png","../images/cyn_red.png","../images/pnk_blu.png","../images/org_blu.png"],"mutagen_generator_assignment":[0,1],"goal":5,"start":3,"action_noise":0.15,"location_history":"[3,4,2,1,5]","action_history":"[1,0,0,1]","mutagen_history":"[1,0,0,1]","location_rts":"[1693,349,1442,1486]","trial_type":"fractal-mutation","trial_index":67,"time_elapsed":1558180,"internal_node_id":"0.0-5.0-13.0"},{"group":"hexagon_tri","fractal_assignment":["../images/blu_wht.png","../images/ylw_slt.png","../images/gry_blk.png","../images/cyn_red.png","../images/pnk_blu.png","../images/org_blu.png"],"mutagen_generator_assignment":[0,1],"goal":4,"start":5,"action_noise":0.15,"location_history":"[5,4]","action_history":"[1]","mutagen_history":"[1]","location_rts":"[1257]","trial_type":"fractal-mutation","trial_index":68,"time_elapsed":1563969,"internal_node_id":"0.0-5.0-14.0"},{"group":"hexagon_tri","fractal_assignment":["../images/blu_wht.png","../images/ylw_slt.png","../images/gry_blk.png","../images/cyn_red.png","../images/pnk_blu.png","../images/org_blu.png"],"mutagen_generator_assignment":[0,1],"goal":0,"start":4,"action_noise":0.15,"location_history":"[4,0]","action_history":"[0]","mutagen_history":"[0]","location_rts":"[1671]","trial_type":"fractal-mutation","trial_index":69,"time_elapsed":1570160,"internal_node_id":"0.0-5.0-15.0"},{"group":"hexagon_tri","fractal_assignment":["../images/blu_wht.png","../images/ylw_slt.png","../images/gry_blk.png","../images/cyn_red.png","../images/pnk_blu.png","../images/org_blu.png"],"mutagen_generator_assignment":[0,1],"goal":3,"start":0,"action_noise":0.15,"location_history":"[0,5,0,5,4,0,1,3]","action_history":"[0,1,0,0,1,1,0]","mutagen_history":"[0,1,0,0,1,1,0]","location_rts":"[2103,1967,24702,1440,2209,740,1094]","trial_type":"fractal-mutation","trial_index":70,"time_elapsed":1615080,"internal_node_id":"0.0-5.0-16.0"},{"group":"hexagon_tri","fractal_assignment":["../images/blu_wht.png","../images/ylw_slt.png","../images/gry_blk.png","../images/cyn_red.png","../images/pnk_blu.png","../images/org_blu.png"],"mutagen_generator_assignment":[0,1],"goal":1,"start":3,"action_noise":0.15,"location_history":"[3,4,2,3,2,3,4,2,1]","action_history":"[1,1,0,0,1,1,1,0]","mutagen_history":"[1,1,0,0,1,1,1,0]","location_rts":"[1687,1082,1274,797,386,2102,865,1959]","trial_type":"fractal-mutation","trial_index":71,"time_elapsed":1636905,"internal_node_id":"0.0-5.0-17.0"},{"group":"hexagon_tri","fractal_assignment":["../images/blu_wht.png","../images/ylw_slt.png","../images/gry_blk.png","../images/cyn_red.png","../images/pnk_blu.png","../images/org_blu.png"],"mutagen_generator_assignment":[0,1],"goal":5,"start":1,"action_noise":0.15,"location_history":"[1,3,2,1,5]","action_history":"[0,0,1,1]","mutagen_history":"[0,0,1,1]","location_rts":"[5006,1611,598,516]","trial_type":"fractal-mutation","trial_index":72,"time_elapsed":1652230,"internal_node_id":"0.0-5.0-18.0"},{"group":"hexagon_tri","fractal_assignment":["../images/blu_wht.png","../images/ylw_slt.png","../images/gry_blk.png","../images/cyn_red.png","../images/pnk_blu.png","../images/org_blu.png"],"mutagen_generator_assignment":[0,1],"goal":2,"start":5,"action_noise":0.15,"location_history":"[5,0,5,4,0,1,5,4,0,5,0,5,4,0,5,4,2]","action_history":"[1,0,1,0,0,1,0,0,0,0,0,0,1,1,0,1]","mutagen_history":"[1,0,1,0,0,1,0,0,0,0,0,0,1,1,0,1]","location_rts":"[7443,2286,350,1270,723,325,1571,827,870,1730,1100,379,304,741,2055,273]","trial_type":"fractal-mutation","trial_index":73,"time_elapsed":1694310,"internal_node_id":"0.0-5.0-19.0"},{"group":"hexagon_tri","fractal_assignment":["../images/blu_wht.png","../images/ylw_slt.png","../images/gry_blk.png","../images/cyn_red.png","../images/pnk_blu.png","../images/org_blu.png"],"mutagen_generator_assignment":[0,1],"goal":4,"start":2,"action_noise":0.15,"location_history":"[2,3,2,1,5,4]","action_history":"[1,0,0,1,0]","mutagen_history":"[1,0,0,1,0]","location_rts":"[2066,823,1059,572,2373]","trial_type":"fractal-mutation","trial_index":74,"time_elapsed":1709809,"internal_node_id":"0.0-5.0-20.0"},{"group":"hexagon_tri","fractal_assignment":["../images/blu_wht.png","../images/ylw_slt.png","../images/gry_blk.png","../images/cyn_red.png","../images/pnk_blu.png","../images/org_blu.png"],"mutagen_generator_assignment":[0,1],"goal":1,"start":4,"action_noise":0.15,"location_history":"[4,2,1]","action_history":"[1,0]","mutagen_history":"[1,0]","location_rts":"[1447,474]","trial_type":"fractal-mutation","trial_index":75,"time_elapsed":1717271,"internal_node_id":"0.0-5.0-21.0"},{"group":"hexagon_tri","fractal_assignment":["../images/blu_wht.png","../images/ylw_slt.png","../images/gry_blk.png","../images/cyn_red.png","../images/pnk_blu.png","../images/org_blu.png"],"mutagen_generator_assignment":[0,1],"goal":3,"start":1,"action_noise":0.15,"location_history":"[1,5,0,5,4,0,5,0,1,5,0,1,3]","action_history":"[1,1,0,1,0,0,1,1,1,1,1,0]","mutagen_history":"[1,1,0,1,0,0,1,1,1,1,1,0]","location_rts":"[3160,1951,1671,1070,1038,917,974,560,1659,1672,776,703]","trial_type":"fractal-mutation","trial_index":76,"time_elapsed":1749205,"internal_node_id":"0.0-5.0-22.0"},{"group":"hexagon_tri","fractal_assignment":["../images/blu_wht.png","../images/ylw_slt.png","../images/gry_blk.png","../images/cyn_red.png","../images/pnk_blu.png","../images/org_blu.png"],"mutagen_generator_assignment":[0,1],"goal":2,"start":3,"action_noise":0.15,"location_history":"[3,2]","action_history":"[1]","mutagen_history":"[1]","location_rts":"[1906]","trial_type":"fractal-mutation","trial_index":77,"time_elapsed":1755638,"internal_node_id":"0.0-5.0-23.0"},{"group":"hexagon_tri","fractal_assignment":["../images/blu_wht.png","../images/ylw_slt.png","../images/gry_blk.png","../images/cyn_red.png","../images/pnk_blu.png","../images/org_blu.png"],"mutagen_generator_assignment":[0,1],"goal":0,"start":2,"action_noise":0.15,"location_history":"[2,3,4,0]","action_history":"[0,1,0]","mutagen_history":"[0,1,0]","location_rts":"[1994,531,2340]","trial_type":"fractal-mutation","trial_index":78,"time_elapsed":1767071,"internal_node_id":"0.0-5.0-24.0"},{"group":"hexagon_tri","fractal_assignment":["../images/blu_wht.png","../images/ylw_slt.png","../images/gry_blk.png","../images/cyn_red.png","../images/pnk_blu.png","../images/org_blu.png"],"mutagen_generator_assignment":[0,1],"goal":5,"start":0,"action_noise":0.15,"location_history":"[0,5]","action_history":"[0]","mutagen_history":"[0]","location_rts":"[1529]","trial_type":"fractal-mutation","trial_index":79,"time_elapsed":1773126,"internal_node_id":"0.0-5.0-25.0"},{"group":"hexagon_tri","fractal_assignment":["../images/blu_wht.png","../images/ylw_slt.png","../images/gry_blk.png","../images/cyn_red.png","../images/pnk_blu.png","../images/org_blu.png"],"mutagen_generator_assignment":[0,1],"goal":2,"start":5,"action_noise":0.15,"location_history":"[5,4,0,5,0,1,5,4,0,5,0,1,5,4,2]","action_history":"[1,0,0,1,1,1,1,0,0,1,1,1,0,1]","mutagen_history":"[1,0,0,1,1,1,1,0,0,1,1,1,0,1]","location_rts":"[2193,932,1535,403,1838,1869,1387,616,706,1099,824,1304,1062,964]","trial_type":"fractal-mutation","trial_index":80,"time_elapsed":1807685,"internal_node_id":"0.0-5.0-26.0"},{"group":"hexagon_tri","fractal_assignment":["../images/blu_wht.png","../images/ylw_slt.png","../images/gry_blk.png","../images/cyn_red.png","../images/pnk_blu.png","../images/org_blu.png"],"mutagen_generator_assignment":[0,1],"goal":3,"start":2,"action_noise":0.15,"location_history":"[2,3]","action_history":"[0]","mutagen_history":"[0]","location_rts":"[3122]","trial_type":"fractal-mutation","trial_index":81,"time_elapsed":1815331,"internal_node_id":"0.0-5.0-27.0"},{"group":"hexagon_tri","fractal_assignment":["../images/blu_wht.png","../images/ylw_slt.png","../images/gry_blk.png","../images/cyn_red.png","../images/pnk_blu.png","../images/org_blu.png"],"mutagen_generator_assignment":[0,1],"goal":0,"start":3,"action_noise":0.15,"location_history":"[3,2,1,3,4,0]","action_history":"[0,0,0,1,0]","mutagen_history":"[0,0,0,1,0]","location_rts":"[2188,1113,1092,1141,1158]","trial_type":"fractal-mutation","trial_index":82,"time_elapsed":1830625,"internal_node_id":"0.0-5.0-28.0"},{"group":"hexagon_tri","fractal_assignment":["../images/blu_wht.png","../images/ylw_slt.png","../images/gry_blk.png","../images/cyn_red.png","../images/pnk_blu.png","../images/org_blu.png"],"mutagen_generator_assignment":[0,1],"goal":1,"start":0,"action_noise":0.15,"location_history":"[0,5,0,1]","action_history":"[1,0,0]","mutagen_history":"[1,0,0]","location_rts":"[1815,1453,617]","trial_type":"fractal-mutation","trial_index":83,"time_elapsed":1841074,"internal_node_id":"0.0-5.0-29.0"},{"group":"hexagon_tri","fractal_assignment":["../images/blu_wht.png","../images/ylw_slt.png","../images/gry_blk.png","../images/cyn_red.png","../images/pnk_blu.png","../images/org_blu.png"],"mutagen_generator_assignment":[0,1],"goal":4,"start":1,"action_noise":0.15,"location_history":"[1,3,2,1,5,0,5,0,5,4]","action_history":"[0,1,0,1,1,0,1,0,0]","mutagen_history":"[0,1,0,1,1,0,1,0,0]","location_rts":"[1684,1046,923,1268,1329,944,395,575,859]","trial_type":"fractal-mutation","trial_index":84,"time_elapsed":1862795,"internal_node_id":"0.0-5.0-30.0"},{"group":"hexagon_tri","fractal_assignment":["../images/blu_wht.png","../images/ylw_slt.png","../images/gry_blk.png","../images/cyn_red.png","../images/pnk_blu.png","../images/org_blu.png"],"mutagen_generator_assignment":[0,1],"goal":5,"start":4,"action_noise":0.15,"location_history":"[4,2,1,5]","action_history":"[0,0,0]","mutagen_history":"[0,0,0]","location_rts":"[1708,1027,990]","trial_type":"fractal-mutation","trial_index":85,"time_elapsed":1873080,"internal_node_id":"0.0-5.0-31.0"},{"group":"hexagon_tri","fractal_assignment":["../images/blu_wht.png","../images/ylw_slt.png","../images/gry_blk.png","../images/cyn_red.png","../images/pnk_blu.png","../images/org_blu.png"],"mutagen_generator_assignment":[0,1],"goal":0,"start":5,"action_noise":0.15,"location_history":"[5,0]","action_history":"[1]","mutagen_history":"[1]","location_rts":"[1935]","trial_type":"fractal-mutation","trial_index":86,"time_elapsed":1879542,"internal_node_id":"0.0-5.0-32.0"},{"group":"hexagon_tri","fractal_assignment":["../images/blu_wht.png","../images/ylw_slt.png","../images/gry_blk.png","../images/cyn_red.png","../images/pnk_blu.png","../images/org_blu.png"],"mutagen_generator_assignment":[0,1],"goal":3,"start":0,"action_noise":0.15,"location_history":"[0,1,3]","action_history":"[1,0]","mutagen_history":"[1,0]","location_rts":"[1848,1499]","trial_type":"fractal-mutation","trial_index":87,"time_elapsed":1888435,"internal_node_id":"0.0-5.0-33.0"},{"group":"hexagon_tri","fractal_assignment":["../images/blu_wht.png","../images/ylw_slt.png","../images/gry_blk.png","../images/cyn_red.png","../images/pnk_blu.png","../images/org_blu.png"],"mutagen_generator_assignment":[0,1],"goal":1,"start":3,"action_noise":0.15,"location_history":"[3,2,3,2,1]","action_history":"[0,1,0,0]","mutagen_history":"[0,1,0,0]","location_rts":"[1212,1781,2250,459]","trial_type":"fractal-mutation","trial_index":88,"time_elapsed":1901720,"internal_node_id":"0.0-5.0-34.0"},{"group":"hexagon_tri","fractal_assignment":["../images/blu_wht.png","../images/ylw_slt.png","../images/gry_blk.png","../images/cyn_red.png","../images/pnk_blu.png","../images/org_blu.png"],"mutagen_generator_assignment":[0,1],"goal":2,"start":1,"action_noise":0.15,"location_history":"[1,3,2]","action_history":"[0,0]","mutagen_history":"[0,0]","location_rts":"[1991,827]","trial_type":"fractal-mutation","trial_index":89,"time_elapsed":1910081,"internal_node_id":"0.0-5.0-35.0"},{"group":"hexagon_tri","fractal_assignment":["../images/blu_wht.png","../images/ylw_slt.png","../images/gry_blk.png","../images/cyn_red.png","../images/pnk_blu.png","../images/org_blu.png"],"mutagen_generator_assignment":[0,1],"goal":4,"start":2,"action_noise":0.15,"location_history":"[2,3,2,3,2,3,4]","action_history":"[1,0,0,0,1,1]","mutagen_history":"[1,0,0,0,1,1]","location_rts":"[2213,647,547,731,512,805]","trial_type":"fractal-mutation","trial_index":90,"time_elapsed":1925187,"internal_node_id":"0.0-5.0-36.0"},{"group":"hexagon_tri","fractal_assignment":["../images/blu_wht.png","../images/ylw_slt.png","../images/gry_blk.png","../images/cyn_red.png","../images/pnk_blu.png","../images/org_blu.png"],"mutagen_generator_assignment":[0,1],"goal":5,"start":4,"action_noise":0.15,"location_history":"[4,0,5]","action_history":"[0,0]","mutagen_history":"[0,0]","location_rts":"[1613,810]","trial_type":"fractal-mutation","trial_index":91,"time_elapsed":1933153,"internal_node_id":"0.0-5.0-37.0"},{"group":"hexagon_tri","fractal_assignment":["../images/blu_wht.png","../images/ylw_slt.png","../images/gry_blk.png","../images/cyn_red.png","../images/pnk_blu.png","../images/org_blu.png"],"mutagen_generator_assignment":[0,1],"goal":1,"start":5,"action_noise":0.15,"location_history":"[5,4,0,5,4,0,1]","action_history":"[0,1,0,0,0,1]","mutagen_history":"[0,1,0,0,0,1]","location_rts":"[2445,972,837,787,563,823]","trial_type":"fractal-mutation","trial_index":92,"time_elapsed":1949197,"internal_node_id":"0.0-5.0-38.0"},{"group":"hexagon_tri","fractal_assignment":["../images/blu_wht.png","../images/ylw_slt.png","../images/gry_blk.png","../images/cyn_red.png","../images/pnk_blu.png","../images/org_blu.png"],"mutagen_generator_assignment":[0,1],"goal":4,"start":1,"action_noise":0.15,"location_history":"[1,3,4]","action_history":"[0,1]","mutagen_history":"[0,1]","location_rts":"[2073,1036]","trial_type":"fractal-mutation","trial_index":93,"time_elapsed":1957854,"internal_node_id":"0.0-5.0-39.0"},{"group":"hexagon_tri","fractal_assignment":["../images/blu_wht.png","../images/ylw_slt.png","../images/gry_blk.png","../images/cyn_red.png","../images/pnk_blu.png","../images/org_blu.png"],"mutagen_generator_assignment":[0,1],"goal":3,"start":4,"action_noise":0.15,"location_history":"[4,2,1,3]","action_history":"[1,0,0]","mutagen_history":"[1,0,0]","location_rts":"[1489,498,876]","trial_type":"fractal-mutation","trial_index":94,"time_elapsed":1967291,"internal_node_id":"0.0-5.0-40.0"},{"group":"hexagon_tri","fractal_assignment":["../images/blu_wht.png","../images/ylw_slt.png","../images/gry_blk.png","../images/cyn_red.png","../images/pnk_blu.png","../images/org_blu.png"],"mutagen_generator_assignment":[0,1],"goal":2,"start":3,"action_noise":0.15,"location_history":"[3,4,2]","action_history":"[1,1]","mutagen_history":"[1,1]","location_rts":"[1442,885]","trial_type":"fractal-mutation","trial_index":95,"time_elapsed":1975176,"internal_node_id":"0.0-5.0-41.0"},{"group":"hexagon_tri","fractal_assignment":["../images/blu_wht.png","../images/ylw_slt.png","../images/gry_blk.png","../images/cyn_red.png","../images/pnk_blu.png","../images/org_blu.png"],"mutagen_generator_assignment":[0,1],"goal":0,"start":2,"action_noise":0.15,"location_history":"[2,1,3,4,0]","action_history":"[0,0,1,0]","mutagen_history":"[0,0,1,0]","location_rts":"[1624,509,1136,927]","trial_type":"fractal-mutation","trial_index":96,"time_elapsed":1986956,"internal_node_id":"0.0-5.0-42.0"},{"group":"hexagon_tri","fractal_assignment":["../images/blu_wht.png","../images/ylw_slt.png","../images/gry_blk.png","../images/cyn_red.png","../images/pnk_blu.png","../images/org_blu.png"],"mutagen_generator_assignment":[0,1],"goal":5,"start":0,"action_noise":0.15,"location_history":"[0,5]","action_history":"[0]","mutagen_history":"[0]","location_rts":"[1292]","trial_type":"fractal-mutation","trial_index":97,"time_elapsed":1992770,"internal_node_id":"0.0-5.0-43.0"},{"group":"hexagon_tri","fractal_assignment":["../images/blu_wht.png","../images/ylw_slt.png","../images/gry_blk.png","../images/cyn_red.png","../images/pnk_blu.png","../images/org_blu.png"],"mutagen_generator_assignment":[0,1],"goal":0,"start":5,"action_noise":0.15,"location_history":"[5,4,0]","action_history":"[0,0]","mutagen_history":"[0,0]","location_rts":"[1124,565]","trial_type":"fractal-mutation","trial_index":98,"time_elapsed":2000025,"internal_node_id":"0.0-5.0-44.0"},{"group":"hexagon_tri","fractal_assignment":["../images/blu_wht.png","../images/ylw_slt.png","../images/gry_blk.png","../images/cyn_red.png","../images/pnk_blu.png","../images/org_blu.png"],"mutagen_generator_assignment":[0,1],"goal":2,"start":0,"action_noise":0.15,"location_history":"[0,5,0,1,5,0,5,4,2]","action_history":"[0,0,1,1,1,0,1,1]","mutagen_history":"[0,0,1,1,1,0,1,1]","location_rts":"[2822,467,347,1522,1137,830,496,730]","trial_type":"fractal-mutation","trial_index":99,"time_elapsed":2020072,"internal_node_id":"0.0-5.0-45.0"},{"group":"hexagon_tri","fractal_assignment":["../images/blu_wht.png","../images/ylw_slt.png","../images/gry_blk.png","../images/cyn_red.png","../images/pnk_blu.png","../images/org_blu.png"],"mutagen_generator_assignment":[0,1],"goal":4,"start":2,"action_noise":0.15,"location_history":"[2,3,2,1,3,2,3,2,1,3,4]","action_history":"[1,0,0,0,0,1,0,0,0,1]","mutagen_history":"[1,0,0,0,0,1,0,0,0,1]","location_rts":"[2686,517,418,277,750,416,253,797,369,420]","trial_type":"fractal-mutation","trial_index":100,"time_elapsed":2040681,"internal_node_id":"0.0-5.0-46.0"},{"group":"hexagon_tri","fractal_assignment":["../images/blu_wht.png","../images/ylw_slt.png","../images/gry_blk.png","../images/cyn_red.png","../images/pnk_blu.png","../images/org_blu.png"],"mutagen_generator_assignment":[0,1],"goal":1,"start":4,"action_noise":0.15,"location_history":"[4,0,1]","action_history":"[0,0]","mutagen_history":"[0,0]","location_rts":"[1045,1236]","trial_type":"fractal-mutation","trial_index":101,"time_elapsed":2048507,"internal_node_id":"0.0-5.0-47.0"},{"group":"hexagon_tri","fractal_assignment":["../images/blu_wht.png","../images/ylw_slt.png","../images/gry_blk.png","../images/cyn_red.png","../images/pnk_blu.png","../images/org_blu.png"],"mutagen_generator_assignment":[0,1],"goal":5,"start":1,"action_noise":0.15,"location_history":"[1,5]","action_history":"[0]","mutagen_history":"[0]","location_rts":"[957]","trial_type":"fractal-mutation","trial_index":102,"time_elapsed":2053984,"internal_node_id":"0.0-5.0-48.0"},{"group":"hexagon_tri","fractal_assignment":["../images/blu_wht.png","../images/ylw_slt.png","../images/gry_blk.png","../images/cyn_red.png","../images/pnk_blu.png","../images/org_blu.png"],"mutagen_generator_assignment":[0,1],"goal":3,"start":5,"action_noise":0.15,"location_history":"[5,0,5,0,1,3]","action_history":"[1,0,1,1,0]","mutagen_history":"[1,0,1,1,0]","location_rts":"[1455,748,506,1010,461]","trial_type":"fractal-mutation","trial_index":103,"time_elapsed":2066789,"internal_node_id":"0.0-5.0-49.0"},{"view_history":"[{\"page_index\":0,\"viewing_time\":8210}]","rt":8210,"trial_type":"instructions","trial_index":104,"time_elapsed":2076000,"internal_node_id":"0.0-6.0"},{"rt":4573,"responses":"{\"Q0\":\"no comments\"}","trial_type":"survey-text","trial_index":105,"time_elapsed":2081578,"internal_node_id":"0.0-7.0"}]