[{"view_history":"[{\"page_index\":0,\"viewing_time\":3886},{\"page_index\":1,\"viewing_time\":4898}]","rt":8784,"trial_type":"instructions","trial_index":0,"time_elapsed":8784,"internal_node_id":"0.0-0.0"},{"view_history":"[{\"page_index\":0,\"viewing_time\":11791},{\"page_index\":1,\"viewing_time\":46471}]","rt":58262,"trial_type":"instructions","trial_index":1,"time_elapsed":68049,"internal_node_id":"0.0-1.0"},{"group":"hexagon_bi","room_assignment":["purple","blue","red","green","yellow","grey"],"door_color_assignment":["white","black"],"door_generator_assignment":[1,0],"goal":3,"start":5,"action_noise":0.15,"location_history":"[5,4,3]","action_history":"[1,0]","door_history":"[0,1]","location_rts":"[1986,410]","trial_type":"two-door-navigation","trial_index":2,"time_elapsed":75991,"internal_node_id":"0.0-2.0-0.0"},{"group":"hexagon_bi","room_assignment":["purple","blue","red","green","yellow","grey"],"door_color_assignment":["white","black"],"door_generator_assignment":[1,0],"goal":1,"start":3,"action_noise":0.15,"location_history":"[3,4,3,4,3,2,1]","action_history":"[0,1,0,0,1,0]","door_history":"[1,0,1,1,0,1]","location_rts":"[1677,471,55,788,362,703]","trial_type":"two-door-navigation","trial_index":3,"time_elapsed":89657,"internal_node_id":"0.0-2.0-1.0"},{"group":"hexagon_bi","room_assignment":["purple","blue","red","green","yellow","grey"],"door_color_assignment":["white","black"],"door_generator_assignment":[1,0],"goal":0,"start":1,"action_noise":0.15,"location_history":"[1,0]","action_history":"[1]","door_history":"[0]","location_rts":"[1677]","trial_type":"two-door-navigation","trial_index":4,"time_elapsed":95858,"internal_node_id":"0.0-2.0-2.0"},{"group":"hexagon_bi","room_assignment":["purple","blue","red","green","yellow","grey"],"door_color_assignment":["white","black"],"door_generator_assignment":[1,0],"goal":3,"start":0,"action_noise":0.15,"location_history":"[0,1,2,3]","action_history":"[1,0,1]","door_history":"[0,1,0]","location_rts":"[4740,444,354]","trial_type":"two-door-navigation","trial_index":5,"time_elapsed":107958,"internal_node_id":"0.0-2.0-3.0"},{"group":"hexagon_bi","room_assignment":["purple","blue","red","green","yellow","grey"],"door_color_assignment":["white","black"],"door_generator_assignment":[1,0],"goal":4,"start":3,"action_noise":0.15,"location_history":"[3,2,1,0,1,0,1,2,3,4]","action_history":"[1,0,1,0,1,1,0,1,0]","door_history":"[0,1,0,1,0,0,1,0,1]","location_rts":"[13837,376,338,926,768,597,294,517,1047]","trial_type":"two-door-navigation","trial_index":6,"time_elapsed":139328,"internal_node_id":"0.0-2.0-4.0"},{"group":"hexagon_bi","room_assignment":["purple","blue","red","green","yellow","grey"],"door_color_assignment":["white","black"],"door_generator_assignment":[1,0],"goal":2,"start":4,"action_noise":0.15,"location_history":"[4,5,4,3,2]","action_history":"[1,1,0,1]","door_history":"[0,0,1,0]","location_rts":"[1721,698,282,948]","trial_type":"two-door-navigation","trial_index":7,"time_elapsed":150548,"internal_node_id":"0.0-2.0-5.0"},{"group":"hexagon_bi","room_assignment":["purple","blue","red","green","yellow","grey"],"door_color_assignment":["white","black"],"door_generator_assignment":[1,0],"goal":1,"start":2,"action_noise":0.15,"location_history":"[2,3,4,5,0,1]","action_history":"[1,0,1,0,1]","door_history":"[0,1,0,1,0]","location_rts":"[7407,404,587,548,572]","trial_type":"two-door-navigation","trial_index":8,"time_elapsed":168654,"internal_node_id":"0.0-2.0-6.0"},{"group":"hexagon_bi","room_assignment":["purple","blue","red","green","yellow","grey"],"door_color_assignment":["white","black"],"door_generator_assignment":[1,0],"goal":5,"start":1,"action_noise":0.15,"location_history":"[1,0,5]","action_history":"[1,0]","door_history":"[0,1]","location_rts":"[1247,394]","trial_type":"two-door-navigation","trial_index":9,"time_elapsed":175834,"internal_node_id":"0.0-2.0-7.0"},{"group":"hexagon_bi","room_assignment":["purple","blue","red","green","yellow","grey"],"door_color_assignment":["white","black"],"door_generator_assignment":[1,0],"goal":4,"start":5,"action_noise":0.15,"location_history":"[5,0,1,0,1,0,5,4]","action_history":"[0,1,0,1,1,0,1]","door_history":"[1,0,1,0,0,1,0]","location_rts":"[2400,529,722,470,391,227,226]","trial_type":"two-door-navigation","trial_index":10,"time_elapsed":191420,"internal_node_id":"0.0-2.0-8.0"},{"group":"hexagon_bi","room_assignment":["purple","blue","red","green","yellow","grey"],"door_color_assignment":["white","black"],"door_generator_assignment":[1,0],"goal":2,"start":4,"action_noise":0.15,"location_history":"[4,5,4,3,2]","action_history":"[1,1,0,1]","door_history":"[0,0,1,0]","location_rts":"[1282,477,354,854]","trial_type":"two-door-navigation","trial_index":11,"time_elapsed":201959,"internal_node_id":"0.0-2.0-9.0"},{"group":"hexagon_bi","room_assignment":["purple","blue","red","green","yellow","grey"],"door_color_assignment":["white","black"],"door_generator_assignment":[1,0],"goal":0,"start":2,"action_noise":0.15,"location_history":"[2,3,2,1,0]","action_history":"[1,1,0,1]","door_history":"[0,0,1,0]","location_rts":"[3632,365,290,462]","trial_type":"two-door-navigation","trial_index":12,"time_elapsed":214276,"internal_node_id":"0.0-2.0-10.0"},{"group":"hexagon_bi","room_assignment":["purple","blue","red","green","yellow","grey"],"door_color_assignment":["white","black"],"door_generator_assignment":[1,0],"goal":1,"start":0,"action_noise":0.15,"location_history":"[0,1]","action_history":"[1]","door_history":"[0]","location_rts":"[1058]","trial_type":"two-door-navigation","trial_index":13,"time_elapsed":219856,"internal_node_id":"0.0-2.0-11.0"},{"group":"hexagon_bi","room_assignment":["purple","blue","red","green","yellow","grey"],"door_color_assignment":["white","black"],"door_generator_assignment":[1,0],"goal":3,"start":1,"action_noise":0.15,"location_history":"[1,0,1,2,3]","action_history":"[1,1,0,1]","door_history":"[0,0,1,0]","location_rts":"[2877,625,327,459]","trial_type":"two-door-navigation","trial_index":14,"time_elapsed":231724,"internal_node_id":"0.0-2.0-12.0"},{"group":"hexagon_bi","room_assignment":["purple","blue","red","green","yellow","grey"],"door_color_assignment":["white","black"],"door_generator_assignment":[1,0],"goal":5,"start":3,"action_noise":0.15,"location_history":"[3,4,5]","action_history":"[0,1]","door_history":"[1,0]","location_rts":"[2126,467]","trial_type":"two-door-navigation","trial_index":15,"time_elapsed":239851,"internal_node_id":"0.0-2.0-13.0"},{"group":"hexagon_bi","room_assignment":["purple","blue","red","green","yellow","grey"],"door_color_assignment":["white","black"],"door_generator_assignment":[1,0],"goal":4,"start":5,"action_noise":0.15,"location_history":"[5,4]","action_history":"[1]","door_history":"[0]","location_rts":"[1215]","trial_type":"two-door-navigation","trial_index":16,"time_elapsed":245589,"internal_node_id":"0.0-2.0-14.0"},{"group":"hexagon_bi","room_assignment":["purple","blue","red","green","yellow","grey"],"door_color_assignment":["white","black"],"door_generator_assignment":[1,0],"goal":0,"start":4,"action_noise":0.15,"location_history":"[4,5,4,3,2,1,0]","action_history":"[0,1,0,1,0,1]","door_history":"[1,0,1,0,1,0]","location_rts":"[1699,428,1122,776,790,2261]","trial_type":"two-door-navigation","trial_index":17,"time_elapsed":262273,"internal_node_id":"0.0-2.0-15.0"},{"group":"hexagon_bi","room_assignment":["purple","blue","red","green","yellow","grey"],"door_color_assignment":["white","black"],"door_generator_assignment":[1,0],"goal":3,"start":0,"action_noise":0.15,"location_history":"[0,1,0,1,2,3]","action_history":"[1,1,1,0,1]","door_history":"[0,0,0,1,0]","location_rts":"[3247,424,501,296,391]","trial_type":"two-door-navigation","trial_index":18,"time_elapsed":275721,"internal_node_id":"0.0-2.0-16.0"},{"group":"hexagon_bi","room_assignment":["purple","blue","red","green","yellow","grey"],"door_color_assignment":["white","black"],"door_generator_assignment":[1,0],"goal":1,"start":3,"action_noise":0.15,"location_history":"[3,4,5,4,3,2,3,2,3,4,5,4,3,4,3,2,3,2,3,4,5,4,3,4,3,2,3,2,1]","action_history":"[0,1,1,0,1,0,1,1,0,1,1,0,0,0,1,0,1,1,0,1,1,0,0,0,1,1,1,0]","door_history":"[1,0,0,1,0,1,0,0,1,0,0,1,1,1,0,1,0,0,1,0,0,1,1,1,0,0,0,1]","location_rts":"[2167,357,265,283,213,547,362,400,171,392,223,256,3308,660,307,817,419,446,2088,1003,352,322,427,887,279,1197,605,294]","trial_type":"two-door-navigation","trial_index":19,"time_elapsed":326785,"internal_node_id":"0.0-2.0-17.0"},{"group":"hexagon_bi","room_assignment":["purple","blue","red","green","yellow","grey"],"door_color_assignment":["white","black"],"door_generator_assignment":[1,0],"goal":5,"start":1,"action_noise":0.15,"location_history":"[1,0,5]","action_history":"[1,0]","door_history":"[0,1]","location_rts":"[2687,775]","trial_type":"two-door-navigation","trial_index":20,"time_elapsed":335787,"internal_node_id":"0.0-2.0-18.0"},{"group":"hexagon_bi","room_assignment":["purple","blue","red","green","yellow","grey"],"door_color_assignment":["white","black"],"door_generator_assignment":[1,0],"goal":2,"start":5,"action_noise":0.15,"location_history":"[5,4,5,0,1,2]","action_history":"[1,0,0,1,0]","door_history":"[0,1,1,0,1]","location_rts":"[1783,361,1813,382,506]","trial_type":"two-door-navigation","trial_index":21,"time_elapsed":349223,"internal_node_id":"0.0-2.0-19.0"},{"group":"hexagon_bi","room_assignment":["purple","blue","red","green","yellow","grey"],"door_color_assignment":["white","black"],"door_generator_assignment":[1,0],"goal":4,"start":2,"action_noise":0.15,"location_history":"[2,1,0,1,0,1,2,3,4]","action_history":"[0,1,0,1,1,0,1,0]","door_history":"[1,0,1,0,0,1,0,1]","location_rts":"[6956,381,536,409,1349,249,432,508]","trial_type":"two-door-navigation","trial_index":22,"time_elapsed":371682,"internal_node_id":"0.0-2.0-20.0"},{"group":"hexagon_bi","room_assignment":["purple","blue","red","green","yellow","grey"],"door_color_assignment":["white","black"],"door_generator_assignment":[1,0],"goal":1,"start":4,"action_noise":0.15,"location_history":"[4,5,4,3,4,5,4,5,4,3,2,1]","action_history":"[1,1,0,1,1,0,1,0,0,1,0]","door_history":"[0,0,1,0,0,1,0,1,1,0,1]","location_rts":"[1011,700,413,344,715,260,345,562,638,1912,562]","trial_type":"two-door-navigation","trial_index":23,"time_elapsed":393844,"internal_node_id":"0.0-2.0-21.0"},{"group":"hexagon_bi","room_assignment":["purple","blue","red","green","yellow","grey"],"door_color_assignment":["white","black"],"door_generator_assignment":[1,0],"goal":3,"start":1,"action_noise":0.15,"location_history":"[1,0,1,2,3]","action_history":"[1,1,0,1]","door_history":"[0,0,1,0]","location_rts":"[3603,1323,253,404]","trial_type":"two-door-navigation","trial_index":24,"time_elapsed":407007,"internal_node_id":"0.0-2.0-22.0"},{"group":"hexagon_bi","room_assignment":["purple","blue","red","green","yellow","grey"],"door_color_assignment":["white","black"],"door_generator_assignment":[1,0],"goal":2,"start":3,"action_noise":0.15,"location_history":"[3,2]","action_history":"[1]","door_history":"[0]","location_rts":"[3417]","trial_type":"two-door-navigation","trial_index":25,"time_elapsed":414944,"internal_node_id":"0.0-2.0-23.0"},{"group":"hexagon_bi","room_assignment":["purple","blue","red","green","yellow","grey"],"door_color_assignment":["white","black"],"door_generator_assignment":[1,0],"goal":0,"start":2,"action_noise":0.15,"location_history":"[2,3,2,1,0]","action_history":"[1,1,0,1]","door_history":"[0,0,1,0]","location_rts":"[1131,581,329,1397]","trial_type":"two-door-navigation","trial_index":26,"time_elapsed":425954,"internal_node_id":"0.0-2.0-24.0"},{"group":"hexagon_bi","room_assignment":["purple","blue","red","green","yellow","grey"],"door_color_assignment":["white","black"],"door_generator_assignment":[1,0],"goal":5,"start":0,"action_noise":0.15,"location_history":"[0,5]","action_history":"[0]","door_history":"[1]","location_rts":"[2763]","trial_type":"two-door-navigation","trial_index":27,"time_elapsed":433235,"internal_node_id":"0.0-2.0-25.0"},{"group":"hexagon_bi","room_assignment":["purple","blue","red","green","yellow","grey"],"door_color_assignment":["white","black"],"door_generator_assignment":[1,0],"goal":2,"start":5,"action_noise":0.15,"location_history":"[5,4,3,2]","action_history":"[1,0,1]","door_history":"[0,1,0]","location_rts":"[1738,337,648]","trial_type":"two-door-navigation","trial_index":28,"time_elapsed":442507,"internal_node_id":"0.0-2.0-26.0"},{"group":"hexagon_bi","room_assignment":["purple","blue","red","green","yellow","grey"],"door_color_assignment":["white","black"],"door_generator_assignment":[1,0],"goal":3,"start":2,"action_noise":0.15,"location_history":"[2,3]","action_history":"[1]","door_history":"[0]","location_rts":"[1748]","trial_type":"two-door-navigation","trial_index":29,"time_elapsed":448775,"internal_node_id":"0.0-2.0-27.0"},{"group":"hexagon_bi","room_assignment":["purple","blue","red","green","yellow","grey"],"door_color_assignment":["white","black"],"door_generator_assignment":[1,0],"goal":0,"start":3,"action_noise":0.15,"location_history":"[3,4,3,2,1,0]","action_history":"[1,0,1,0,1]","door_history":"[0,1,0,1,0]","location_rts":"[1755,1143,372,780,786]","trial_type":"two-door-navigation","trial_index":30,"time_elapsed":462210,"internal_node_id":"0.0-2.0-28.0"},{"group":"hexagon_bi","room_assignment":["purple","blue","red","green","yellow","grey"],"door_color_assignment":["white","black"],"door_generator_assignment":[1,0],"goal":1,"start":0,"action_noise":0.15,"location_history":"[0,1]","action_history":"[1]","door_history":"[0]","location_rts":"[1201]","trial_type":"two-door-navigation","trial_index":31,"time_elapsed":467932,"internal_node_id":"0.0-2.0-29.0"},{"group":"hexagon_bi","room_assignment":["purple","blue","red","green","yellow","grey"],"door_color_assignment":["white","black"],"door_generator_assignment":[1,0],"goal":4,"start":1,"action_noise":0.15,"location_history":"[1,0,5,4]","action_history":"[1,0,1]","door_history":"[0,1,0]","location_rts":"[1502,709,358]","trial_type":"two-door-navigation","trial_index":32,"time_elapsed":477060,"internal_node_id":"0.0-2.0-30.0"},{"group":"hexagon_bi","room_assignment":["purple","blue","red","green","yellow","grey"],"door_color_assignment":["white","black"],"door_generator_assignment":[1,0],"goal":5,"start":4,"action_noise":0.15,"location_history":"[4,5]","action_history":"[1]","door_history":"[0]","location_rts":"[2413]","trial_type":"two-door-navigation","trial_index":33,"time_elapsed":483995,"internal_node_id":"0.0-2.0-31.0"},{"group":"hexagon_bi","room_assignment":["purple","blue","red","green","yellow","grey"],"door_color_assignment":["white","black"],"door_generator_assignment":[1,0],"goal":0,"start":5,"action_noise":0.15,"location_history":"[5,0]","action_history":"[0]","door_history":"[1]","location_rts":"[2147]","trial_type":"two-door-navigation","trial_index":34,"time_elapsed":490664,"internal_node_id":"0.0-2.0-32.0"},{"group":"hexagon_bi","room_assignment":["purple","blue","red","green","yellow","grey"],"door_color_assignment":["white","black"],"door_generator_assignment":[1,0],"goal":3,"start":0,"action_noise":0.15,"location_history":"[0,5,4,3]","action_history":"[1,1,0]","door_history":"[0,0,1]","location_rts":"[8243,550,2466]","trial_type":"two-door-navigation","trial_index":35,"time_elapsed":508474,"internal_node_id":"0.0-2.0-33.0"},{"group":"hexagon_bi","room_assignment":["purple","blue","red","green","yellow","grey"],"door_color_assignment":["white","black"],"door_generator_assignment":[1,0],"goal":1,"start":3,"action_noise":0.15,"location_history":"[3,4,5,0,1]","action_history":"[0,1,0,1]","door_history":"[1,0,1,0]","location_rts":"[1597,366,321,372]","trial_type":"two-door-navigation","trial_index":36,"time_elapsed":518705,"internal_node_id":"0.0-2.0-34.0"},{"group":"hexagon_bi","room_assignment":["purple","blue","red","green","yellow","grey"],"door_color_assignment":["white","black"],"door_generator_assignment":[1,0],"goal":2,"start":1,"action_noise":0.15,"location_history":"[1,2]","action_history":"[0]","door_history":"[1]","location_rts":"[2597]","trial_type":"two-door-navigation","trial_index":37,"time_elapsed":525827,"internal_node_id":"0.0-2.0-35.0"},{"group":"hexagon_bi","room_assignment":["purple","blue","red","green","yellow","grey"],"door_color_assignment":["white","black"],"door_generator_assignment":[1,0],"goal":4,"start":2,"action_noise":0.15,"location_history":"[2,3,4]","action_history":"[1,0]","door_history":"[0,1]","location_rts":"[1602,460]","trial_type":"two-door-navigation","trial_index":38,"time_elapsed":533428,"internal_node_id":"0.0-2.0-36.0"},{"group":"hexagon_bi","room_assignment":["purple","blue","red","green","yellow","grey"],"door_color_assignment":["white","black"],"door_generator_assignment":[1,0],"goal":5,"start":4,"action_noise":0.15,"location_history":"[4,5]","action_history":"[1]","door_history":"[0]","location_rts":"[3064]","trial_type":"two-door-navigation","trial_index":39,"time_elapsed":541014,"internal_node_id":"0.0-2.0-37.0"},{"group":"hexagon_bi","room_assignment":["purple","blue","red","green","yellow","grey"],"door_color_assignment":["white","black"],"door_generator_assignment":[1,0],"goal":1,"start":5,"action_noise":0.15,"location_history":"[5,0,1]","action_history":"[0,1]","door_history":"[1,0]","location_rts":"[4278,556]","trial_type":"two-door-navigation","trial_index":40,"time_elapsed":551387,"internal_node_id":"0.0-2.0-38.0"},{"group":"hexagon_bi","room_assignment":["purple","blue","red","green","yellow","grey"],"door_color_assignment":["white","black"],"door_generator_assignment":[1,0],"goal":4,"start":1,"action_noise":0.15,"location_history":"[1,0,5,4]","action_history":"[1,0,1]","door_history":"[0,1,0]","location_rts":"[1644,284,329]","trial_type":"two-door-navigation","trial_index":41,"time_elapsed":560206,"internal_node_id":"0.0-2.0-39.0"},{"group":"hexagon_bi","room_assignment":["purple","blue","red","green","yellow","grey"],"door_color_assignment":["white","black"],"door_generator_assignment":[1,0],"goal":3,"start":4,"action_noise":0.15,"location_history":"[4,5,0,1,2,3]","action_history":"[0,0,1,0,1]","door_history":"[1,1,0,1,0]","location_rts":"[1660,939,311,782,462]","trial_type":"two-door-navigation","trial_index":42,"time_elapsed":572956,"internal_node_id":"0.0-2.0-40.0"},{"group":"hexagon_bi","room_assignment":["purple","blue","red","green","yellow","grey"],"door_color_assignment":["white","black"],"door_generator_assignment":[1,0],"goal":2,"start":3,"action_noise":0.15,"location_history":"[3,2]","action_history":"[1]","door_history":"[0]","location_rts":"[3178]","trial_type":"two-door-navigation","trial_index":43,"time_elapsed":580655,"internal_node_id":"0.0-2.0-41.0"},{"group":"hexagon_bi","room_assignment":["purple","blue","red","green","yellow","grey"],"door_color_assignment":["white","black"],"door_generator_assignment":[1,0],"goal":0,"start":2,"action_noise":0.15,"location_history":"[2,3,2,1,0]","action_history":"[0,1,0,1]","door_history":"[1,0,1,0]","location_rts":"[32656,508,1796,931]","trial_type":"two-door-navigation","trial_index":44,"time_elapsed":624129,"internal_node_id":"0.0-2.0-42.0"},{"group":"hexagon_bi","room_assignment":["purple","blue","red","green","yellow","grey"],"door_color_assignment":["white","black"],"door_generator_assignment":[1,0],"goal":5,"start":0,"action_noise":0.15,"location_history":"[0,1,2,3,4,5]","action_history":"[0,0,1,0,1]","door_history":"[1,1,0,1,0]","location_rts":"[4838,1993,1605,739,754]","trial_type":"two-door-navigation","trial_index":45,"time_elapsed":642654,"internal_node_id":"0.0-2.0-43.0"},{"group":"hexagon_bi","room_assignment":["purple","blue","red","green","yellow","grey"],"door_color_assignment":["white","black"],"door_generator_assignment":[1,0],"goal":0,"start":5,"action_noise":0.15,"location_history":"[5,4,3,2,1,0]","action_history":"[1,0,1,0,1]","door_history":"[0,1,0,1,0]","location_rts":"[2139,258,530,563,539]","trial_type":"two-door-navigation","trial_index":46,"time_elapsed":655276,"internal_node_id":"0.0-2.0-44.0"},{"group":"hexagon_bi","room_assignment":["purple","blue","red","green","yellow","grey"],"door_color_assignment":["white","black"],"door_generator_assignment":[1,0],"goal":2,"start":0,"action_noise":0.15,"location_history":"[0,5,0,1,2]","action_history":"[0,0,1,0]","door_history":"[1,1,0,1]","location_rts":"[14342,880,1224,788]","trial_type":"two-door-navigation","trial_index":47,"time_elapsed":680087,"internal_node_id":"0.0-2.0-45.0"},{"group":"hexagon_bi","room_assignment":["purple","blue","red","green","yellow","grey"],"door_color_assignment":["white","black"],"door_generator_assignment":[1,0],"goal":4,"start":2,"action_noise":0.15,"location_history":"[2,3,2,1,2,3,2,3,4]","action_history":"[0,1,0,0,0,1,0,0]","door_history":"[1,0,1,1,1,0,1,1]","location_rts":"[3114,1099,500,1207,921,370,446,644]","trial_type":"two-door-navigation","trial_index":48,"time_elapsed":700030,"internal_node_id":"0.0-2.0-46.0"},{"group":"hexagon_bi","room_assignment":["purple","blue","red","green","yellow","grey"],"door_color_assignment":["white","black"],"door_generator_assignment":[1,0],"goal":1,"start":4,"action_noise":0.15,"location_history":"[4,3,2,1]","action_history":"[0,1,0]","door_history":"[1,0,1]","location_rts":"[3839,623,583]","trial_type":"two-door-navigation","trial_index":49,"time_elapsed":711637,"internal_node_id":"0.0-2.0-47.0"},{"group":"hexagon_bi","room_assignment":["purple","blue","red","green","yellow","grey"],"door_color_assignment":["white","black"],"door_generator_assignment":[1,0],"goal":5,"start":1,"action_noise":0.15,"location_history":"[1,2,1,0,5]","action_history":"[0,0,1,0]","door_history":"[1,1,0,1]","location_rts":"[1831,1459,423,566]","trial_type":"two-door-navigation","trial_index":50,"time_elapsed":723494,"internal_node_id":"0.0-2.0-48.0"},{"group":"hexagon_bi","room_assignment":["purple","blue","red","green","yellow","grey"],"door_color_assignment":["white","black"],"door_generator_assignment":[1,0],"goal":3,"start":5,"action_noise":0.15,"location_history":"[5,4,3]","action_history":"[1,0]","door_history":"[0,1]","location_rts":"[2193,258]","trial_type":"two-door-navigation","trial_index":51,"time_elapsed":731483,"internal_node_id":"0.0-2.0-49.0"},{"view_history":"[{\"page_index\":0,\"viewing_time\":1495}]","rt":1496,"trial_type":"instructions","trial_index":52,"time_elapsed":733979,"internal_node_id":"0.0-3.0"},{"view_history":"[{\"page_index\":0,\"viewing_time\":1851},{\"page_index\":1,\"viewing_time\":1114}]","rt":2965,"trial_type":"instructions","trial_index":53,"time_elapsed":737945,"internal_node_id":"0.0-4.0"},{"group":"hexagon_tri","fractal_assignment":["../images/gry_blk.png","../images/cyn_red.png","../images/ylw_slt.png","../images/pnk_blu.png","../images/blu_wht.png","../images/org_blu.png"],"mutagen_generator_assignment":[0,1],"goal":3,"start":5,"action_noise":0.15,"location_history":"[5,0,5,0,1,3]","action_history":"[1,0,0,1,0]","mutagen_history":"[1,0,0,1,0]","location_rts":"[4201,468,505,405,487]","trial_type":"fractal-mutation","trial_index":54,"time_elapsed":752846,"internal_node_id":"0.0-5.0-0.0"},{"group":"hexagon_tri","fractal_assignment":["../images/gry_blk.png","../images/cyn_red.png","../images/ylw_slt.png","../images/pnk_blu.png","../images/blu_wht.png","../images/org_blu.png"],"mutagen_generator_assignment":[0,1],"goal":1,"start":3,"action_noise":0.15,"location_history":"[3,4,0,5,0,5,4,2,1]","action_history":"[1,0,0,1,0,0,1,0]","mutagen_history":"[1,0,0,1,0,0,1,0]","location_rts":"[2421,437,474,592,478,487,488,364]","trial_type":"fractal-mutation","trial_index":55,"time_elapsed":770598,"internal_node_id":"0.0-5.0-1.0"},{"group":"hexagon_tri","fractal_assignment":["../images/gry_blk.png","../images/cyn_red.png","../images/ylw_slt.png","../images/pnk_blu.png","../images/blu_wht.png","../images/org_blu.png"],"mutagen_generator_assignment":[0,1],"goal":0,"start":1,"action_noise":0.15,"location_history":"[1,3,2,3,2,3,2,1,3,2,1,3,2,1,3,4,2,1,3,2,3,2,1,3,4,2,3,4,0]","action_history":"[0,0,1,0,0,1,0,1,0,0,1,0,0,0,1,0,0,0,0,1,0,0,0,1,1,1,1,0]","mutagen_history":"[0,0,1,0,0,1,0,1,0,0,1,0,0,0,1,0,0,0,0,1,0,0,0,1,1,1,1,0]","location_rts":"[2232,580,820,376,413,851,899,556,733,568,810,465,1673,905,654,666,436,453,474,426,512,815,491,325,733,624,628,724]","trial_type":"fractal-mutation","trial_index":56,"time_elapsed":823658,"internal_node_id":"0.0-5.0-2.0"},{"group":"hexagon_tri","fractal_assignment":["../images/gry_blk.png","../images/cyn_red.png","../images/ylw_slt.png","../images/pnk_blu.png","../images/blu_wht.png","../images/org_blu.png"],"mutagen_generator_assignment":[0,1],"goal":3,"start":0,"action_noise":0.15,"location_history":"[0,5,0,1,3]","action_history":"[0,0,1,0]","mutagen_history":"[0,0,1,0]","location_rts":"[1703,408,2902,1492]","trial_type":"fractal-mutation","trial_index":57,"time_elapsed":837906,"internal_node_id":"0.0-5.0-3.0"},{"group":"hexagon_tri","fractal_assignment":["../images/gry_blk.png","../images/cyn_red.png","../images/ylw_slt.png","../images/pnk_blu.png","../images/blu_wht.png","../images/org_blu.png"],"mutagen_generator_assignment":[0,1],"goal":4,"start":3,"action_noise":0.15,"location_history":"[3,2,3,2,3,4]","action_history":"[0,1,0,1,1]","mutagen_history":"[0,1,0,1,1]","location_rts":"[1362,583,1706,732,652]","trial_type":"fractal-mutation","trial_index":58,"time_elapsed":851791,"internal_node_id":"0.0-5.0-4.0"},{"group":"hexagon_tri","fractal_assignment":["../images/gry_blk.png","../images/cyn_red.png","../images/ylw_slt.png","../images/pnk_blu.png","../images/blu_wht.png","../images/org_blu.png"],"mutagen_generator_assignment":[0,1],"goal":2,"start":4,"action_noise":0.15,"location_history":"[4,0,5,4,0,5,4,0,1,5,4,0,1,5,4,2]","action_history":"[0,1,0,1,1,0,0,1,1,0,0,1,1,0,1]","mutagen_history":"[0,1,0,1,1,0,0,1,1,0,0,1,1,0,1]","location_rts":"[1197,753,468,668,794,453,704,52,745,440,624,700,729,523,325]","trial_type":"fractal-mutation","trial_index":59,"time_elapsed":880471,"internal_node_id":"0.0-5.0-5.0"},{"group":"hexagon_tri","fractal_assignment":["../images/gry_blk.png","../images/cyn_red.png","../images/ylw_slt.png","../images/pnk_blu.png","../images/blu_wht.png","../images/org_blu.png"],"mutagen_generator_assignment":[0,1],"goal":1,"start":2,"action_noise":0.15,"location_history":"[2,1]","action_history":"[0]","mutagen_history":"[0]","location_rts":"[1211]","trial_type":"fractal-mutation","trial_index":60,"time_elapsed":886237,"internal_node_id":"0.0-5.0-6.0"},{"group":"hexagon_tri","fractal_assignment":["../images/gry_blk.png","../images/cyn_red.png","../images/ylw_slt.png","../images/pnk_blu.png","../images/blu_wht.png","../images/org_blu.png"],"mutagen_generator_assignment":[0,1],"goal":5,"start":1,"action_noise":0.15,"location_history":"[1,3,2,1,3,2,3,4,0,1,3,4,2,1,3,2,1,3,2,3,4,0,5]","action_history":"[0,0,1,0,0,1,0,0,1,0,0,1,0,0,1,0,0,0,1,1,0,0]","mutagen_history":"[0,0,1,0,0,1,0,0,1,0,0,1,0,0,1,0,0,0,1,1,0,0]","location_rts":"[1009,424,781,591,404,378,364,394,643,596,401,830,932,579,1439,1734,390,357,780,998,524,381]","trial_type":"fractal-mutation","trial_index":61,"time_elapsed":927997,"internal_node_id":"0.0-5.0-7.0"},{"group":"hexagon_tri","fractal_assignment":["../images/gry_blk.png","../images/cyn_red.png","../images/ylw_slt.png","../images/pnk_blu.png","../images/blu_wht.png","../images/org_blu.png"],"mutagen_generator_assignment":[0,1],"goal":4,"start":5,"action_noise":0.15,"location_history":"[5,4]","action_history":"[0]","mutagen_history":"[0]","location_rts":"[1013]","trial_type":"fractal-mutation","trial_index":62,"time_elapsed":933569,"internal_node_id":"0.0-5.0-8.0"},{"group":"hexagon_tri","fractal_assignment":["../images/gry_blk.png","../images/cyn_red.png","../images/ylw_slt.png","../images/pnk_blu.png","../images/blu_wht.png","../images/org_blu.png"],"mutagen_generator_assignment":[0,1],"goal":2,"start":4,"action_noise":0.15,"location_history":"[4,0,1,3,4,0,1,3,2]","action_history":"[0,1,0,1,0,1,0,0]","mutagen_history":"[0,1,0,1,0,1,0,0]","location_rts":"[1804,1022,442,932,554,723,837,759]","trial_type":"fractal-mutation","trial_index":63,"time_elapsed":952650,"internal_node_id":"0.0-5.0-9.0"},{"group":"hexagon_tri","fractal_assignment":["../images/gry_blk.png","../images/cyn_red.png","../images/ylw_slt.png","../images/pnk_blu.png","../images/blu_wht.png","../images/org_blu.png"],"mutagen_generator_assignment":[0,1],"goal":0,"start":2,"action_noise":0.15,"location_history":"[2,1,5,0]","action_history":"[0,0,1]","mutagen_history":"[0,0,1]","location_rts":"[1383,521,613]","trial_type":"fractal-mutation","trial_index":64,"time_elapsed":961862,"internal_node_id":"0.0-5.0-10.0"},{"group":"hexagon_tri","fractal_assignment":["../images/gry_blk.png","../images/cyn_red.png","../images/ylw_slt.png","../images/pnk_blu.png","../images/blu_wht.png","../images/org_blu.png"],"mutagen_generator_assignment":[0,1],"goal":1,"start":0,"action_noise":0.15,"location_history":"[0,5,4,2,3,2,3,2,3,2,1]","action_history":"[0,0,1,0,0,1,0,1,0,0]","mutagen_history":"[0,0,1,0,0,1,0,1,0,0]","location_rts":"[3036,457,623,888,1034,393,1010,895,1098,785]","trial_type":"fractal-mutation","trial_index":65,"time_elapsed":986222,"internal_node_id":"0.0-5.0-11.0"},{"group":"hexagon_tri","fractal_assignment":["../images/gry_blk.png","../images/cyn_red.png","../images/ylw_slt.png","../images/pnk_blu.png","../images/blu_wht.png","../images/org_blu.png"],"mutagen_generator_assignment":[0,1],"goal":3,"start":1,"action_noise":0.15,"location_history":"[1,5,0,5,4,0,1,3]","action_history":"[0,1,0,1,0,1,0]","mutagen_history":"[0,1,0,1,0,1,0]","location_rts":"[1787,1500,702,615,580,958,990]","trial_type":"fractal-mutation","trial_index":66,"time_elapsed":1004322,"internal_node_id":"0.0-5.0-12.0"},{"group":"hexagon_tri","fractal_assignment":["../images/gry_blk.png","../images/cyn_red.png","../images/ylw_slt.png","../images/pnk_blu.png","../images/blu_wht.png","../images/org_blu.png"],"mutagen_generator_assignment":[0,1],"goal":5,"start":3,"action_noise":0.15,"location_history":"[3,2,1,5]","action_history":"[0,0,1]","mutagen_history":"[0,0,1]","location_rts":"[1740,734,777]","trial_type":"fractal-mutation","trial_index":67,"time_elapsed":1014268,"internal_node_id":"0.0-5.0-13.0"},{"group":"hexagon_tri","fractal_assignment":["../images/gry_blk.png","../images/cyn_red.png","../images/ylw_slt.png","../images/pnk_blu.png","../images/blu_wht.png","../images/org_blu.png"],"mutagen_generator_assignment":[0,1],"goal":4,"start":5,"action_noise":0.15,"location_history":"[5,4]","action_history":"[0]","mutagen_history":"[0]","location_rts":"[3840]","trial_type":"fractal-mutation","trial_index":68,"time_elapsed":1022665,"internal_node_id":"0.0-5.0-14.0"},{"group":"hexagon_tri","fractal_assignment":["../images/gry_blk.png","../images/cyn_red.png","../images/ylw_slt.png","../images/pnk_blu.png","../images/blu_wht.png","../images/org_blu.png"],"mutagen_generator_assignment":[0,1],"goal":0,"start":4,"action_noise":0.15,"location_history":"[4,0]","action_history":"[0]","mutagen_history":"[0]","location_rts":"[1752]","trial_type":"fractal-mutation","trial_index":69,"time_elapsed":1028974,"internal_node_id":"0.0-5.0-15.0"},{"group":"hexagon_tri","fractal_assignment":["../images/gry_blk.png","../images/cyn_red.png","../images/ylw_slt.png","../images/pnk_blu.png","../images/blu_wht.png","../images/org_blu.png"],"mutagen_generator_assignment":[0,1],"goal":3,"start":0,"action_noise":0.15,"location_history":"[0,5,0,5,4,2,3]","action_history":"[0,1,0,1,0,1]","mutagen_history":"[0,1,0,1,0,1]","location_rts":"[1149,840,814,797,1670,5896]","trial_type":"fractal-mutation","trial_index":70,"time_elapsed":1050055,"internal_node_id":"0.0-5.0-16.0"},{"group":"hexagon_tri","fractal_assignment":["../images/gry_blk.png","../images/cyn_red.png","../images/ylw_slt.png","../images/pnk_blu.png","../images/blu_wht.png","../images/org_blu.png"],"mutagen_generator_assignment":[0,1],"goal":1,"start":3,"action_noise":0.15,"location_history":"[3,2,1]","action_history":"[0,1]","mutagen_history":"[0,1]","location_rts":"[1914,578]","trial_type":"fractal-mutation","trial_index":71,"time_elapsed":1058182,"internal_node_id":"0.0-5.0-17.0"},{"group":"hexagon_tri","fractal_assignment":["../images/gry_blk.png","../images/cyn_red.png","../images/ylw_slt.png","../images/pnk_blu.png","../images/blu_wht.png","../images/org_blu.png"],"mutagen_generator_assignment":[0,1],"goal":5,"start":1,"action_noise":0.15,"location_history":"[1,3,4,0,1,3,4,2,1,3,4,0,5]","action_history":"[0,1,0,1,0,1,1,0,0,1,0,0]","mutagen_history":"[0,1,0,1,0,1,1,0,0,1,0,0]","location_rts":"[5470,644,490,1266,984,778,847,560,904,130,620,498]","trial_type":"fractal-mutation","trial_index":72,"time_elapsed":1087659,"internal_node_id":"0.0-5.0-18.0"},{"group":"hexagon_tri","fractal_assignment":["../images/gry_blk.png","../images/cyn_red.png","../images/ylw_slt.png","../images/pnk_blu.png","../images/blu_wht.png","../images/org_blu.png"],"mutagen_generator_assignment":[0,1],"goal":2,"start":5,"action_noise":0.15,"location_history":"[5,4,2]","action_history":"[0,1]","mutagen_history":"[0,1]","location_rts":"[6665,815]","trial_type":"fractal-mutation","trial_index":73,"time_elapsed":1100773,"internal_node_id":"0.0-5.0-19.0"},{"group":"hexagon_tri","fractal_assignment":["../images/gry_blk.png","../images/cyn_red.png","../images/ylw_slt.png","../images/pnk_blu.png","../images/blu_wht.png","../images/org_blu.png"],"mutagen_generator_assignment":[0,1],"goal":4,"start":2,"action_noise":0.15,"location_history":"[2,1,3,4]","action_history":"[0,0,1]","mutagen_history":"[0,0,1]","location_rts":"[1011,390,734]","trial_type":"fractal-mutation","trial_index":74,"time_elapsed":1109595,"internal_node_id":"0.0-5.0-20.0"},{"group":"hexagon_tri","fractal_assignment":["../images/gry_blk.png","../images/cyn_red.png","../images/ylw_slt.png","../images/pnk_blu.png","../images/blu_wht.png","../images/org_blu.png"],"mutagen_generator_assignment":[0,1],"goal":1,"start":4,"action_noise":0.15,"location_history":"[4,0,5,4,2,3,4,0,5,0,5,4,2,1]","action_history":"[0,0,0,1,0,1,0,0,1,0,0,1,0]","mutagen_history":"[0,0,0,1,0,1,0,0,1,0,0,1,0]","location_rts":"[4984,460,544,350,10141,881,2599,742,404,676,504,541,390]","trial_type":"fractal-mutation","trial_index":75,"time_elapsed":1150112,"internal_node_id":"0.0-5.0-21.0"},{"group":"hexagon_tri","fractal_assignment":["../images/gry_blk.png","../images/cyn_red.png","../images/ylw_slt.png","../images/pnk_blu.png","../images/blu_wht.png","../images/org_blu.png"],"mutagen_generator_assignment":[0,1],"goal":3,"start":1,"action_noise":0.15,"location_history":"[1,5,0,5,4,0,5,4,2,1,3]","action_history":"[1,0,0,0,0,0,0,1,0,0]","mutagen_history":"[1,0,0,0,0,0,0,1,0,0]","location_rts":"[1020,462,1920,681,4094,523,549,312,354,398]","trial_type":"fractal-mutation","trial_index":76,"time_elapsed":1174522,"internal_node_id":"0.0-5.0-22.0"},{"group":"hexagon_tri","fractal_assignment":["../images/gry_blk.png","../images/cyn_red.png","../images/ylw_slt.png","../images/pnk_blu.png","../images/blu_wht.png","../images/org_blu.png"],"mutagen_generator_assignment":[0,1],"goal":2,"start":3,"action_noise":0.15,"location_history":"[3,2]","action_history":"[0]","mutagen_history":"[0]","location_rts":"[1170]","trial_type":"fractal-mutation","trial_index":77,"time_elapsed":1180253,"internal_node_id":"0.0-5.0-23.0"},{"group":"hexagon_tri","fractal_assignment":["../images/gry_blk.png","../images/cyn_red.png","../images/ylw_slt.png","../images/pnk_blu.png","../images/blu_wht.png","../images/org_blu.png"],"mutagen_generator_assignment":[0,1],"goal":0,"start":2,"action_noise":0.15,"location_history":"[2,1,3,4,2,1,5,0]","action_history":"[0,0,1,0,0,1,0]","mutagen_history":"[0,0,1,0,0,1,0]","location_rts":"[877,412,410,1139,793,1175,437]","trial_type":"fractal-mutation","trial_index":78,"time_elapsed":1196435,"internal_node_id":"0.0-5.0-24.0"},{"group":"hexagon_tri","fractal_assignment":["../images/gry_blk.png","../images/cyn_red.png","../images/ylw_slt.png","../images/pnk_blu.png","../images/blu_wht.png","../images/org_blu.png"],"mutagen_generator_assignment":[0,1],"goal":5,"start":0,"action_noise":0.15,"location_history":"[0,5]","action_history":"[0]","mutagen_history":"[0]","location_rts":"[1672]","trial_type":"fractal-mutation","trial_index":79,"time_elapsed":1202667,"internal_node_id":"0.0-5.0-25.0"},{"group":"hexagon_tri","fractal_assignment":["../images/gry_blk.png","../images/cyn_red.png","../images/ylw_slt.png","../images/pnk_blu.png","../images/blu_wht.png","../images/org_blu.png"],"mutagen_generator_assignment":[0,1],"goal":2,"start":5,"action_noise":0.15,"location_history":"[5,4,0,1,3,2]","action_history":"[0,0,1,0,0]","mutagen_history":"[0,0,1,0,0]","location_rts":"[1045,422,360,610,1288]","trial_type":"fractal-mutation","trial_index":80,"time_elapsed":1215181,"internal_node_id":"0.0-5.0-26.0"},{"group":"hexagon_tri","fractal_assignment":["../images/gry_blk.png","../images/cyn_red.png","../images/ylw_slt.png","../images/pnk_blu.png","../images/blu_wht.png","../images/org_blu.png"],"mutagen_generator_assignment":[0,1],"goal":3,"start":2,"action_noise":0.15,"location_history":"[2,1,3]","action_history":"[0,0]","mutagen_history":"[0,0]","location_rts":"[4873,421]","trial_type":"fractal-mutation","trial_index":81,"time_elapsed":1226082,"internal_node_id":"0.0-5.0-27.0"},{"group":"hexagon_tri","fractal_assignment":["../images/gry_blk.png","../images/cyn_red.png","../images/ylw_slt.png","../images/pnk_blu.png","../images/blu_wht.png","../images/org_blu.png"],"mutagen_generator_assignment":[0,1],"goal":0,"start":3,"action_noise":0.15,"location_history":"[3,2,3,2,1,5,4,0]","action_history":"[0,1,0,0,1,0,0]","mutagen_history":"[0,1,0,0,1,0,0]","location_rts":"[1439,499,407,629,386,362,370]","trial_type":"fractal-mutation","trial_index":82,"time_elapsed":1241110,"internal_node_id":"0.0-5.0-28.0"},{"group":"hexagon_tri","fractal_assignment":["../images/gry_blk.png","../images/cyn_red.png","../images/ylw_slt.png","../images/pnk_blu.png","../images/blu_wht.png","../images/org_blu.png"],"mutagen_generator_assignment":[0,1],"goal":1,"start":0,"action_noise":0.15,"location_history":"[0,5,4,0,5,0,5,0,1]","action_history":"[0,0,1,0,1,0,0,1]","mutagen_history":"[0,0,1,0,1,0,0,1]","location_rts":"[903,581,411,1181,3026,2320,1170,924]","trial_type":"fractal-mutation","trial_index":83,"time_elapsed":1263626,"internal_node_id":"0.0-5.0-29.0"},{"group":"hexagon_tri","fractal_assignment":["../images/gry_blk.png","../images/cyn_red.png","../images/ylw_slt.png","../images/pnk_blu.png","../images/blu_wht.png","../images/org_blu.png"],"mutagen_generator_assignment":[0,1],"goal":4,"start":1,"action_noise":0.15,"location_history":"[1,3,2,3,2,3,2,1,5,4]","action_history":"[0,1,0,0,1,0,0,1,0]","mutagen_history":"[0,1,0,0,1,0,0,1,0]","location_rts":"[2946,825,380,523,315,416,169,320,395]","trial_type":"fractal-mutation","trial_index":84,"time_elapsed":1282964,"internal_node_id":"0.0-5.0-30.0"},{"group":"hexagon_tri","fractal_assignment":["../images/gry_blk.png","../images/cyn_red.png","../images/ylw_slt.png","../images/pnk_blu.png","../images/blu_wht.png","../images/org_blu.png"],"mutagen_generator_assignment":[0,1],"goal":5,"start":4,"action_noise":0.15,"location_history":"[4,0,5]","action_history":"[1,0]","mutagen_history":"[1,0]","location_rts":"[5526,481]","trial_type":"fractal-mutation","trial_index":85,"time_elapsed":1294605,"internal_node_id":"0.0-5.0-31.0"},{"group":"hexagon_tri","fractal_assignment":["../images/gry_blk.png","../images/cyn_red.png","../images/ylw_slt.png","../images/pnk_blu.png","../images/blu_wht.png","../images/org_blu.png"],"mutagen_generator_assignment":[0,1],"goal":0,"start":5,"action_noise":0.15,"location_history":"[5,0]","action_history":"[1]","mutagen_history":"[1]","location_rts":"[1038]","trial_type":"fractal-mutation","trial_index":86,"time_elapsed":1300220,"internal_node_id":"0.0-5.0-32.0"},{"group":"hexagon_tri","fractal_assignment":["../images/gry_blk.png","../images/cyn_red.png","../images/ylw_slt.png","../images/pnk_blu.png","../images/blu_wht.png","../images/org_blu.png"],"mutagen_generator_assignment":[0,1],"goal":3,"start":0,"action_noise":0.15,"location_history":"[0,5,4,2,1,5,4,0,5,4,2,3]","action_history":"[0,0,1,0,1,0,1,0,0,1,0]","mutagen_history":"[0,0,1,0,1,0,1,0,0,1,0]","location_rts":"[1138,709,571,464,671,558,1117,437,488,736,599]","trial_type":"fractal-mutation","trial_index":87,"time_elapsed":1322905,"internal_node_id":"0.0-5.0-33.0"},{"group":"hexagon_tri","fractal_assignment":["../images/gry_blk.png","../images/cyn_red.png","../images/ylw_slt.png","../images/pnk_blu.png","../images/blu_wht.png","../images/org_blu.png"],"mutagen_generator_assignment":[0,1],"goal":1,"start":3,"action_noise":0.15,"location_history":"[3,4,0,1]","action_history":"[0,0,1]","mutagen_history":"[0,0,1]","location_rts":"[1404,438,482]","trial_type":"fractal-mutation","trial_index":88,"time_elapsed":1331923,"internal_node_id":"0.0-5.0-34.0"},{"group":"hexagon_tri","fractal_assignment":["../images/gry_blk.png","../images/cyn_red.png","../images/ylw_slt.png","../images/pnk_blu.png","../images/blu_wht.png","../images/org_blu.png"],"mutagen_generator_assignment":[0,1],"goal":2,"start":1,"action_noise":0.15,"location_history":"[1,3,2]","action_history":"[0,0]","mutagen_history":"[0,0]","location_rts":"[2359,598]","trial_type":"fractal-mutation","trial_index":89,"time_elapsed":1340494,"internal_node_id":"0.0-5.0-35.0"},{"group":"hexagon_tri","fractal_assignment":["../images/gry_blk.png","../images/cyn_red.png","../images/ylw_slt.png","../images/pnk_blu.png","../images/blu_wht.png","../images/org_blu.png"],"mutagen_generator_assignment":[0,1],"goal":4,"start":2,"action_noise":0.15,"location_history":"[2,1,3,4]","action_history":"[0,0,1]","mutagen_history":"[0,0,1]","location_rts":"[1004,689,533]","trial_type":"fractal-mutation","trial_index":90,"time_elapsed":1349408,"internal_node_id":"0.0-5.0-36.0"},{"group":"hexagon_tri","fractal_assignment":["../images/gry_blk.png","../images/cyn_red.png","../images/ylw_slt.png","../images/pnk_blu.png","../images/blu_wht.png","../images/org_blu.png"],"mutagen_generator_assignment":[0,1],"goal":5,"start":4,"action_noise":0.15,"location_history":"[4,2,3,4,0,5]","action_history":"[0,1,0,0,1]","mutagen_history":"[0,1,0,0,1]","location_rts":"[900,635,434,446,467]","trial_type":"fractal-mutation","trial_index":91,"time_elapsed":1361096,"internal_node_id":"0.0-5.0-37.0"},{"group":"hexagon_tri","fractal_assignment":["../images/gry_blk.png","../images/cyn_red.png","../images/ylw_slt.png","../images/pnk_blu.png","../images/blu_wht.png","../images/org_blu.png"],"mutagen_generator_assignment":[0,1],"goal":1,"start":5,"action_noise":0.15,"location_history":"[5,4,2,3,4,0,1]","action_history":"[0,1,1,0,0,1]","mutagen_history":"[0,1,1,0,0,1]","location_rts":"[1070,515,784,245,314,557]","trial_type":"fractal-mutation","trial_index":92,"time_elapsed":1374489,"internal_node_id":"0.0-5.0-38.0"},{"group":"hexagon_tri","fractal_assignment":["../images/gry_blk.png","../images/cyn_red.png","../images/ylw_slt.png","../images/pnk_blu.png","../images/blu_wht.png","../images/org_blu.png"],"mutagen_generator_assignment":[0,1],"goal":4,"start":1,"action_noise":0.15,"location_history":"[1,3,4]","action_history":"[0,1]","mutagen_history":"[0,1]","location_rts":"[868,698]","trial_type":"fractal-mutation","trial_index":93,"time_elapsed":1381684,"internal_node_id":"0.0-5.0-39.0"},{"group":"hexagon_tri","fractal_assignment":["../images/gry_blk.png","../images/cyn_red.png","../images/ylw_slt.png","../images/pnk_blu.png","../images/blu_wht.png","../images/org_blu.png"],"mutagen_generator_assignment":[0,1],"goal":3,"start":4,"action_noise":0.15,"location_history":"[4,0,5,0,5,4,2,1,5,4,0,1,3]","action_history":"[0,0,1,0,0,1,0,1,0,0,1,0]","mutagen_history":"[0,0,1,0,0,1,0,1,0,0,1,0]","location_rts":"[940,376,530,427,974,481,754,697,402,780,409,1096]","trial_type":"fractal-mutation","trial_index":94,"time_elapsed":1405806,"internal_node_id":"0.0-5.0-40.0"},{"group":"hexagon_tri","fractal_assignment":["../images/gry_blk.png","../images/cyn_red.png","../images/ylw_slt.png","../images/pnk_blu.png","../images/blu_wht.png","../images/org_blu.png"],"mutagen_generator_assignment":[0,1],"goal":2,"start":3,"action_noise":0.15,"location_history":"[3,4,0,5,4,0,5,4,0,5,4,0,5,4,0,5,0,5,0,5,0,1,3,2]","action_history":"[1,0,0,1,0,0,0,0,1,0,0,1,0,0,0,1,0,1,0,0,1,1,0]","mutagen_history":"[1,0,0,1,0,0,0,0,1,0,0,1,0,0,0,1,0,1,0,0,1,1,0]","location_rts":"[6768,1108,368,529,931,397,359,346,262,356,388,465,8323,394,329,572,501,1066,401,769,236,592,424]","trial_type":"fractal-mutation","trial_index":95,"time_elapsed":1459627,"internal_node_id":"0.0-5.0-41.0"},{"group":"hexagon_tri","fractal_assignment":["../images/gry_blk.png","../images/cyn_red.png","../images/ylw_slt.png","../images/pnk_blu.png","../images/blu_wht.png","../images/org_blu.png"],"mutagen_generator_assignment":[0,1],"goal":0,"start":2,"action_noise":0.15,"location_history":"[2,3,2,1,5,4,2,3,2,1,5,4,2,3,2,1,5,0]","action_history":"[1,0,0,1,0,1,1,0,0,1,0,0,1,0,0,1,0]","mutagen_history":"[1,0,0,1,0,1,1,0,0,1,0,0,1,0,0,1,0]","location_rts":"[4307,338,377,666,396,406,585,401,365,556,337,269,767,441,334,558,395]","trial_type":"fractal-mutation","trial_index":96,"time_elapsed":1492750,"internal_node_id":"0.0-5.0-42.0"},{"group":"hexagon_tri","fractal_assignment":["../images/gry_blk.png","../images/cyn_red.png","../images/ylw_slt.png","../images/pnk_blu.png","../images/blu_wht.png","../images/org_blu.png"],"mutagen_generator_assignment":[0,1],"goal":5,"start":0,"action_noise":0.15,"location_history":"[0,5]","action_history":"[0]","mutagen_history":"[0]","location_rts":"[1202]","trial_type":"fractal-mutation","trial_index":97,"time_elapsed":1498514,"internal_node_id":"0.0-5.0-43.0"},{"group":"hexagon_tri","fractal_assignment":["../images/gry_blk.png","../images/cyn_red.png","../images/ylw_slt.png","../images/pnk_blu.png","../images/blu_wht.png","../images/org_blu.png"],"mutagen_generator_assignment":[0,1],"goal":0,"start":5,"action_noise":0.15,"location_history":"[5,4,2,3,4,2,1,3,2,1,5,4,0]","action_history":"[0,0,1,0,1,0,1,0,0,1,0,0]","mutagen_history":"[0,0,1,0,1,0,1,0,0,1,0,0]","location_rts":"[1330,455,798,3514,585,605,607,330,436,610,400,561]","trial_type":"fractal-mutation","trial_index":98,"time_elapsed":1525002,"internal_node_id":"0.0-5.0-44.0"},{"group":"hexagon_tri","fractal_assignment":["../images/gry_blk.png","../images/cyn_red.png","../images/ylw_slt.png","../images/pnk_blu.png","../images/blu_wht.png","../images/org_blu.png"],"mutagen_generator_assignment":[0,1],"goal":2,"start":0,"action_noise":0.15,"location_history":"[0,5,0,5,4,2]","action_history":"[0,1,0,1,1]","mutagen_history":"[0,1,0,1,1]","location_rts":"[828,784,475,709,597]","trial_type":"fractal-mutation","trial_index":99,"time_elapsed":1537243,"internal_node_id":"0.0-5.0-45.0"},{"group":"hexagon_tri","fractal_assignment":["../images/gry_blk.png","../images/cyn_red.png","../images/ylw_slt.png","../images/pnk_blu.png","../images/blu_wht.png","../images/org_blu.png"],"mutagen_generator_assignment":[0,1],"goal":4,"start":2,"action_noise":0.15,"location_history":"[2,1,3,4]","action_history":"[0,0,1]","mutagen_history":"[0,0,1]","location_rts":"[873,411,518]","trial_type":"fractal-mutation","trial_index":100,"time_elapsed":1545737,"internal_node_id":"0.0-5.0-46.0"},{"group":"hexagon_tri","fractal_assignment":["../images/gry_blk.png","../images/cyn_red.png","../images/ylw_slt.png","../images/pnk_blu.png","../images/blu_wht.png","../images/org_blu.png"],"mutagen_generator_assignment":[0,1],"goal":1,"start":4,"action_noise":0.15,"location_history":"[4,0,5,0,5,4,0,1]","action_history":"[0,0,1,0,0,0,1]","mutagen_history":"[0,0,1,0,0,0,1]","location_rts":"[1704,1115,703,1755,351,558,363]","trial_type":"fractal-mutation","trial_index":101,"time_elapsed":1563215,"internal_node_id":"0.0-5.0-47.0"},{"group":"hexagon_tri","fractal_assignment":["../images/gry_blk.png","../images/cyn_red.png","../images/ylw_slt.png","../images/pnk_blu.png","../images/blu_wht.png","../images/org_blu.png"],"mutagen_generator_assignment":[0,1],"goal":5,"start":1,"action_noise":0.15,"location_history":"[1,3,2,3,2,3,2,1,5]","action_history":"[0,0,1,0,1,0,0,1]","mutagen_history":"[0,0,1,0,1,0,0,1]","location_rts":"[2182,742,584,1122,869,349,408,1312]","trial_type":"fractal-mutation","trial_index":102,"time_elapsed":1582770,"internal_node_id":"0.0-5.0-48.0"},{"group":"hexagon_tri","fractal_assignment":["../images/gry_blk.png","../images/cyn_red.png","../images/ylw_slt.png","../images/pnk_blu.png","../images/blu_wht.png","../images/org_blu.png"],"mutagen_generator_assignment":[0,1],"goal":3,"start":5,"action_noise":0.15,"location_history":"[5,4,2,3]","action_history":"[0,1,1]","mutagen_history":"[0,1,1]","location_rts":"[797,675,474]","trial_type":"fractal-mutation","trial_index":103,"time_elapsed":1591437,"internal_node_id":"0.0-5.0-49.0"},{"view_history":"[{\"page_index\":0,\"viewing_time\":4494}]","rt":4494,"trial_type":"instructions","trial_index":104,"time_elapsed":1596932,"internal_node_id":"0.0-6.0"},{"rt":1492,"responses":"{\"Q0\":\"\"}","trial_type":"survey-text","trial_index":105,"time_elapsed":1599430,"internal_node_id":"0.0-7.0"}]