[{"view_history":"[{\"page_index\":0,\"viewing_time\":97181},{\"page_index\":1,\"viewing_time\":11318}]","rt":108502,"trial_type":"instructions","trial_index":0,"time_elapsed":108504,"internal_node_id":"0.0-0.0"},{"view_history":"[{\"page_index\":0,\"viewing_time\":6684},{\"page_index\":1,\"viewing_time\":17009}]","rt":23693,"trial_type":"instructions","trial_index":1,"time_elapsed":133198,"internal_node_id":"0.0-1.0"},{"group":"hexagon_bi","room_assignment":["purple","yellow","red","green","blue","grey"],"door_color_assignment":["white","black"],"door_generator_assignment":[0,1],"goal":3,"start":5,"action_noise":0.15,"location_history":"[5,4,5,0,5,0,5,4,3]","action_history":"[1,1,0,1,0,0,1,0]","door_history":"[1,1,0,1,0,0,1,0]","location_rts":"[2979,2160,934,1138,1585,344,2033,1301]","trial_type":"two-door-navigation","trial_index":2,"time_elapsed":157573,"internal_node_id":"0.0-2.0-0.0"},{"group":"hexagon_bi","room_assignment":["purple","yellow","red","green","blue","grey"],"door_color_assignment":["white","black"],"door_generator_assignment":[0,1],"goal":1,"start":3,"action_noise":0.15,"location_history":"[3,2,3,4,5,4,5,0,1]","action_history":"[0,1,0,0,1,1,0,1]","door_history":"[0,1,0,0,1,1,0,1]","location_rts":"[1552,1485,1430,1069,1735,7062,1260,1415]","trial_type":"two-door-navigation","trial_index":3,"time_elapsed":186613,"internal_node_id":"0.0-2.0-1.0"},{"group":"hexagon_bi","room_assignment":["purple","yellow","red","green","blue","grey"],"door_color_assignment":["white","black"],"door_generator_assignment":[0,1],"goal":0,"start":1,"action_noise":0.15,"location_history":"[1,0]","action_history":"[0]","door_history":"[0]","location_rts":"[6617]","trial_type":"two-door-navigation","trial_index":4,"time_elapsed":197742,"internal_node_id":"0.0-2.0-2.0"},{"group":"hexagon_bi","room_assignment":["purple","yellow","red","green","blue","grey"],"door_color_assignment":["white","black"],"door_generator_assignment":[0,1],"goal":3,"start":0,"action_noise":0.15,"location_history":"[0,1,0,5,0,1,0,1,0,5,4,5,4,3]","action_history":"[1,1,0,0,1,1,1,0,0,0,1,1,0]","door_history":"[1,1,0,0,1,1,1,0,0,0,1,1,0]","location_rts":"[1656,1623,1456,1240,1204,832,1423,400,1200,2124,952,1296,736]","trial_type":"two-door-navigation","trial_index":5,"time_elapsed":230905,"internal_node_id":"0.0-2.0-3.0"},{"group":"hexagon_bi","room_assignment":["purple","yellow","red","green","blue","grey"],"door_color_assignment":["white","black"],"door_generator_assignment":[0,1],"goal":4,"start":3,"action_noise":0.15,"location_history":"[3,2,1,2,3,2,3,4]","action_history":"[1,0,1,1,1,1,0]","door_history":"[1,0,1,1,1,1,0]","location_rts":"[1564,1654,1297,679,1099,964,264]","trial_type":"two-door-navigation","trial_index":6,"time_elapsed":249236,"internal_node_id":"0.0-2.0-4.0"},{"group":"hexagon_bi","room_assignment":["purple","yellow","red","green","blue","grey"],"door_color_assignment":["white","black"],"door_generator_assignment":[0,1],"goal":2,"start":4,"action_noise":0.15,"location_history":"[4,5,4,3,2]","action_history":"[1,1,0,1]","door_history":"[1,1,0,1]","location_rts":"[1426,6442,874,1415]","trial_type":"two-door-navigation","trial_index":7,"time_elapsed":267139,"internal_node_id":"0.0-2.0-5.0"},{"group":"hexagon_bi","room_assignment":["purple","yellow","red","green","blue","grey"],"door_color_assignment":["white","black"],"door_generator_assignment":[0,1],"goal":1,"start":2,"action_noise":0.15,"location_history":"[2,1]","action_history":"[0]","door_history":"[0]","location_rts":"[2456]","trial_type":"two-door-navigation","trial_index":8,"time_elapsed":274106,"internal_node_id":"0.0-2.0-6.0"},{"group":"hexagon_bi","room_assignment":["purple","yellow","red","green","blue","grey"],"door_color_assignment":["white","black"],"door_generator_assignment":[0,1],"goal":5,"start":1,"action_noise":0.15,"location_history":"[1,0,1,0,1,2,3,4,3,4,5]","action_history":"[0,1,1,0,0,1,1,0,0,1]","door_history":"[0,1,1,0,0,1,1,0,0,1]","location_rts":"[1909,1054,603,1767,1248,1137,1046,1919,1196,1862]","trial_type":"two-door-navigation","trial_index":9,"time_elapsed":301737,"internal_node_id":"0.0-2.0-7.0"},{"group":"hexagon_bi","room_assignment":["purple","yellow","red","green","blue","grey"],"door_color_assignment":["white","black"],"door_generator_assignment":[0,1],"goal":4,"start":5,"action_noise":0.15,"location_history":"[5,4]","action_history":"[1]","door_history":"[1]","location_rts":"[1059]","trial_type":"two-door-navigation","trial_index":10,"time_elapsed":307370,"internal_node_id":"0.0-2.0-8.0"},{"group":"hexagon_bi","room_assignment":["purple","yellow","red","green","blue","grey"],"door_color_assignment":["white","black"],"door_generator_assignment":[0,1],"goal":2,"start":4,"action_noise":0.15,"location_history":"[4,5,0,1,2]","action_history":"[1,0,1,0]","door_history":"[1,0,1,0]","location_rts":"[7836,2417,1432,799]","trial_type":"two-door-navigation","trial_index":11,"time_elapsed":327550,"internal_node_id":"0.0-2.0-9.0"},{"group":"hexagon_bi","room_assignment":["purple","yellow","red","green","blue","grey"],"door_color_assignment":["white","black"],"door_generator_assignment":[0,1],"goal":0,"start":2,"action_noise":0.15,"location_history":"[2,1,2,3,2,3,4,5,4,3,4,5,4,5,0]","action_history":"[1,0,1,1,0,0,1,1,0,0,1,1,1,0]","door_history":"[1,0,1,1,0,0,1,1,0,0,1,1,1,0]","location_rts":"[16680,4280,2853,23213,5633,7796,11128,4937,1020,891,1217,1273,1051,535]","trial_type":"two-door-navigation","trial_index":12,"time_elapsed":428220,"internal_node_id":"0.0-2.0-10.0"},{"group":"hexagon_bi","room_assignment":["purple","yellow","red","green","blue","grey"],"door_color_assignment":["white","black"],"door_generator_assignment":[0,1],"goal":1,"start":0,"action_noise":0.15,"location_history":"[0,5,4,5,4,3,2,3,4,3,2,1]","action_history":"[0,1,0,0,0,1,1,0,1,1,0]","door_history":"[0,1,0,0,0,1,1,0,1,1,0]","location_rts":"[2072,1252,8933,3939,459,8958,7097,4154,5072,8217,10079]","trial_type":"two-door-navigation","trial_index":13,"time_elapsed":503471,"internal_node_id":"0.0-2.0-11.0"},{"group":"hexagon_bi","room_assignment":["purple","yellow","red","green","blue","grey"],"door_color_assignment":["white","black"],"door_generator_assignment":[0,1],"goal":3,"start":1,"action_noise":0.15,"location_history":"[1,2,3]","action_history":"[1,1]","door_history":"[1,1]","location_rts":"[10847,3808]","trial_type":"two-door-navigation","trial_index":14,"time_elapsed":523748,"internal_node_id":"0.0-2.0-12.0"},{"group":"hexagon_bi","room_assignment":["purple","yellow","red","green","blue","grey"],"door_color_assignment":["white","black"],"door_generator_assignment":[0,1],"goal":5,"start":3,"action_noise":0.15,"location_history":"[3,4,5]","action_history":"[1,1]","door_history":"[1,1]","location_rts":"[5171,797]","trial_type":"two-door-navigation","trial_index":15,"time_elapsed":535394,"internal_node_id":"0.0-2.0-13.0"},{"group":"hexagon_bi","room_assignment":["purple","yellow","red","green","blue","grey"],"door_color_assignment":["white","black"],"door_generator_assignment":[0,1],"goal":4,"start":5,"action_noise":0.15,"location_history":"[5,4]","action_history":"[1]","door_history":"[1]","location_rts":"[18550]","trial_type":"two-door-navigation","trial_index":16,"time_elapsed":558527,"internal_node_id":"0.0-2.0-14.0"},{"group":"hexagon_bi","room_assignment":["purple","yellow","red","green","blue","grey"],"door_color_assignment":["white","black"],"door_generator_assignment":[0,1],"goal":0,"start":4,"action_noise":0.15,"location_history":"[4,5,4,3,4,5,4,5,0]","action_history":"[1,1,0,0,1,1,1,0]","door_history":"[1,1,0,0,1,1,1,0]","location_rts":"[2730,1698,1652,3912,2117,1785,1300,1542]","trial_type":"two-door-navigation","trial_index":17,"time_elapsed":587245,"internal_node_id":"0.0-2.0-15.0"},{"group":"hexagon_bi","room_assignment":["purple","yellow","red","green","blue","grey"],"door_color_assignment":["white","black"],"door_generator_assignment":[0,1],"goal":3,"start":0,"action_noise":0.15,"location_history":"[0,1,2,1,2,3]","action_history":"[1,0,1,0,1]","door_history":"[1,0,1,0,1]","location_rts":"[15074,10740,5314,4466,3612]","trial_type":"two-door-navigation","trial_index":18,"time_elapsed":636423,"internal_node_id":"0.0-2.0-16.0"},{"group":"hexagon_bi","room_assignment":["purple","yellow","red","green","blue","grey"],"door_color_assignment":["white","black"],"door_generator_assignment":[0,1],"goal":1,"start":3,"action_noise":0.15,"location_history":"[3,2,3,2,1]","action_history":"[1,0,1,0]","door_history":"[1,0,1,0]","location_rts":"[6379,2003,2023,2285]","trial_type":"two-door-navigation","trial_index":19,"time_elapsed":656851,"internal_node_id":"0.0-2.0-17.0"},{"group":"hexagon_bi","room_assignment":["purple","yellow","red","green","blue","grey"],"door_color_assignment":["white","black"],"door_generator_assignment":[0,1],"goal":5,"start":1,"action_noise":0.15,"location_history":"[1,0,5]","action_history":"[1,0]","door_history":"[1,0]","location_rts":"[6795,3270]","trial_type":"two-door-navigation","trial_index":20,"time_elapsed":672468,"internal_node_id":"0.0-2.0-18.0"},{"group":"hexagon_bi","room_assignment":["purple","yellow","red","green","blue","grey"],"door_color_assignment":["white","black"],"door_generator_assignment":[0,1],"goal":2,"start":5,"action_noise":0.15,"location_history":"[5,0,5,0,5,0,1,0,1,2]","action_history":"[0,0,0,0,0,0,1,0,0]","door_history":"[0,0,0,0,0,0,1,0,0]","location_rts":"[4067,11756,834,405,483,268,3158,1791,608]","trial_type":"two-door-navigation","trial_index":21,"time_elapsed":708743,"internal_node_id":"0.0-2.0-19.0"},{"group":"hexagon_bi","room_assignment":["purple","yellow","red","green","blue","grey"],"door_color_assignment":["white","black"],"door_generator_assignment":[0,1],"goal":4,"start":2,"action_noise":0.15,"location_history":"[2,3,4]","action_history":"[1,0]","door_history":"[1,0]","location_rts":"[6549,3245]","trial_type":"two-door-navigation","trial_index":22,"time_elapsed":724106,"internal_node_id":"0.0-2.0-20.0"},{"group":"hexagon_bi","room_assignment":["purple","yellow","red","green","blue","grey"],"door_color_assignment":["white","black"],"door_generator_assignment":[0,1],"goal":1,"start":4,"action_noise":0.15,"location_history":"[4,5,4,3,4,5,0,1]","action_history":"[1,1,0,0,1,0,1]","door_history":"[1,1,0,0,1,0,1]","location_rts":"[4691,3395,6010,2772,2751,3970,3023]","trial_type":"two-door-navigation","trial_index":23,"time_elapsed":761599,"internal_node_id":"0.0-2.0-21.0"},{"group":"hexagon_bi","room_assignment":["purple","yellow","red","green","blue","grey"],"door_color_assignment":["white","black"],"door_generator_assignment":[0,1],"goal":3,"start":1,"action_noise":0.15,"location_history":"[1,0,1,0,1,0,1,0,5,4,5,4,5,4,5,0,5,4,5,0,1,0,1,2,3]","action_history":"[1,1,0,0,1,1,1,0,1,1,1,1,1,1,0,0,1,1,0,1,1,1,0,1]","door_history":"[1,1,0,0,1,1,1,0,1,1,1,1,1,1,0,0,1,1,0,1,1,1,0,1]","location_rts":"[5026,5516,1489,854,1171,802,621,1451,1241,3075,870,268,415,259,768,2482,1408,1433,2151,1092,1043,2206,775,999]","trial_type":"two-door-navigation","trial_index":24,"time_elapsed":827659,"internal_node_id":"0.0-2.0-22.0"},{"group":"hexagon_bi","room_assignment":["purple","yellow","red","green","blue","grey"],"door_color_assignment":["white","black"],"door_generator_assignment":[0,1],"goal":2,"start":3,"action_noise":0.15,"location_history":"[3,2]","action_history":"[1]","door_history":"[1]","location_rts":"[5594]","trial_type":"two-door-navigation","trial_index":25,"time_elapsed":837794,"internal_node_id":"0.0-2.0-23.0"},{"group":"hexagon_bi","room_assignment":["purple","yellow","red","green","blue","grey"],"door_color_assignment":["white","black"],"door_generator_assignment":[0,1],"goal":0,"start":2,"action_noise":0.15,"location_history":"[2,3,2,1,2,3,4,3,4,3,4,5,4,3,2,1,2,3,2,3,4,5,0]","action_history":"[1,0,0,0,1,0,0,1,0,0,1,0,1,1,0,0,1,1,0,0,1,0]","door_history":"[1,0,0,0,1,0,0,1,0,0,1,0,1,1,0,0,1,1,0,0,1,0]","location_rts":"[14192,3616,1992,7179,5598,3046,3627,4180,3482,2411,4886,3329,1576,1069,847,798,1191,731,1306,772,1004,394]","trial_type":"two-door-navigation","trial_index":26,"time_elapsed":931579,"internal_node_id":"0.0-2.0-24.0"},{"group":"hexagon_bi","room_assignment":["purple","yellow","red","green","blue","grey"],"door_color_assignment":["white","black"],"door_generator_assignment":[0,1],"goal":5,"start":0,"action_noise":0.15,"location_history":"[0,5]","action_history":"[0]","door_history":"[0]","location_rts":"[1905]","trial_type":"two-door-navigation","trial_index":27,"time_elapsed":938009,"internal_node_id":"0.0-2.0-25.0"},{"group":"hexagon_bi","room_assignment":["purple","yellow","red","green","blue","grey"],"door_color_assignment":["white","black"],"door_generator_assignment":[0,1],"goal":2,"start":5,"action_noise":0.15,"location_history":"[5,4,3,2]","action_history":"[1,0,1]","door_history":"[1,0,1]","location_rts":"[4465,5138,714]","trial_type":"two-door-navigation","trial_index":28,"time_elapsed":954892,"internal_node_id":"0.0-2.0-26.0"},{"group":"hexagon_bi","room_assignment":["purple","yellow","red","green","blue","grey"],"door_color_assignment":["white","black"],"door_generator_assignment":[0,1],"goal":3,"start":2,"action_noise":0.15,"location_history":"[2,3]","action_history":"[1]","door_history":"[1]","location_rts":"[4302]","trial_type":"two-door-navigation","trial_index":29,"time_elapsed":963992,"internal_node_id":"0.0-2.0-27.0"},{"group":"hexagon_bi","room_assignment":["purple","yellow","red","green","blue","grey"],"door_color_assignment":["white","black"],"door_generator_assignment":[0,1],"goal":0,"start":3,"action_noise":0.15,"location_history":"[3,2,1,0]","action_history":"[1,0,1]","door_history":"[1,0,1]","location_rts":"[9335,2758,2986]","trial_type":"two-door-navigation","trial_index":30,"time_elapsed":985661,"internal_node_id":"0.0-2.0-28.0"},{"group":"hexagon_bi","room_assignment":["purple","yellow","red","green","blue","grey"],"door_color_assignment":["white","black"],"door_generator_assignment":[0,1],"goal":1,"start":0,"action_noise":0.15,"location_history":"[0,1]","action_history":"[1]","door_history":"[1]","location_rts":"[5697]","trial_type":"two-door-navigation","trial_index":31,"time_elapsed":995869,"internal_node_id":"0.0-2.0-29.0"},{"group":"hexagon_bi","room_assignment":["purple","yellow","red","green","blue","grey"],"door_color_assignment":["white","black"],"door_generator_assignment":[0,1],"goal":4,"start":1,"action_noise":0.15,"location_history":"[1,0,5,4]","action_history":"[1,0,1]","door_history":"[1,0,1]","location_rts":"[9105,11480,5242]","trial_type":"two-door-navigation","trial_index":32,"time_elapsed":1028357,"internal_node_id":"0.0-2.0-30.0"},{"group":"hexagon_bi","room_assignment":["purple","yellow","red","green","blue","grey"],"door_color_assignment":["white","black"],"door_generator_assignment":[0,1],"goal":5,"start":4,"action_noise":0.15,"location_history":"[4,5]","action_history":"[1]","door_history":"[1]","location_rts":"[4864]","trial_type":"two-door-navigation","trial_index":33,"time_elapsed":1037790,"internal_node_id":"0.0-2.0-31.0"},{"group":"hexagon_bi","room_assignment":["purple","yellow","red","green","blue","grey"],"door_color_assignment":["white","black"],"door_generator_assignment":[0,1],"goal":0,"start":5,"action_noise":0.15,"location_history":"[5,4,5,4,5,0]","action_history":"[1,1,0,1,0]","door_history":"[1,1,0,1,0]","location_rts":"[1990,5525,370,1535,60]","trial_type":"two-door-navigation","trial_index":34,"time_elapsed":1055977,"internal_node_id":"0.0-2.0-32.0"},{"group":"hexagon_bi","room_assignment":["purple","yellow","red","green","blue","grey"],"door_color_assignment":["white","black"],"door_generator_assignment":[0,1],"goal":3,"start":0,"action_noise":0.15,"location_history":"[0,5,0,1,2,3]","action_history":"[0,1,1,0,1]","door_history":"[0,1,1,0,1]","location_rts":"[4906,1326,1330,6272,2341]","trial_type":"two-door-navigation","trial_index":35,"time_elapsed":1080871,"internal_node_id":"0.0-2.0-33.0"},{"group":"hexagon_bi","room_assignment":["purple","yellow","red","green","blue","grey"],"door_color_assignment":["white","black"],"door_generator_assignment":[0,1],"goal":1,"start":3,"action_noise":0.15,"location_history":"[3,4,5,4,5,0,5,4,5,4,5,4,3,4,3,2,1]","action_history":"[0,1,1,1,1,1,1,1,1,0,1,1,0,0,1,0]","door_history":"[0,1,1,1,1,1,1,1,1,0,1,1,0,0,1,0]","location_rts":"[1860,1686,848,6392,707,3366,915,275,491,937,1130,700,3674,3116,2469,2539]","trial_type":"two-door-navigation","trial_index":36,"time_elapsed":1132103,"internal_node_id":"0.0-2.0-34.0"},{"group":"hexagon_bi","room_assignment":["purple","yellow","red","green","blue","grey"],"door_color_assignment":["white","black"],"door_generator_assignment":[0,1],"goal":2,"start":1,"action_noise":0.15,"location_history":"[1,0,1,0,1,2]","action_history":"[0,1,1,1,0]","door_history":"[0,1,1,1,0]","location_rts":"[6477,8406,4598,700,165]","trial_type":"two-door-navigation","trial_index":37,"time_elapsed":1161068,"internal_node_id":"0.0-2.0-35.0"},{"group":"hexagon_bi","room_assignment":["purple","yellow","red","green","blue","grey"],"door_color_assignment":["white","black"],"door_generator_assignment":[0,1],"goal":4,"start":2,"action_noise":0.15,"location_history":"[2,3,4]","action_history":"[1,0]","door_history":"[1,0]","location_rts":"[1640,1584]","trial_type":"two-door-navigation","trial_index":38,"time_elapsed":1170035,"internal_node_id":"0.0-2.0-36.0"},{"group":"hexagon_bi","room_assignment":["purple","yellow","red","green","blue","grey"],"door_color_assignment":["white","black"],"door_generator_assignment":[0,1],"goal":5,"start":4,"action_noise":0.15,"location_history":"[4,5]","action_history":"[1]","door_history":"[1]","location_rts":"[1892]","trial_type":"two-door-navigation","trial_index":39,"time_elapsed":1176563,"internal_node_id":"0.0-2.0-37.0"},{"group":"hexagon_bi","room_assignment":["purple","yellow","red","green","blue","grey"],"door_color_assignment":["white","black"],"door_generator_assignment":[0,1],"goal":1,"start":5,"action_noise":0.15,"location_history":"[5,4,3,2,1]","action_history":"[1,1,1,0]","door_history":"[1,1,1,0]","location_rts":"[6679,3896,3813,2818]","trial_type":"two-door-navigation","trial_index":40,"time_elapsed":1201613,"internal_node_id":"0.0-2.0-38.0"},{"group":"hexagon_bi","room_assignment":["purple","yellow","red","green","blue","grey"],"door_color_assignment":["white","black"],"door_generator_assignment":[0,1],"goal":4,"start":1,"action_noise":0.15,"location_history":"[1,0,1,2,3,4]","action_history":"[1,1,0,1,0]","door_history":"[1,1,0,1,0]","location_rts":"[3204,5060,2250,3001,1223]","trial_type":"two-door-navigation","trial_index":41,"time_elapsed":1225234,"internal_node_id":"0.0-2.0-39.0"},{"group":"hexagon_bi","room_assignment":["purple","yellow","red","green","blue","grey"],"door_color_assignment":["white","black"],"door_generator_assignment":[0,1],"goal":3,"start":4,"action_noise":0.15,"location_history":"[4,3]","action_history":"[1]","door_history":"[1]","location_rts":"[3396]","trial_type":"two-door-navigation","trial_index":42,"time_elapsed":1233216,"internal_node_id":"0.0-2.0-40.0"},{"group":"hexagon_bi","room_assignment":["purple","yellow","red","green","blue","grey"],"door_color_assignment":["white","black"],"door_generator_assignment":[0,1],"goal":2,"start":3,"action_noise":0.15,"location_history":"[3,2]","action_history":"[1]","door_history":"[1]","location_rts":"[3773]","trial_type":"two-door-navigation","trial_index":43,"time_elapsed":1241491,"internal_node_id":"0.0-2.0-41.0"},{"group":"hexagon_bi","room_assignment":["purple","yellow","red","green","blue","grey"],"door_color_assignment":["white","black"],"door_generator_assignment":[0,1],"goal":0,"start":2,"action_noise":0.15,"location_history":"[2,3,4,3,2,1,2,1,2,3,4,3,4,5,0]","action_history":"[1,0,0,1,0,0,0,1,1,0,0,0,1,0]","door_history":"[1,0,0,1,0,0,0,1,1,0,0,0,1,0]","location_rts":"[5233,1659,4429,4569,3255,2608,1141,382,3168,2959,724,1226,552,2972]","trial_type":"two-door-navigation","trial_index":44,"time_elapsed":1294312,"internal_node_id":"0.0-2.0-42.0"},{"group":"hexagon_bi","room_assignment":["purple","yellow","red","green","blue","grey"],"door_color_assignment":["white","black"],"door_generator_assignment":[0,1],"goal":5,"start":0,"action_noise":0.15,"location_history":"[0,1,2,1,0,1,0,5]","action_history":"[1,0,0,1,1,1,0]","door_history":"[1,0,0,1,1,1,0]","location_rts":"[5149,1323,712,837,977,857,1915]","trial_type":"two-door-navigation","trial_index":45,"time_elapsed":1316959,"internal_node_id":"0.0-2.0-43.0"},{"group":"hexagon_bi","room_assignment":["purple","yellow","red","green","blue","grey"],"door_color_assignment":["white","black"],"door_generator_assignment":[0,1],"goal":0,"start":5,"action_noise":0.15,"location_history":"[5,0]","action_history":"[0]","door_history":"[0]","location_rts":"[3966]","trial_type":"two-door-navigation","trial_index":46,"time_elapsed":1325475,"internal_node_id":"0.0-2.0-44.0"},{"group":"hexagon_bi","room_assignment":["purple","yellow","red","green","blue","grey"],"door_color_assignment":["white","black"],"door_generator_assignment":[0,1],"goal":2,"start":0,"action_noise":0.15,"location_history":"[0,1,0,1,2]","action_history":"[1,1,1,0]","door_history":"[1,1,1,0]","location_rts":"[3917,1916,2901,193]","trial_type":"two-door-navigation","trial_index":47,"time_elapsed":1342220,"internal_node_id":"0.0-2.0-45.0"},{"group":"hexagon_bi","room_assignment":["purple","yellow","red","green","blue","grey"],"door_color_assignment":["white","black"],"door_generator_assignment":[0,1],"goal":4,"start":2,"action_noise":0.15,"location_history":"[2,3,2,3,4]","action_history":"[1,1,1,0]","door_history":"[1,1,1,0]","location_rts":"[3668,633,1977,295]","trial_type":"two-door-navigation","trial_index":48,"time_elapsed":1356475,"internal_node_id":"0.0-2.0-46.0"},{"group":"hexagon_bi","room_assignment":["purple","yellow","red","green","blue","grey"],"door_color_assignment":["white","black"],"door_generator_assignment":[0,1],"goal":1,"start":4,"action_noise":0.15,"location_history":"[4,5,4,3,4,3,2,1]","action_history":"[1,0,1,0,0,1,0]","door_history":"[1,0,1,0,0,1,0]","location_rts":"[4594,3442,4421,333,1141,1053,2958]","trial_type":"two-door-navigation","trial_index":49,"time_elapsed":1385205,"internal_node_id":"0.0-2.0-47.0"},{"group":"hexagon_bi","room_assignment":["purple","yellow","red","green","blue","grey"],"door_color_assignment":["white","black"],"door_generator_assignment":[0,1],"goal":5,"start":1,"action_noise":0.15,"location_history":"[1,2,3,4,3,4,5]","action_history":"[0,1,0,0,0,1]","door_history":"[0,1,0,0,0,1]","location_rts":"[3505,4536,1850,2288,1134,290]","trial_type":"two-door-navigation","trial_index":50,"time_elapsed":1408458,"internal_node_id":"0.0-2.0-48.0"},{"group":"hexagon_bi","room_assignment":["purple","yellow","red","green","blue","grey"],"door_color_assignment":["white","black"],"door_generator_assignment":[0,1],"goal":3,"start":5,"action_noise":0.15,"location_history":"[5,0,1,0,5,0,1,2,3]","action_history":"[1,1,1,0,0,0,0,1]","door_history":"[1,1,1,0,0,0,0,1]","location_rts":"[3404,1185,2597,2603,4834,813,1038,2446]","trial_type":"two-door-navigation","trial_index":51,"time_elapsed":1439134,"internal_node_id":"0.0-2.0-49.0"},{"view_history":"[{\"page_index\":0,\"viewing_time\":2655}]","rt":2656,"trial_type":"instructions","trial_index":52,"time_elapsed":1442790,"internal_node_id":"0.0-3.0"},{"view_history":"[{\"page_index\":0,\"viewing_time\":3973},{\"page_index\":1,\"viewing_time\":11280}]","rt":15254,"trial_type":"instructions","trial_index":53,"time_elapsed":1459054,"internal_node_id":"0.0-4.0"},{"group":"hexagon_bi","fractal_assignment":["../images/ylw_slt.png","../images/gry_blk.png","../images/blu_wht.png","../images/org_blu.png","../images/pnk_blu.png","../images/cyn_red.png"],"mutagen_generator_assignment":[1,0],"goal":3,"start":5,"action_noise":0.15,"location_history":"[5,0,1,2,1,2,1,0,1,2,1,0,1,2,1,0,1,2,1,0,5,4,3]","action_history":"[0,1,1,0,0,0,1,1,0,0,0,0,1,1,1,1,0,0,1,0,1,0]","mutagen_history":"[1,0,0,1,1,1,0,0,1,1,1,1,0,0,0,0,1,1,0,1,0,1]","location_rts":"[2128,853,1117,1046,1101,1335,1054,1265,1655,1044,1085,991,2391,780,714,811,2604,1787,1908,1939,1427,651]","trial_type":"fractal-mutation","trial_index":54,"time_elapsed":1516754,"internal_node_id":"0.0-5.0-0.0"},{"group":"hexagon_bi","fractal_assignment":["../images/ylw_slt.png","../images/gry_blk.png","../images/blu_wht.png","../images/org_blu.png","../images/pnk_blu.png","../images/cyn_red.png"],"mutagen_generator_assignment":[1,0],"goal":1,"start":3,"action_noise":0.15,"location_history":"[3,4,5,0,5,4,3,4,3,2,1]","action_history":"[0,1,0,0,1,0,0,0,1,0]","mutagen_history":"[1,0,1,1,0,1,1,1,0,1]","location_rts":"[1613,1764,863,919,1122,1792,1195,1290,466,1090]","trial_type":"fractal-mutation","trial_index":55,"time_elapsed":1543706,"internal_node_id":"0.0-5.0-1.0"},{"group":"hexagon_bi","fractal_assignment":["../images/ylw_slt.png","../images/gry_blk.png","../images/blu_wht.png","../images/org_blu.png","../images/pnk_blu.png","../images/cyn_red.png"],"mutagen_generator_assignment":[1,0],"goal":0,"start":1,"action_noise":0.15,"location_history":"[1,2,3,4,5,0]","action_history":"[0,1,0,1,0]","mutagen_history":"[1,0,1,0,1]","location_rts":"[2006,1109,1115,1325,788]","trial_type":"fractal-mutation","trial_index":56,"time_elapsed":1559225,"internal_node_id":"0.0-5.0-2.0"},{"group":"hexagon_bi","fractal_assignment":["../images/ylw_slt.png","../images/gry_blk.png","../images/blu_wht.png","../images/org_blu.png","../images/pnk_blu.png","../images/cyn_red.png"],"mutagen_generator_assignment":[1,0],"goal":3,"start":0,"action_noise":0.15,"location_history":"[0,1,0,5,0,5,4,3]","action_history":"[1,1,0,0,0,1,0]","mutagen_history":"[0,0,1,1,1,0,1]","location_rts":"[1712,1171,473,1413,1207,359,878]","trial_type":"fractal-mutation","trial_index":57,"time_elapsed":1577630,"internal_node_id":"0.0-5.0-3.0"},{"group":"hexagon_bi","fractal_assignment":["../images/ylw_slt.png","../images/gry_blk.png","../images/blu_wht.png","../images/org_blu.png","../images/pnk_blu.png","../images/cyn_red.png"],"mutagen_generator_assignment":[1,0],"goal":4,"start":3,"action_noise":0.15,"location_history":"[3,4]","action_history":"[1]","mutagen_history":"[0]","location_rts":"[1859]","trial_type":"fractal-mutation","trial_index":58,"time_elapsed":1584182,"internal_node_id":"0.0-5.0-4.0"},{"group":"hexagon_bi","fractal_assignment":["../images/ylw_slt.png","../images/gry_blk.png","../images/blu_wht.png","../images/org_blu.png","../images/pnk_blu.png","../images/cyn_red.png"],"mutagen_generator_assignment":[1,0],"goal":2,"start":4,"action_noise":0.15,"location_history":"[4,3,4,3,2]","action_history":"[0,0,0,1]","mutagen_history":"[1,1,1,0]","location_rts":"[1508,1050,1262,498]","trial_type":"fractal-mutation","trial_index":59,"time_elapsed":1596396,"internal_node_id":"0.0-5.0-5.0"},{"group":"hexagon_bi","fractal_assignment":["../images/ylw_slt.png","../images/gry_blk.png","../images/blu_wht.png","../images/org_blu.png","../images/pnk_blu.png","../images/cyn_red.png"],"mutagen_generator_assignment":[1,0],"goal":1,"start":2,"action_noise":0.15,"location_history":"[2,3,2,3,2,1]","action_history":"[0,1,1,1,0]","mutagen_history":"[1,0,0,0,1]","location_rts":"[1319,1467,893,1012,1254]","trial_type":"fractal-mutation","trial_index":60,"time_elapsed":1611483,"internal_node_id":"0.0-5.0-6.0"},{"group":"hexagon_bi","fractal_assignment":["../images/ylw_slt.png","../images/gry_blk.png","../images/blu_wht.png","../images/org_blu.png","../images/pnk_blu.png","../images/cyn_red.png"],"mutagen_generator_assignment":[1,0],"goal":5,"start":1,"action_noise":0.15,"location_history":"[1,0,1,2,3,2,1,2,1,0,1,0,5]","action_history":"[1,1,0,1,1,0,0,0,1,1,1,0]","mutagen_history":"[0,0,1,0,0,1,1,1,0,0,0,1]","location_rts":"[1434,1111,950,745,1283,1099,1062,833,1055,1071,886,810]","trial_type":"fractal-mutation","trial_index":61,"time_elapsed":1640640,"internal_node_id":"0.0-5.0-7.0"},{"group":"hexagon_bi","fractal_assignment":["../images/ylw_slt.png","../images/gry_blk.png","../images/blu_wht.png","../images/org_blu.png","../images/pnk_blu.png","../images/cyn_red.png"],"mutagen_generator_assignment":[1,0],"goal":4,"start":5,"action_noise":0.15,"location_history":"[5,4]","action_history":"[1]","mutagen_history":"[0]","location_rts":"[2649]","trial_type":"fractal-mutation","trial_index":62,"time_elapsed":1648010,"internal_node_id":"0.0-5.0-8.0"},{"group":"hexagon_bi","fractal_assignment":["../images/ylw_slt.png","../images/gry_blk.png","../images/blu_wht.png","../images/org_blu.png","../images/pnk_blu.png","../images/cyn_red.png"],"mutagen_generator_assignment":[1,0],"goal":2,"start":4,"action_noise":0.15,"location_history":"[4,5,4,5,0,5,4,3,2]","action_history":"[0,1,1,0,0,1,0,0]","mutagen_history":"[1,0,0,1,1,0,1,1]","location_rts":"[1227,1714,1204,1556,954,1759,1947,1061]","trial_type":"fractal-mutation","trial_index":63,"time_elapsed":1671694,"internal_node_id":"0.0-5.0-9.0"},{"group":"hexagon_bi","fractal_assignment":["../images/ylw_slt.png","../images/gry_blk.png","../images/blu_wht.png","../images/org_blu.png","../images/pnk_blu.png","../images/cyn_red.png"],"mutagen_generator_assignment":[1,0],"goal":0,"start":2,"action_noise":0.15,"location_history":"[2,1,0]","action_history":"[0,0]","mutagen_history":"[1,1]","location_rts":"[1189,1272]","trial_type":"fractal-mutation","trial_index":64,"time_elapsed":1679809,"internal_node_id":"0.0-5.0-10.0"},{"group":"hexagon_bi","fractal_assignment":["../images/ylw_slt.png","../images/gry_blk.png","../images/blu_wht.png","../images/org_blu.png","../images/pnk_blu.png","../images/cyn_red.png"],"mutagen_generator_assignment":[1,0],"goal":1,"start":0,"action_noise":0.15,"location_history":"[0,1]","action_history":"[1]","mutagen_history":"[0]","location_rts":"[1770]","trial_type":"fractal-mutation","trial_index":65,"time_elapsed":1686300,"internal_node_id":"0.0-5.0-11.0"},{"group":"hexagon_bi","fractal_assignment":["../images/ylw_slt.png","../images/gry_blk.png","../images/blu_wht.png","../images/org_blu.png","../images/pnk_blu.png","../images/cyn_red.png"],"mutagen_generator_assignment":[1,0],"goal":3,"start":1,"action_noise":0.15,"location_history":"[1,0,5,4,3]","action_history":"[1,0,1,1]","mutagen_history":"[0,1,0,0]","location_rts":"[1563,1336,2858,1448]","trial_type":"fractal-mutation","trial_index":66,"time_elapsed":1701465,"internal_node_id":"0.0-5.0-12.0"},{"group":"hexagon_bi","fractal_assignment":["../images/ylw_slt.png","../images/gry_blk.png","../images/blu_wht.png","../images/org_blu.png","../images/pnk_blu.png","../images/cyn_red.png"],"mutagen_generator_assignment":[1,0],"goal":5,"start":3,"action_noise":0.15,"location_history":"[3,2,1,0,5]","action_history":"[1,0,1,0]","mutagen_history":"[0,1,0,1]","location_rts":"[1628,1097,984,1148]","trial_type":"fractal-mutation","trial_index":67,"time_elapsed":1714351,"internal_node_id":"0.0-5.0-13.0"},{"group":"hexagon_bi","fractal_assignment":["../images/ylw_slt.png","../images/gry_blk.png","../images/blu_wht.png","../images/org_blu.png","../images/pnk_blu.png","../images/cyn_red.png"],"mutagen_generator_assignment":[1,0],"goal":4,"start":5,"action_noise":0.15,"location_history":"[5,4]","action_history":"[1]","mutagen_history":"[0]","location_rts":"[1343]","trial_type":"fractal-mutation","trial_index":68,"time_elapsed":1720345,"internal_node_id":"0.0-5.0-14.0"},{"group":"hexagon_bi","fractal_assignment":["../images/ylw_slt.png","../images/gry_blk.png","../images/blu_wht.png","../images/org_blu.png","../images/pnk_blu.png","../images/cyn_red.png"],"mutagen_generator_assignment":[1,0],"goal":0,"start":4,"action_noise":0.15,"location_history":"[4,5,0]","action_history":"[1,0]","mutagen_history":"[0,1]","location_rts":"[1337,1708]","trial_type":"fractal-mutation","trial_index":69,"time_elapsed":1729268,"internal_node_id":"0.0-5.0-15.0"},{"group":"hexagon_bi","fractal_assignment":["../images/ylw_slt.png","../images/gry_blk.png","../images/blu_wht.png","../images/org_blu.png","../images/pnk_blu.png","../images/cyn_red.png"],"mutagen_generator_assignment":[1,0],"goal":3,"start":0,"action_noise":0.15,"location_history":"[0,1,0,1,2,1,0,1,2,3]","action_history":"[1,1,0,0,1,1,1,0,0]","mutagen_history":"[0,0,1,1,0,0,0,1,1]","location_rts":"[1503,1179,836,977,903,1254,1662,1745,947]","trial_type":"fractal-mutation","trial_index":70,"time_elapsed":1753771,"internal_node_id":"0.0-5.0-16.0"},{"group":"hexagon_bi","fractal_assignment":["../images/ylw_slt.png","../images/gry_blk.png","../images/blu_wht.png","../images/org_blu.png","../images/pnk_blu.png","../images/cyn_red.png"],"mutagen_generator_assignment":[1,0],"goal":1,"start":3,"action_noise":0.15,"location_history":"[3,2,1]","action_history":"[1,0]","mutagen_history":"[0,1]","location_rts":"[1472,1293]","trial_type":"fractal-mutation","trial_index":71,"time_elapsed":1762300,"internal_node_id":"0.0-5.0-17.0"},{"group":"hexagon_bi","fractal_assignment":["../images/ylw_slt.png","../images/gry_blk.png","../images/blu_wht.png","../images/org_blu.png","../images/pnk_blu.png","../images/cyn_red.png"],"mutagen_generator_assignment":[1,0],"goal":5,"start":1,"action_noise":0.15,"location_history":"[1,2,3,4,5]","action_history":"[1,0,1,1]","mutagen_history":"[0,1,0,0]","location_rts":"[3112,987,919,1028]","trial_type":"fractal-mutation","trial_index":72,"time_elapsed":1776345,"internal_node_id":"0.0-5.0-18.0"},{"group":"hexagon_bi","fractal_assignment":["../images/ylw_slt.png","../images/gry_blk.png","../images/blu_wht.png","../images/org_blu.png","../images/pnk_blu.png","../images/cyn_red.png"],"mutagen_generator_assignment":[1,0],"goal":2,"start":5,"action_noise":0.15,"location_history":"[5,0,5,4,3,4,5,4,3,2]","action_history":"[0,0,1,0,0,1,1,0,1]","mutagen_history":"[1,1,0,1,1,0,0,1,0]","location_rts":"[1273,1078,1218,562,1147,1225,451,951,465]","trial_type":"fractal-mutation","trial_index":73,"time_elapsed":1798344,"internal_node_id":"0.0-5.0-19.0"},{"group":"hexagon_bi","fractal_assignment":["../images/ylw_slt.png","../images/gry_blk.png","../images/blu_wht.png","../images/org_blu.png","../images/pnk_blu.png","../images/cyn_red.png"],"mutagen_generator_assignment":[1,0],"goal":4,"start":2,"action_noise":0.15,"location_history":"[2,1,0,5,4]","action_history":"[0,1,0,1]","mutagen_history":"[1,0,1,0]","location_rts":"[2155,1319,1199,1289]","trial_type":"fractal-mutation","trial_index":74,"time_elapsed":1812466,"internal_node_id":"0.0-5.0-20.0"},{"group":"hexagon_bi","fractal_assignment":["../images/ylw_slt.png","../images/gry_blk.png","../images/blu_wht.png","../images/org_blu.png","../images/pnk_blu.png","../images/cyn_red.png"],"mutagen_generator_assignment":[1,0],"goal":1,"start":4,"action_noise":0.15,"location_history":"[4,3,2,3,4,5,0,1]","action_history":"[0,1,0,0,1,0,1]","mutagen_history":"[1,0,1,1,0,1,0]","location_rts":"[1872,1325,1155,1486,2758,1092,1132]","trial_type":"fractal-mutation","trial_index":75,"time_elapsed":1834762,"internal_node_id":"0.0-5.0-21.0"},{"group":"hexagon_bi","fractal_assignment":["../images/ylw_slt.png","../images/gry_blk.png","../images/blu_wht.png","../images/org_blu.png","../images/pnk_blu.png","../images/cyn_red.png"],"mutagen_generator_assignment":[1,0],"goal":3,"start":1,"action_noise":0.15,"location_history":"[1,0,1,2,1,0,5,0,5,4,5,4,3]","action_history":"[0,1,0,0,1,0,1,1,0,1,1,1]","mutagen_history":"[1,0,1,1,0,1,0,0,1,0,0,0]","location_rts":"[1994,1242,1950,1316,802,1050,1460,1282,926,965,1716,300]","trial_type":"fractal-mutation","trial_index":76,"time_elapsed":1866393,"internal_node_id":"0.0-5.0-22.0"},{"group":"hexagon_bi","fractal_assignment":["../images/ylw_slt.png","../images/gry_blk.png","../images/blu_wht.png","../images/org_blu.png","../images/pnk_blu.png","../images/cyn_red.png"],"mutagen_generator_assignment":[1,0],"goal":2,"start":3,"action_noise":0.15,"location_history":"[3,4,3,4,5,0,1,0,1,0,1,2]","action_history":"[0,0,0,1,0,0,0,1,1,0,0]","mutagen_history":"[1,1,1,0,1,1,1,0,0,1,1]","location_rts":"[1242,2124,1002,921,1416,1160,1107,1369,1096,967,872]","trial_type":"fractal-mutation","trial_index":77,"time_elapsed":1896253,"internal_node_id":"0.0-5.0-23.0"},{"group":"hexagon_bi","fractal_assignment":["../images/ylw_slt.png","../images/gry_blk.png","../images/blu_wht.png","../images/org_blu.png","../images/pnk_blu.png","../images/cyn_red.png"],"mutagen_generator_assignment":[1,0],"goal":0,"start":2,"action_noise":0.15,"location_history":"[2,1,2,3,2,1,2,1,0]","action_history":"[0,0,1,0,0,0,0,1]","mutagen_history":"[1,1,0,1,1,1,1,0]","location_rts":"[1367,1084,1245,1939,1305,1560,1986,363]","trial_type":"fractal-mutation","trial_index":78,"time_elapsed":1919260,"internal_node_id":"0.0-5.0-24.0"},{"group":"hexagon_bi","fractal_assignment":["../images/ylw_slt.png","../images/gry_blk.png","../images/blu_wht.png","../images/org_blu.png","../images/pnk_blu.png","../images/cyn_red.png"],"mutagen_generator_assignment":[1,0],"goal":5,"start":0,"action_noise":0.15,"location_history":"[0,1,2,1,0,1,0,5]","action_history":"[1,0,0,1,1,1,0]","mutagen_history":"[0,1,1,0,0,0,1]","location_rts":"[1655,922,1505,1447,1347,1894,425]","trial_type":"fractal-mutation","trial_index":79,"time_elapsed":1939938,"internal_node_id":"0.0-5.0-25.0"},{"group":"hexagon_bi","fractal_assignment":["../images/ylw_slt.png","../images/gry_blk.png","../images/blu_wht.png","../images/org_blu.png","../images/pnk_blu.png","../images/cyn_red.png"],"mutagen_generator_assignment":[1,0],"goal":2,"start":5,"action_noise":0.15,"location_history":"[5,0,1,2]","action_history":"[0,1,0]","mutagen_history":"[1,0,1]","location_rts":"[1157,1075,967]","trial_type":"fractal-mutation","trial_index":80,"time_elapsed":1950034,"internal_node_id":"0.0-5.0-26.0"},{"group":"hexagon_bi","fractal_assignment":["../images/ylw_slt.png","../images/gry_blk.png","../images/blu_wht.png","../images/org_blu.png","../images/pnk_blu.png","../images/cyn_red.png"],"mutagen_generator_assignment":[1,0],"goal":3,"start":2,"action_noise":0.15,"location_history":"[2,1,0,1,2,1,2,1,0,5,0,1,0,5,0,5,4,5,4,5,4,5,4,3]","action_history":"[0,1,1,0,1,0,0,1,0,1,1,1,0,0,0,1,1,1,1,1,1,1,0]","mutagen_history":"[1,0,0,1,0,1,1,0,1,0,0,0,1,1,1,0,0,0,0,0,0,0,1]","location_rts":"[1653,1210,1428,1013,882,1574,382,1116,1306,1062,1912,889,1016,982,894,314,1043,1218,289,778,219,624,311]","trial_type":"fractal-mutation","trial_index":81,"time_elapsed":2001300,"internal_node_id":"0.0-5.0-27.0"},{"group":"hexagon_bi","fractal_assignment":["../images/ylw_slt.png","../images/gry_blk.png","../images/blu_wht.png","../images/org_blu.png","../images/pnk_blu.png","../images/cyn_red.png"],"mutagen_generator_assignment":[1,0],"goal":0,"start":3,"action_noise":0.15,"location_history":"[3,2,1,2,3,2,1,2,3,4,5,0]","action_history":"[1,0,0,1,1,0,0,1,0,1,0]","mutagen_history":"[0,1,1,0,0,1,1,0,1,0,1]","location_rts":"[1832,968,1165,1580,1153,1521,557,867,1124,998,933]","trial_type":"fractal-mutation","trial_index":82,"time_elapsed":2031172,"internal_node_id":"0.0-5.0-28.0"},{"group":"hexagon_bi","fractal_assignment":["../images/ylw_slt.png","../images/gry_blk.png","../images/blu_wht.png","../images/org_blu.png","../images/pnk_blu.png","../images/cyn_red.png"],"mutagen_generator_assignment":[1,0],"goal":1,"start":0,"action_noise":0.15,"location_history":"[0,5,4,5,0,5,4,5,4,5,4,3,2,1]","action_history":"[0,1,0,0,0,1,0,1,1,1,0,1,0]","mutagen_history":"[1,0,1,1,1,0,1,0,0,0,1,0,1]","location_rts":"[1236,1318,1108,1096,1119,816,575,1614,428,1781,262,2295,1399]","trial_type":"fractal-mutation","trial_index":83,"time_elapsed":2064530,"internal_node_id":"0.0-5.0-29.0"},{"group":"hexagon_bi","fractal_assignment":["../images/ylw_slt.png","../images/gry_blk.png","../images/blu_wht.png","../images/org_blu.png","../images/pnk_blu.png","../images/cyn_red.png"],"mutagen_generator_assignment":[1,0],"goal":4,"start":1,"action_noise":0.15,"location_history":"[1,2,3,4]","action_history":"[0,1,0]","mutagen_history":"[1,0,1]","location_rts":"[1123,827,1711]","trial_type":"fractal-mutation","trial_index":84,"time_elapsed":2075385,"internal_node_id":"0.0-5.0-30.0"},{"group":"hexagon_bi","fractal_assignment":["../images/ylw_slt.png","../images/gry_blk.png","../images/blu_wht.png","../images/org_blu.png","../images/pnk_blu.png","../images/cyn_red.png"],"mutagen_generator_assignment":[1,0],"goal":5,"start":4,"action_noise":0.15,"location_history":"[4,5]","action_history":"[1]","mutagen_history":"[0]","location_rts":"[1762]","trial_type":"fractal-mutation","trial_index":85,"time_elapsed":2081731,"internal_node_id":"0.0-5.0-31.0"},{"group":"hexagon_bi","fractal_assignment":["../images/ylw_slt.png","../images/gry_blk.png","../images/blu_wht.png","../images/org_blu.png","../images/pnk_blu.png","../images/cyn_red.png"],"mutagen_generator_assignment":[1,0],"goal":0,"start":5,"action_noise":0.15,"location_history":"[5,4,3,4,3,4,5,0]","action_history":"[1,0,0,0,0,1,0]","mutagen_history":"[0,1,1,1,1,0,1]","location_rts":"[1494,664,2405,1277,338,665,742]","trial_type":"fractal-mutation","trial_index":86,"time_elapsed":2102348,"internal_node_id":"0.0-5.0-32.0"},{"group":"hexagon_bi","fractal_assignment":["../images/ylw_slt.png","../images/gry_blk.png","../images/blu_wht.png","../images/org_blu.png","../images/pnk_blu.png","../images/cyn_red.png"],"mutagen_generator_assignment":[1,0],"goal":3,"start":0,"action_noise":0.15,"location_history":"[0,1,2,3]","action_history":"[1,0,1]","mutagen_history":"[0,1,0]","location_rts":"[1249,1575,1296]","trial_type":"fractal-mutation","trial_index":87,"time_elapsed":2113601,"internal_node_id":"0.0-5.0-33.0"},{"group":"hexagon_bi","fractal_assignment":["../images/ylw_slt.png","../images/gry_blk.png","../images/blu_wht.png","../images/org_blu.png","../images/pnk_blu.png","../images/cyn_red.png"],"mutagen_generator_assignment":[1,0],"goal":1,"start":3,"action_noise":0.15,"location_history":"[3,2,1]","action_history":"[1,0]","mutagen_history":"[0,1]","location_rts":"[1867,1311]","trial_type":"fractal-mutation","trial_index":88,"time_elapsed":2122494,"internal_node_id":"0.0-5.0-34.0"},{"group":"hexagon_bi","fractal_assignment":["../images/ylw_slt.png","../images/gry_blk.png","../images/blu_wht.png","../images/org_blu.png","../images/pnk_blu.png","../images/cyn_red.png"],"mutagen_generator_assignment":[1,0],"goal":2,"start":1,"action_noise":0.15,"location_history":"[1,0,5,0,5,0,5,4,3,4,5,0,5,4,3,4,3,2]","action_history":"[1,0,0,0,0,1,1,0,0,0,1,1,1,1,0,0,1]","mutagen_history":"[0,1,1,1,1,0,0,1,1,1,0,0,0,0,1,1,0]","location_rts":"[1293,779,1138,1069,490,339,1108,658,1007,1020,385,1301,944,960,920,1272,810]","trial_type":"fractal-mutation","trial_index":89,"time_elapsed":2160470,"internal_node_id":"0.0-5.0-35.0"},{"group":"hexagon_bi","fractal_assignment":["../images/ylw_slt.png","../images/gry_blk.png","../images/blu_wht.png","../images/org_blu.png","../images/pnk_blu.png","../images/cyn_red.png"],"mutagen_generator_assignment":[1,0],"goal":4,"start":2,"action_noise":0.15,"location_history":"[2,3,2,1,2,3,2,1,0,1,2,1,2,3,4]","action_history":"[0,1,0,0,1,1,1,0,1,0,0,0,1,0]","mutagen_history":"[1,0,1,1,0,0,0,1,0,1,1,1,0,1]","location_rts":"[1763,1639,1344,1821,1595,1680,928,307,1119,879,616,1732,1002,1188]","trial_type":"fractal-mutation","trial_index":90,"time_elapsed":2197150,"internal_node_id":"0.0-5.0-36.0"},{"group":"hexagon_bi","fractal_assignment":["../images/ylw_slt.png","../images/gry_blk.png","../images/blu_wht.png","../images/org_blu.png","../images/pnk_blu.png","../images/cyn_red.png"],"mutagen_generator_assignment":[1,0],"goal":5,"start":4,"action_noise":0.15,"location_history":"[4,5]","action_history":"[1]","mutagen_history":"[0]","location_rts":"[1464]","trial_type":"fractal-mutation","trial_index":91,"time_elapsed":2203172,"internal_node_id":"0.0-5.0-37.0"},{"group":"hexagon_bi","fractal_assignment":["../images/ylw_slt.png","../images/gry_blk.png","../images/blu_wht.png","../images/org_blu.png","../images/pnk_blu.png","../images/cyn_red.png"],"mutagen_generator_assignment":[1,0],"goal":1,"start":5,"action_noise":0.15,"location_history":"[5,4,5,4,3,2,3,4,3,2,1]","action_history":"[0,1,1,0,0,1,0,0,1,0]","mutagen_history":"[1,0,0,1,1,0,1,1,0,1]","location_rts":"[2326,1648,1207,672,2092,1109,1673,1069,718,1103]","trial_type":"fractal-mutation","trial_index":92,"time_elapsed":2231430,"internal_node_id":"0.0-5.0-38.0"},{"group":"hexagon_bi","fractal_assignment":["../images/ylw_slt.png","../images/gry_blk.png","../images/blu_wht.png","../images/org_blu.png","../images/pnk_blu.png","../images/cyn_red.png"],"mutagen_generator_assignment":[1,0],"goal":4,"start":1,"action_noise":0.15,"location_history":"[1,2,1,0,5,4]","action_history":"[0,1,1,0,1]","mutagen_history":"[1,0,0,1,0]","location_rts":"[2434,1165,1461,1717,925]","trial_type":"fractal-mutation","trial_index":93,"time_elapsed":2248293,"internal_node_id":"0.0-5.0-39.0"},{"group":"hexagon_bi","fractal_assignment":["../images/ylw_slt.png","../images/gry_blk.png","../images/blu_wht.png","../images/org_blu.png","../images/pnk_blu.png","../images/cyn_red.png"],"mutagen_generator_assignment":[1,0],"goal":3,"start":4,"action_noise":0.15,"location_history":"[4,5,4,5,0,1,0,1,2,3]","action_history":"[1,1,0,0,1,1,1,0,1]","mutagen_history":"[0,0,1,1,0,0,0,1,0]","location_rts":"[2142,1503,803,1163,1175,1244,2045,740,2152]","trial_type":"fractal-mutation","trial_index":94,"time_elapsed":2274891,"internal_node_id":"0.0-5.0-40.0"},{"group":"hexagon_bi","fractal_assignment":["../images/ylw_slt.png","../images/gry_blk.png","../images/blu_wht.png","../images/org_blu.png","../images/pnk_blu.png","../images/cyn_red.png"],"mutagen_generator_assignment":[1,0],"goal":2,"start":3,"action_noise":0.15,"location_history":"[3,2]","action_history":"[1]","mutagen_history":"[0]","location_rts":"[1105]","trial_type":"fractal-mutation","trial_index":95,"time_elapsed":2280602,"internal_node_id":"0.0-5.0-41.0"},{"group":"hexagon_bi","fractal_assignment":["../images/ylw_slt.png","../images/gry_blk.png","../images/blu_wht.png","../images/org_blu.png","../images/pnk_blu.png","../images/cyn_red.png"],"mutagen_generator_assignment":[1,0],"goal":0,"start":2,"action_noise":0.15,"location_history":"[2,3,4,3,2,1,2,1,0]","action_history":"[1,0,0,1,0,0,0,1]","mutagen_history":"[0,1,1,0,1,1,1,0]","location_rts":"[2073,1352,780,971,1220,878,1073,358]","trial_type":"fractal-mutation","trial_index":96,"time_elapsed":2301622,"internal_node_id":"0.0-5.0-42.0"},{"group":"hexagon_bi","fractal_assignment":["../images/ylw_slt.png","../images/gry_blk.png","../images/blu_wht.png","../images/org_blu.png","../images/pnk_blu.png","../images/cyn_red.png"],"mutagen_generator_assignment":[1,0],"goal":5,"start":0,"action_noise":0.15,"location_history":"[0,1,2,1,0,5]","action_history":"[1,0,0,1,0]","mutagen_history":"[0,1,1,0,1]","location_rts":"[1851,926,1457,970,897]","trial_type":"fractal-mutation","trial_index":97,"time_elapsed":2316992,"internal_node_id":"0.0-5.0-43.0"},{"group":"hexagon_bi","fractal_assignment":["../images/ylw_slt.png","../images/gry_blk.png","../images/blu_wht.png","../images/org_blu.png","../images/pnk_blu.png","../images/cyn_red.png"],"mutagen_generator_assignment":[1,0],"goal":0,"start":5,"action_noise":0.15,"location_history":"[5,0]","action_history":"[0]","mutagen_history":"[1]","location_rts":"[2057]","trial_type":"fractal-mutation","trial_index":98,"time_elapsed":2323672,"internal_node_id":"0.0-5.0-44.0"},{"group":"hexagon_bi","fractal_assignment":["../images/ylw_slt.png","../images/gry_blk.png","../images/blu_wht.png","../images/org_blu.png","../images/pnk_blu.png","../images/cyn_red.png"],"mutagen_generator_assignment":[1,0],"goal":2,"start":0,"action_noise":0.15,"location_history":"[0,1,2]","action_history":"[1,0]","mutagen_history":"[0,1]","location_rts":"[1914,1115]","trial_type":"fractal-mutation","trial_index":99,"time_elapsed":2332389,"internal_node_id":"0.0-5.0-45.0"},{"group":"hexagon_bi","fractal_assignment":["../images/ylw_slt.png","../images/gry_blk.png","../images/blu_wht.png","../images/org_blu.png","../images/pnk_blu.png","../images/cyn_red.png"],"mutagen_generator_assignment":[1,0],"goal":4,"start":2,"action_noise":0.15,"location_history":"[2,3,4]","action_history":"[1,0]","mutagen_history":"[0,1]","location_rts":"[4438,2078]","trial_type":"fractal-mutation","trial_index":100,"time_elapsed":2344613,"internal_node_id":"0.0-5.0-46.0"},{"group":"hexagon_bi","fractal_assignment":["../images/ylw_slt.png","../images/gry_blk.png","../images/blu_wht.png","../images/org_blu.png","../images/pnk_blu.png","../images/cyn_red.png"],"mutagen_generator_assignment":[1,0],"goal":1,"start":4,"action_noise":0.15,"location_history":"[4,5,0,5,0,5,4,3,4,3,4,5,0,1]","action_history":"[1,0,1,0,0,1,0,0,0,1,1,0,0]","mutagen_history":"[0,1,0,1,1,0,1,1,1,0,0,1,1]","location_rts":"[2465,1391,1703,2243,1837,5031,1362,1034,905,332,1061,912,1115]","trial_type":"fractal-mutation","trial_index":101,"time_elapsed":2384038,"internal_node_id":"0.0-5.0-47.0"},{"group":"hexagon_bi","fractal_assignment":["../images/ylw_slt.png","../images/gry_blk.png","../images/blu_wht.png","../images/org_blu.png","../images/pnk_blu.png","../images/cyn_red.png"],"mutagen_generator_assignment":[1,0],"goal":5,"start":1,"action_noise":0.15,"location_history":"[1,0,5]","action_history":"[1,0]","mutagen_history":"[0,1]","location_rts":"[2468,2228]","trial_type":"fractal-mutation","trial_index":102,"time_elapsed":2394685,"internal_node_id":"0.0-5.0-48.0"},{"group":"hexagon_bi","fractal_assignment":["../images/ylw_slt.png","../images/gry_blk.png","../images/blu_wht.png","../images/org_blu.png","../images/pnk_blu.png","../images/cyn_red.png"],"mutagen_generator_assignment":[1,0],"goal":3,"start":5,"action_noise":0.15,"location_history":"[5,4,3]","action_history":"[1,0]","mutagen_history":"[0,1]","location_rts":"[2102,776]","trial_type":"fractal-mutation","trial_index":103,"time_elapsed":2403417,"internal_node_id":"0.0-5.0-49.0"},{"view_history":"[{\"page_index\":0,\"viewing_time\":13621}]","rt":13623,"trial_type":"instructions","trial_index":104,"time_elapsed":2418040,"internal_node_id":"0.0-6.0"},{"rt":25413,"responses":"{\"Q0\":\"No\"}","trial_type":"survey-text","trial_index":105,"time_elapsed":2444464,"internal_node_id":"0.0-7.0"}]