[{"view_history":"[{\"page_index\":0,\"viewing_time\":17195},{\"page_index\":1,\"viewing_time\":12398}]","rt":29593,"trial_type":"instructions","trial_index":0,"time_elapsed":29594,"internal_node_id":"0.0-0.0"},{"view_history":"[{\"page_index\":0,\"viewing_time\":1528},{\"page_index\":1,\"viewing_time\":10260}]","rt":11788,"trial_type":"instructions","trial_index":1,"time_elapsed":42385,"internal_node_id":"0.0-1.0"},{"group":"hexagon_tri","room_assignment":["grey","yellow","green","blue","red","purple"],"door_color_assignment":["white","black"],"door_generator_assignment":[1,0],"goal":3,"start":5,"action_noise":0.15,"location_history":"[5,4,2,3]","action_history":"[0,1,1]","door_history":"[1,0,0]","location_rts":"[2065,805,359]","trial_type":"two-door-navigation","trial_index":2,"time_elapsed":52793,"internal_node_id":"0.0-2.0-0.0"},{"group":"hexagon_tri","room_assignment":["grey","yellow","green","blue","red","purple"],"door_color_assignment":["white","black"],"door_generator_assignment":[1,0],"goal":1,"start":3,"action_noise":0.15,"location_history":"[3,4,2,1]","action_history":"[1,1,0]","door_history":"[0,0,1]","location_rts":"[22908,456,822]","trial_type":"two-door-navigation","trial_index":3,"time_elapsed":84754,"internal_node_id":"0.0-2.0-1.0"},{"group":"hexagon_tri","room_assignment":["grey","yellow","green","blue","red","purple"],"door_color_assignment":["white","black"],"door_generator_assignment":[1,0],"goal":0,"start":1,"action_noise":0.15,"location_history":"[1,3,2,3,2,1,3,4,0]","action_history":"[0,0,1,0,0,0,1,1]","door_history":"[1,1,0,1,1,1,0,0]","location_rts":"[75642,386,906,583,470,472,1344,697]","trial_type":"two-door-navigation","trial_index":4,"time_elapsed":177385,"internal_node_id":"0.0-2.0-2.0"},{"group":"hexagon_tri","room_assignment":["grey","yellow","green","blue","red","purple"],"door_color_assignment":["white","black"],"door_generator_assignment":[1,0],"goal":3,"start":0,"action_noise":0.15,"location_history":"[0,1,5,0,5,4,0,5,4,0,5,0,1,5,0,5,4,2,3]","action_history":"[1,1,1,0,0,0,0,0,0,0,1,1,1,1,1,0,1,1]","door_history":"[0,0,0,1,1,1,1,1,1,1,0,0,0,0,0,1,0,0]","location_rts":"[883,780,748,878,411,494,394,673,1147,429,639,421,540,561,493,797,479,498]","trial_type":"two-door-navigation","trial_index":5,"time_elapsed":211796,"internal_node_id":"0.0-2.0-3.0"},{"group":"hexagon_tri","room_assignment":["grey","yellow","green","blue","red","purple"],"door_color_assignment":["white","black"],"door_generator_assignment":[1,0],"goal":4,"start":3,"action_noise":0.15,"location_history":"[3,2,3,2,3,2,1,3,4]","action_history":"[0,1,1,1,0,0,0,1]","door_history":"[1,0,0,0,1,1,1,0]","location_rts":"[57195,836,393,582,827,442,437,613]","trial_type":"two-door-navigation","trial_index":6,"time_elapsed":286437,"internal_node_id":"0.0-2.0-4.0"},{"group":"hexagon_tri","room_assignment":["grey","yellow","green","blue","red","purple"],"door_color_assignment":["white","black"],"door_generator_assignment":[1,0],"goal":2,"start":4,"action_noise":0.15,"location_history":"[4,0,1,5,0,1,5,0,5,4,2]","action_history":"[0,1,1,1,1,1,0,0,0,1]","door_history":"[1,0,0,0,0,0,1,1,1,0]","location_rts":"[377,670,465,594,715,701,755,731,731,1023]","trial_type":"two-door-navigation","trial_index":7,"time_elapsed":307407,"internal_node_id":"0.0-2.0-5.0"},{"group":"hexagon_tri","room_assignment":["grey","yellow","green","blue","red","purple"],"door_color_assignment":["white","black"],"door_generator_assignment":[1,0],"goal":1,"start":2,"action_noise":0.15,"location_history":"[2,3,4,2,1]","action_history":"[1,1,1,1]","door_history":"[0,0,0,0]","location_rts":"[3382,1935,770,772]","trial_type":"two-door-navigation","trial_index":8,"time_elapsed":322072,"internal_node_id":"0.0-2.0-6.0"},{"group":"hexagon_tri","room_assignment":["grey","yellow","green","blue","red","purple"],"door_color_assignment":["white","black"],"door_generator_assignment":[1,0],"goal":5,"start":1,"action_noise":0.15,"location_history":"[1,3,2,3,4,0,5]","action_history":"[0,0,1,1,0,0]","door_history":"[1,1,0,0,1,1]","location_rts":"[935,587,677,476,948,792]","trial_type":"two-door-navigation","trial_index":9,"time_elapsed":336457,"internal_node_id":"0.0-2.0-7.0"},{"group":"hexagon_tri","room_assignment":["grey","yellow","green","blue","red","purple"],"door_color_assignment":["white","black"],"door_generator_assignment":[1,0],"goal":4,"start":5,"action_noise":0.15,"location_history":"[5,4]","action_history":"[0]","door_history":"[1]","location_rts":"[703]","trial_type":"two-door-navigation","trial_index":10,"time_elapsed":341743,"internal_node_id":"0.0-2.0-8.0"},{"group":"hexagon_tri","room_assignment":["grey","yellow","green","blue","red","purple"],"door_color_assignment":["white","black"],"door_generator_assignment":[1,0],"goal":2,"start":4,"action_noise":0.15,"location_history":"[4,0,1,5,0,1,5,4,2]","action_history":"[0,0,1,1,1,0,1,1]","door_history":"[1,1,0,0,0,1,0,0]","location_rts":"[64137,624,474,776,443,482,529,361]","trial_type":"two-door-navigation","trial_index":11,"time_elapsed":421739,"internal_node_id":"0.0-2.0-9.0"},{"group":"hexagon_tri","room_assignment":["grey","yellow","green","blue","red","purple"],"door_color_assignment":["white","black"],"door_generator_assignment":[1,0],"goal":0,"start":2,"action_noise":0.15,"location_history":"[2,1,5,0]","action_history":"[0,1,1]","door_history":"[1,0,0]","location_rts":"[376045,485,361]","trial_type":"two-door-navigation","trial_index":12,"time_elapsed":805784,"internal_node_id":"0.0-2.0-10.0"},{"group":"hexagon_tri","room_assignment":["grey","yellow","green","blue","red","purple"],"door_color_assignment":["white","black"],"door_generator_assignment":[1,0],"goal":1,"start":0,"action_noise":0.15,"location_history":"[0,5,4,2,3,4,2,3,4,2,3,2,1]","action_history":"[0,0,1,1,1,1,1,1,0,1,0,0]","door_history":"[1,1,0,0,0,0,0,0,1,0,1,1]","location_rts":"[425,386,394,450,403,407,430,467,454,531,391,503]","trial_type":"two-door-navigation","trial_index":13,"time_elapsed":827725,"internal_node_id":"0.0-2.0-11.0"},{"group":"hexagon_tri","room_assignment":["grey","yellow","green","blue","red","purple"],"door_color_assignment":["white","black"],"door_generator_assignment":[1,0],"goal":3,"start":1,"action_noise":0.15,"location_history":"[1,5,4,0,1,5,0,5,0,1,5,0,5,4,2,3]","action_history":"[1,0,1,1,1,1,0,1,1,1,1,0,0,1,1]","door_history":"[0,1,0,0,0,0,1,0,0,0,0,1,1,0,0]","location_rts":"[3346,533,1006,882,498,1138,721,1544,1345,1614,738,764,577,1668,654]","trial_type":"two-door-navigation","trial_index":14,"time_elapsed":864837,"internal_node_id":"0.0-2.0-12.0"},{"group":"hexagon_tri","room_assignment":["grey","yellow","green","blue","red","purple"],"door_color_assignment":["white","black"],"door_generator_assignment":[1,0],"goal":5,"start":3,"action_noise":0.15,"location_history":"[3,2,3,2,3,2,3,4,2,1,5]","action_history":"[0,1,1,1,0,1,1,1,0,0]","door_history":"[1,0,0,0,1,0,0,0,1,1]","location_rts":"[12293,899,1610,725,770,801,506,428,759,538]","trial_type":"two-door-navigation","trial_index":15,"time_elapsed":899788,"internal_node_id":"0.0-2.0-13.0"},{"group":"hexagon_tri","room_assignment":["grey","yellow","green","blue","red","purple"],"door_color_assignment":["white","black"],"door_generator_assignment":[1,0],"goal":4,"start":5,"action_noise":0.15,"location_history":"[5,4]","action_history":"[0]","door_history":"[1]","location_rts":"[12640]","trial_type":"two-door-navigation","trial_index":16,"time_elapsed":917108,"internal_node_id":"0.0-2.0-14.0"},{"group":"hexagon_tri","room_assignment":["grey","yellow","green","blue","red","purple"],"door_color_assignment":["white","black"],"door_generator_assignment":[1,0],"goal":0,"start":4,"action_noise":0.15,"location_history":"[4,2,3,4,2,1,3,4,2,3,2,3,4,2,1,5,0]","action_history":"[0,1,1,1,0,0,1,1,1,0,0,1,1,0,1,1]","door_history":"[1,0,0,0,1,1,0,0,0,1,1,0,0,1,0,0]","location_rts":"[6801,957,569,419,556,502,414,477,712,625,831,582,477,951,789,507]","trial_type":"two-door-navigation","trial_index":17,"time_elapsed":954704,"internal_node_id":"0.0-2.0-15.0"},{"group":"hexagon_tri","room_assignment":["grey","yellow","green","blue","red","purple"],"door_color_assignment":["white","black"],"door_generator_assignment":[1,0],"goal":3,"start":0,"action_noise":0.15,"location_history":"[0,1,5,4,2,3]","action_history":"[1,1,0,1,1]","door_history":"[0,0,1,0,0]","location_rts":"[15029,565,993,756,564]","trial_type":"two-door-navigation","trial_index":18,"time_elapsed":981746,"internal_node_id":"0.0-2.0-16.0"},{"group":"hexagon_tri","room_assignment":["grey","yellow","green","blue","red","purple"],"door_color_assignment":["white","black"],"door_generator_assignment":[1,0],"goal":1,"start":3,"action_noise":0.15,"location_history":"[3,4,2,3,4,2,3,2,3,2,1]","action_history":"[0,1,1,1,1,0,1,1,0,0]","door_history":"[1,0,0,0,0,1,0,0,1,1]","location_rts":"[19366,531,465,424,495,558,549,562,346,374]","trial_type":"two-door-navigation","trial_index":19,"time_elapsed":1019683,"internal_node_id":"0.0-2.0-17.0"},{"group":"hexagon_tri","room_assignment":["grey","yellow","green","blue","red","purple"],"door_color_assignment":["white","black"],"door_generator_assignment":[1,0],"goal":5,"start":1,"action_noise":0.15,"location_history":"[1,5]","action_history":"[1]","door_history":"[0]","location_rts":"[848]","trial_type":"two-door-navigation","trial_index":20,"time_elapsed":1025785,"internal_node_id":"0.0-2.0-18.0"},{"group":"hexagon_tri","room_assignment":["grey","yellow","green","blue","red","purple"],"door_color_assignment":["white","black"],"door_generator_assignment":[1,0],"goal":2,"start":5,"action_noise":0.15,"location_history":"[5,0,5,4,2]","action_history":"[1,0,0,1]","door_history":"[0,1,1,0]","location_rts":"[3171,1247,526,565]","trial_type":"two-door-navigation","trial_index":21,"time_elapsed":1040033,"internal_node_id":"0.0-2.0-19.0"},{"group":"hexagon_tri","room_assignment":["grey","yellow","green","blue","red","purple"],"door_color_assignment":["white","black"],"door_generator_assignment":[1,0],"goal":4,"start":2,"action_noise":0.15,"location_history":"[2,3,4]","action_history":"[1,1]","door_history":"[0,0]","location_rts":"[921,1297]","trial_type":"two-door-navigation","trial_index":22,"time_elapsed":1048682,"internal_node_id":"0.0-2.0-20.0"},{"group":"hexagon_tri","room_assignment":["grey","yellow","green","blue","red","purple"],"door_color_assignment":["white","black"],"door_generator_assignment":[1,0],"goal":1,"start":4,"action_noise":0.15,"location_history":"[4,0,1]","action_history":"[0,1]","door_history":"[1,0]","location_rts":"[2395,830]","trial_type":"two-door-navigation","trial_index":23,"time_elapsed":1058868,"internal_node_id":"0.0-2.0-21.0"},{"group":"hexagon_tri","room_assignment":["grey","yellow","green","blue","red","purple"],"door_color_assignment":["white","black"],"door_generator_assignment":[1,0],"goal":3,"start":1,"action_noise":0.15,"location_history":"[1,3]","action_history":"[0]","door_history":"[1]","location_rts":"[4584]","trial_type":"two-door-navigation","trial_index":24,"time_elapsed":1069175,"internal_node_id":"0.0-2.0-22.0"},{"group":"hexagon_tri","room_assignment":["grey","yellow","green","blue","red","purple"],"door_color_assignment":["white","black"],"door_generator_assignment":[1,0],"goal":2,"start":3,"action_noise":0.15,"location_history":"[3,4,2]","action_history":"[1,1]","door_history":"[0,0]","location_rts":"[713,960]","trial_type":"two-door-navigation","trial_index":25,"time_elapsed":1076686,"internal_node_id":"0.0-2.0-23.0"},{"group":"hexagon_tri","room_assignment":["grey","yellow","green","blue","red","purple"],"door_color_assignment":["white","black"],"door_generator_assignment":[1,0],"goal":0,"start":2,"action_noise":0.15,"location_history":"[2,1,3,2,3,2,1,3,4,0]","action_history":"[1,0,1,1,0,0,0,1,0]","door_history":"[0,1,0,0,1,1,1,0,1]","location_rts":"[7201,730,534,407,849,408,431,970,614]","trial_type":"two-door-navigation","trial_index":26,"time_elapsed":1102931,"internal_node_id":"0.0-2.0-24.0"},{"group":"hexagon_tri","room_assignment":["grey","yellow","green","blue","red","purple"],"door_color_assignment":["white","black"],"door_generator_assignment":[1,0],"goal":5,"start":0,"action_noise":0.15,"location_history":"[0,1,5]","action_history":"[1,1]","door_history":"[0,0]","location_rts":"[8931,781]","trial_type":"two-door-navigation","trial_index":27,"time_elapsed":1119019,"internal_node_id":"0.0-2.0-25.0"},{"group":"hexagon_tri","room_assignment":["grey","yellow","green","blue","red","purple"],"door_color_assignment":["white","black"],"door_generator_assignment":[1,0],"goal":2,"start":5,"action_noise":0.15,"location_history":"[5,0,5,4,0,1,5,4,2]","action_history":"[1,0,0,0,1,1,1,1]","door_history":"[0,1,1,1,0,0,0,0]","location_rts":"[10538,820,753,475,873,438,436,615]","trial_type":"two-door-navigation","trial_index":28,"time_elapsed":1147703,"internal_node_id":"0.0-2.0-26.0"},{"group":"hexagon_tri","room_assignment":["grey","yellow","green","blue","red","purple"],"door_color_assignment":["white","black"],"door_generator_assignment":[1,0],"goal":3,"start":2,"action_noise":0.15,"location_history":"[2,3]","action_history":"[1]","door_history":"[0]","location_rts":"[7533]","trial_type":"two-door-navigation","trial_index":29,"time_elapsed":1159885,"internal_node_id":"0.0-2.0-27.0"},{"group":"hexagon_tri","room_assignment":["grey","yellow","green","blue","red","purple"],"door_color_assignment":["white","black"],"door_generator_assignment":[1,0],"goal":0,"start":3,"action_noise":0.15,"location_history":"[3,2,3,4,0]","action_history":"[0,1,1,0]","door_history":"[1,0,0,1]","location_rts":"[882,879,452,822]","trial_type":"two-door-navigation","trial_index":30,"time_elapsed":1170726,"internal_node_id":"0.0-2.0-28.0"},{"group":"hexagon_tri","room_assignment":["grey","yellow","green","blue","red","purple"],"door_color_assignment":["white","black"],"door_generator_assignment":[1,0],"goal":1,"start":0,"action_noise":0.15,"location_history":"[0,5,0,5,4,0,1]","action_history":"[0,1,1,0,0,1]","door_history":"[1,0,0,1,1,0]","location_rts":"[33354,1321,893,772,870,1001]","trial_type":"two-door-navigation","trial_index":31,"time_elapsed":1218777,"internal_node_id":"0.0-2.0-29.0"},{"group":"hexagon_tri","room_assignment":["grey","yellow","green","blue","red","purple"],"door_color_assignment":["white","black"],"door_generator_assignment":[1,0],"goal":4,"start":1,"action_noise":0.15,"location_history":"[1,5,0,1,5,0,1,3,2,1,3,4]","action_history":"[0,0,1,1,1,0,0,0,0,1,1]","door_history":"[1,1,0,0,0,1,1,1,1,0,0]","location_rts":"[559,541,784,1392,619,533,462,443,616,760,665]","trial_type":"two-door-navigation","trial_index":32,"time_elapsed":1241680,"internal_node_id":"0.0-2.0-30.0"},{"group":"hexagon_tri","room_assignment":["grey","yellow","green","blue","red","purple"],"door_color_assignment":["white","black"],"door_generator_assignment":[1,0],"goal":5,"start":4,"action_noise":0.15,"location_history":"[4,2,3,4,0,1,5]","action_history":"[1,1,1,0,1,1]","door_history":"[0,0,0,1,0,0]","location_rts":"[98294,647,667,1013,606,680]","trial_type":"two-door-navigation","trial_index":33,"time_elapsed":1353791,"internal_node_id":"0.0-2.0-31.0"},{"group":"hexagon_tri","room_assignment":["grey","yellow","green","blue","red","purple"],"door_color_assignment":["white","black"],"door_generator_assignment":[1,0],"goal":0,"start":5,"action_noise":0.15,"location_history":"[5,4,2,3,4,0]","action_history":"[1,1,1,1,1]","door_history":"[0,0,0,0,0]","location_rts":"[22967,547,544,353,505]","trial_type":"two-door-navigation","trial_index":34,"time_elapsed":1388793,"internal_node_id":"0.0-2.0-32.0"},{"group":"hexagon_tri","room_assignment":["grey","yellow","green","blue","red","purple"],"door_color_assignment":["white","black"],"door_generator_assignment":[1,0],"goal":3,"start":0,"action_noise":0.15,"location_history":"[0,5,0,5,4,0,1,5,0,5,4,2,3]","action_history":"[0,0,0,0,0,1,1,1,0,0,1,1]","door_history":"[1,1,1,1,1,0,0,0,1,1,0,0]","location_rts":"[1208,488,576,496,532,894,686,480,838,639,588,508]","trial_type":"two-door-navigation","trial_index":35,"time_elapsed":1412995,"internal_node_id":"0.0-2.0-33.0"},{"group":"hexagon_tri","room_assignment":["grey","yellow","green","blue","red","purple"],"door_color_assignment":["white","black"],"door_generator_assignment":[1,0],"goal":1,"start":3,"action_noise":0.15,"location_history":"[3,2,3,2,3,2,3,2,3,4,2,3,4,0,1]","action_history":"[0,1,1,1,0,0,0,1,1,1,1,0,0,0]","door_history":"[1,0,0,0,1,1,1,0,0,0,0,1,1,1]","location_rts":"[1745,638,336,1103,1031,826,1050,333,520,775,589,683,625,637]","trial_type":"two-door-navigation","trial_index":36,"time_elapsed":1442252,"internal_node_id":"0.0-2.0-34.0"},{"group":"hexagon_tri","room_assignment":["grey","yellow","green","blue","red","purple"],"door_color_assignment":["white","black"],"door_generator_assignment":[1,0],"goal":2,"start":1,"action_noise":0.15,"location_history":"[1,5,0,5,0,5,0,1,3,2]","action_history":"[1,0,0,1,1,1,1,0,0]","door_history":"[0,1,1,0,0,0,0,1,1]","location_rts":"[1154,782,427,515,405,476,710,948,599]","trial_type":"two-door-navigation","trial_index":37,"time_elapsed":1461794,"internal_node_id":"0.0-2.0-35.0"},{"group":"hexagon_tri","room_assignment":["grey","yellow","green","blue","red","purple"],"door_color_assignment":["white","black"],"door_generator_assignment":[1,0],"goal":4,"start":2,"action_noise":0.15,"location_history":"[2,3,4]","action_history":"[1,1]","door_history":"[0,0]","location_rts":"[3256,600]","trial_type":"two-door-navigation","trial_index":38,"time_elapsed":1472164,"internal_node_id":"0.0-2.0-36.0"},{"group":"hexagon_tri","room_assignment":["grey","yellow","green","blue","red","purple"],"door_color_assignment":["white","black"],"door_generator_assignment":[1,0],"goal":5,"start":4,"action_noise":0.15,"location_history":"[4,0,1,5]","action_history":"[0,1,1]","door_history":"[1,0,0]","location_rts":"[1509,624,580]","trial_type":"two-door-navigation","trial_index":39,"time_elapsed":1481905,"internal_node_id":"0.0-2.0-37.0"},{"group":"hexagon_tri","room_assignment":["grey","yellow","green","blue","red","purple"],"door_color_assignment":["white","black"],"door_generator_assignment":[1,0],"goal":1,"start":5,"action_noise":0.15,"location_history":"[5,4,2,3,4,2,3,4,0,1]","action_history":"[0,1,1,1,1,1,0,0,1]","door_history":"[1,0,0,0,0,0,1,1,0]","location_rts":"[13922,921,505,380,379,561,504,1699,694]","trial_type":"two-door-navigation","trial_index":40,"time_elapsed":1515655,"internal_node_id":"0.0-2.0-38.0"},{"group":"hexagon_tri","room_assignment":["grey","yellow","green","blue","red","purple"],"door_color_assignment":["white","black"],"door_generator_assignment":[1,0],"goal":4,"start":1,"action_noise":0.15,"location_history":"[1,5,4]","action_history":"[1,0]","door_history":"[0,1]","location_rts":"[642,1353]","trial_type":"two-door-navigation","trial_index":41,"time_elapsed":1523299,"internal_node_id":"0.0-2.0-39.0"},{"group":"hexagon_tri","room_assignment":["grey","yellow","green","blue","red","purple"],"door_color_assignment":["white","black"],"door_generator_assignment":[1,0],"goal":3,"start":4,"action_noise":0.15,"location_history":"[4,2,1,3]","action_history":"[1,0,0]","door_history":"[0,1,1]","location_rts":"[973,551,1006]","trial_type":"two-door-navigation","trial_index":42,"time_elapsed":1532533,"internal_node_id":"0.0-2.0-40.0"},{"group":"hexagon_tri","room_assignment":["grey","yellow","green","blue","red","purple"],"door_color_assignment":["white","black"],"door_generator_assignment":[1,0],"goal":2,"start":3,"action_noise":0.15,"location_history":"[3,2]","action_history":"[0]","door_history":"[1]","location_rts":"[1775]","trial_type":"two-door-navigation","trial_index":43,"time_elapsed":1538871,"internal_node_id":"0.0-2.0-41.0"},{"group":"hexagon_tri","room_assignment":["grey","yellow","green","blue","red","purple"],"door_color_assignment":["white","black"],"door_generator_assignment":[1,0],"goal":0,"start":2,"action_noise":0.15,"location_history":"[2,1,3,4,0]","action_history":"[0,0,1,1]","door_history":"[1,1,0,0]","location_rts":"[1019,1152,2338,561]","trial_type":"two-door-navigation","trial_index":44,"time_elapsed":1551744,"internal_node_id":"0.0-2.0-42.0"},{"group":"hexagon_tri","room_assignment":["grey","yellow","green","blue","red","purple"],"door_color_assignment":["white","black"],"door_generator_assignment":[1,0],"goal":5,"start":0,"action_noise":0.15,"location_history":"[0,1,3,4,2,1,3,2,1,5]","action_history":"[1,0,1,1,0,0,0,0,0]","door_history":"[0,1,0,0,1,1,1,1,1]","location_rts":"[654,837,858,472,1234,943,686,445,1428]","trial_type":"two-door-navigation","trial_index":45,"time_elapsed":1572696,"internal_node_id":"0.0-2.0-43.0"},{"group":"hexagon_tri","room_assignment":["grey","yellow","green","blue","red","purple"],"door_color_assignment":["white","black"],"door_generator_assignment":[1,0],"goal":0,"start":5,"action_noise":0.15,"location_history":"[5,4,0]","action_history":"[0,0]","door_history":"[1,1]","location_rts":"[19120,792]","trial_type":"two-door-navigation","trial_index":46,"time_elapsed":1598303,"internal_node_id":"0.0-2.0-44.0"},{"group":"hexagon_tri","room_assignment":["grey","yellow","green","blue","red","purple"],"door_color_assignment":["white","black"],"door_generator_assignment":[1,0],"goal":2,"start":0,"action_noise":0.15,"location_history":"[0,1,5,0,1,3,4,2]","action_history":"[1,1,0,1,1,1,1]","door_history":"[0,0,1,0,0,0,0]","location_rts":"[5093,560,606,593,408,942,485]","trial_type":"two-door-navigation","trial_index":47,"time_elapsed":1617972,"internal_node_id":"0.0-2.0-45.0"},{"group":"hexagon_tri","room_assignment":["grey","yellow","green","blue","red","purple"],"door_color_assignment":["white","black"],"door_generator_assignment":[1,0],"goal":4,"start":2,"action_noise":0.15,"location_history":"[2,1,5,0,1,3,4]","action_history":"[0,0,1,1,1,1]","door_history":"[1,1,0,0,0,0]","location_rts":"[1941,455,600,472,1841,1425]","trial_type":"two-door-navigation","trial_index":48,"time_elapsed":1634601,"internal_node_id":"0.0-2.0-46.0"},{"group":"hexagon_tri","room_assignment":["grey","yellow","green","blue","red","purple"],"door_color_assignment":["white","black"],"door_generator_assignment":[1,0],"goal":1,"start":4,"action_noise":0.15,"location_history":"[4,2,3,2,1]","action_history":"[1,1,0,0]","door_history":"[0,0,1,1]","location_rts":"[1511,1273,600,542]","trial_type":"two-door-navigation","trial_index":49,"time_elapsed":1646333,"internal_node_id":"0.0-2.0-47.0"},{"group":"hexagon_tri","room_assignment":["grey","yellow","green","blue","red","purple"],"door_color_assignment":["white","black"],"door_generator_assignment":[1,0],"goal":5,"start":1,"action_noise":0.15,"location_history":"[1,3,2,1,5]","action_history":"[0,0,1,1]","door_history":"[1,1,0,0]","location_rts":"[1222,591,930,636]","trial_type":"two-door-navigation","trial_index":50,"time_elapsed":1657451,"internal_node_id":"0.0-2.0-48.0"},{"group":"hexagon_tri","room_assignment":["grey","yellow","green","blue","red","purple"],"door_color_assignment":["white","black"],"door_generator_assignment":[1,0],"goal":3,"start":5,"action_noise":0.15,"location_history":"[5,0,5,4,0,5,4,2,1,3]","action_history":"[1,0,0,0,0,0,1,1,0]","door_history":"[0,1,1,1,1,1,0,0,1]","location_rts":"[1036,488,1003,637,656,1447,2084,895,913]","trial_type":"two-door-navigation","trial_index":51,"time_elapsed":1679738,"internal_node_id":"0.0-2.0-49.0"},{"view_history":"[{\"page_index\":0,\"viewing_time\":2848}]","rt":2848,"trial_type":"instructions","trial_index":52,"time_elapsed":1683590,"internal_node_id":"0.0-3.0"},{"view_history":"[{\"page_index\":0,\"viewing_time\":1109},{\"page_index\":1,\"viewing_time\":93624}]","rt":94734,"trial_type":"instructions","trial_index":53,"time_elapsed":1779330,"internal_node_id":"0.0-4.0"},{"group":"hexagon_bi","fractal_assignment":["../images/org_blu.png","../images/cyn_red.png","../images/ylw_slt.png","../images/blu_wht.png","../images/gry_blk.png","../images/pnk_blu.png"],"mutagen_generator_assignment":[0,1],"goal":3,"start":5,"action_noise":0.15,"location_history":"[5,0,1,0,1,0,5,0,1,2,3]","action_history":"[0,1,1,1,0,0,0,1,0,1]","mutagen_history":"[0,1,1,1,0,0,0,1,0,1]","location_rts":"[1974,366,891,464,2549,2928,771,345,650,882]","trial_type":"fractal-mutation","trial_index":54,"time_elapsed":1805441,"internal_node_id":"0.0-5.0-0.0"},{"group":"hexagon_bi","fractal_assignment":["../images/org_blu.png","../images/cyn_red.png","../images/ylw_slt.png","../images/blu_wht.png","../images/gry_blk.png","../images/pnk_blu.png"],"mutagen_generator_assignment":[0,1],"goal":1,"start":3,"action_noise":0.15,"location_history":"[3,2,1]","action_history":"[1,1]","mutagen_history":"[1,1]","location_rts":"[2120,1038]","trial_type":"fractal-mutation","trial_index":55,"time_elapsed":1814263,"internal_node_id":"0.0-5.0-1.0"},{"group":"hexagon_bi","fractal_assignment":["../images/org_blu.png","../images/cyn_red.png","../images/ylw_slt.png","../images/blu_wht.png","../images/gry_blk.png","../images/pnk_blu.png"],"mutagen_generator_assignment":[0,1],"goal":0,"start":1,"action_noise":0.15,"location_history":"[1,2,1,2,1,0]","action_history":"[0,0,0,0,1]","mutagen_history":"[0,0,0,0,1]","location_rts":"[713,662,1010,884,377]","trial_type":"fractal-mutation","trial_index":56,"time_elapsed":1826799,"internal_node_id":"0.0-5.0-2.0"},{"group":"hexagon_bi","fractal_assignment":["../images/org_blu.png","../images/cyn_red.png","../images/ylw_slt.png","../images/blu_wht.png","../images/gry_blk.png","../images/pnk_blu.png"],"mutagen_generator_assignment":[0,1],"goal":3,"start":0,"action_noise":0.15,"location_history":"[0,5,0,1,0,5,4,5,4,3]","action_history":"[1,0,0,1,0,1,1,0,0]","mutagen_history":"[1,0,0,1,0,1,1,0,0]","location_rts":"[349,693,356,931,926,621,1004,534,670]","trial_type":"fractal-mutation","trial_index":57,"time_elapsed":1846102,"internal_node_id":"0.0-5.0-3.0"},{"group":"hexagon_bi","fractal_assignment":["../images/org_blu.png","../images/cyn_red.png","../images/ylw_slt.png","../images/blu_wht.png","../images/gry_blk.png","../images/pnk_blu.png"],"mutagen_generator_assignment":[0,1],"goal":4,"start":3,"action_noise":0.15,"location_history":"[3,4]","action_history":"[1]","mutagen_history":"[1]","location_rts":"[788]","trial_type":"fractal-mutation","trial_index":58,"time_elapsed":1851477,"internal_node_id":"0.0-5.0-4.0"},{"group":"hexagon_bi","fractal_assignment":["../images/org_blu.png","../images/cyn_red.png","../images/ylw_slt.png","../images/blu_wht.png","../images/gry_blk.png","../images/pnk_blu.png"],"mutagen_generator_assignment":[0,1],"goal":2,"start":4,"action_noise":0.15,"location_history":"[4,3,4,5,0,1,2]","action_history":"[0,1,1,0,0,0]","mutagen_history":"[0,1,1,0,0,0]","location_rts":"[871,1024,852,574,501,570]","trial_type":"fractal-mutation","trial_index":59,"time_elapsed":1866673,"internal_node_id":"0.0-5.0-5.0"},{"group":"hexagon_bi","fractal_assignment":["../images/org_blu.png","../images/cyn_red.png","../images/ylw_slt.png","../images/blu_wht.png","../images/gry_blk.png","../images/pnk_blu.png"],"mutagen_generator_assignment":[0,1],"goal":1,"start":2,"action_noise":0.15,"location_history":"[2,1]","action_history":"[0]","mutagen_history":"[0]","location_rts":"[131169]","trial_type":"fractal-mutation","trial_index":60,"time_elapsed":2002758,"internal_node_id":"0.0-5.0-6.0"},{"group":"hexagon_bi","fractal_assignment":["../images/org_blu.png","../images/cyn_red.png","../images/ylw_slt.png","../images/blu_wht.png","../images/gry_blk.png","../images/pnk_blu.png"],"mutagen_generator_assignment":[0,1],"goal":5,"start":1,"action_noise":0.15,"location_history":"[1,0,1,0,5]","action_history":"[1,1,0,0]","mutagen_history":"[1,1,0,0]","location_rts":"[581,974,539,686]","trial_type":"fractal-mutation","trial_index":61,"time_elapsed":2013366,"internal_node_id":"0.0-5.0-7.0"},{"group":"hexagon_bi","fractal_assignment":["../images/org_blu.png","../images/cyn_red.png","../images/ylw_slt.png","../images/blu_wht.png","../images/gry_blk.png","../images/pnk_blu.png"],"mutagen_generator_assignment":[0,1],"goal":4,"start":5,"action_noise":0.15,"location_history":"[5,0,1,0,1,2,3,4]","action_history":"[0,1,1,1,0,0,1]","mutagen_history":"[0,1,1,1,0,0,1]","location_rts":"[1008,1775,2648,366,4708,1058,800]","trial_type":"fractal-mutation","trial_index":62,"time_elapsed":2036797,"internal_node_id":"0.0-5.0-8.0"},{"group":"hexagon_bi","fractal_assignment":["../images/org_blu.png","../images/cyn_red.png","../images/ylw_slt.png","../images/blu_wht.png","../images/gry_blk.png","../images/pnk_blu.png"],"mutagen_generator_assignment":[0,1],"goal":2,"start":4,"action_noise":0.15,"location_history":"[4,3,4,3,2]","action_history":"[0,1,1,0]","mutagen_history":"[0,1,1,0]","location_rts":"[729,579,538,1218]","trial_type":"fractal-mutation","trial_index":63,"time_elapsed":2047690,"internal_node_id":"0.0-5.0-9.0"},{"group":"hexagon_bi","fractal_assignment":["../images/org_blu.png","../images/cyn_red.png","../images/ylw_slt.png","../images/blu_wht.png","../images/gry_blk.png","../images/pnk_blu.png"],"mutagen_generator_assignment":[0,1],"goal":0,"start":2,"action_noise":0.15,"location_history":"[2,3,4,3,2,3,4,3,4,5,0]","action_history":"[1,0,0,1,1,1,0,0,1,0]","mutagen_history":"[1,0,0,1,1,1,0,0,1,0]","location_rts":"[1547,887,606,659,355,1071,752,1325,525,864]","trial_type":"fractal-mutation","trial_index":64,"time_elapsed":2070680,"internal_node_id":"0.0-5.0-10.0"},{"group":"hexagon_bi","fractal_assignment":["../images/org_blu.png","../images/cyn_red.png","../images/ylw_slt.png","../images/blu_wht.png","../images/gry_blk.png","../images/pnk_blu.png"],"mutagen_generator_assignment":[0,1],"goal":1,"start":0,"action_noise":0.15,"location_history":"[0,1]","action_history":"[1]","mutagen_history":"[1]","location_rts":"[1847]","trial_type":"fractal-mutation","trial_index":65,"time_elapsed":2077407,"internal_node_id":"0.0-5.0-11.0"},{"group":"hexagon_bi","fractal_assignment":["../images/org_blu.png","../images/cyn_red.png","../images/ylw_slt.png","../images/blu_wht.png","../images/gry_blk.png","../images/pnk_blu.png"],"mutagen_generator_assignment":[0,1],"goal":3,"start":1,"action_noise":0.15,"location_history":"[1,2,1,2,1,0,1,0,1,2,1,0,1,0,5,4,3]","action_history":"[0,1,0,0,0,1,1,1,0,0,1,0,1,1,0,0]","mutagen_history":"[0,1,0,0,0,1,1,1,0,0,1,0,1,1,0,0]","location_rts":"[699,807,484,813,541,486,505,406,651,1022,587,606,560,404,813,1192]","trial_type":"fractal-mutation","trial_index":66,"time_elapsed":2108806,"internal_node_id":"0.0-5.0-12.0"},{"group":"hexagon_bi","fractal_assignment":["../images/org_blu.png","../images/cyn_red.png","../images/ylw_slt.png","../images/blu_wht.png","../images/gry_blk.png","../images/pnk_blu.png"],"mutagen_generator_assignment":[0,1],"goal":5,"start":3,"action_noise":0.15,"location_history":"[3,4,5]","action_history":"[0,1]","mutagen_history":"[0,1]","location_rts":"[2126,796]","trial_type":"fractal-mutation","trial_index":67,"time_elapsed":2117738,"internal_node_id":"0.0-5.0-13.0"},{"group":"hexagon_bi","fractal_assignment":["../images/org_blu.png","../images/cyn_red.png","../images/ylw_slt.png","../images/blu_wht.png","../images/gry_blk.png","../images/pnk_blu.png"],"mutagen_generator_assignment":[0,1],"goal":4,"start":5,"action_noise":0.15,"location_history":"[5,0,1,2,1,2,3,2,1,2,3,2,3,4]","action_history":"[0,1,1,0,0,1,1,0,0,0,1,1,1]","mutagen_history":"[0,1,1,0,0,1,1,0,0,0,1,1,1]","location_rts":"[678,584,820,694,458,709,666,488,553,620,782,969,660]","trial_type":"fractal-mutation","trial_index":68,"time_elapsed":2144671,"internal_node_id":"0.0-5.0-14.0"},{"group":"hexagon_bi","fractal_assignment":["../images/org_blu.png","../images/cyn_red.png","../images/ylw_slt.png","../images/blu_wht.png","../images/gry_blk.png","../images/pnk_blu.png"],"mutagen_generator_assignment":[0,1],"goal":0,"start":4,"action_noise":0.15,"location_history":"[4,3,4,5,4,3,4,5,0]","action_history":"[0,1,1,1,0,0,1,0]","mutagen_history":"[0,1,1,1,0,0,1,0]","location_rts":"[112889,480,383,537,446,398,511,727]","trial_type":"fractal-mutation","trial_index":69,"time_elapsed":2273847,"internal_node_id":"0.0-5.0-15.0"},{"group":"hexagon_bi","fractal_assignment":["../images/org_blu.png","../images/cyn_red.png","../images/ylw_slt.png","../images/blu_wht.png","../images/gry_blk.png","../images/pnk_blu.png"],"mutagen_generator_assignment":[0,1],"goal":3,"start":0,"action_noise":0.15,"location_history":"[0,5,4,5,4,3]","action_history":"[0,1,1,1,0]","mutagen_history":"[0,1,1,1,0]","location_rts":"[33079,784,356,475,511]","trial_type":"fractal-mutation","trial_index":70,"time_elapsed":2319709,"internal_node_id":"0.0-5.0-16.0"},{"group":"hexagon_bi","fractal_assignment":["../images/org_blu.png","../images/cyn_red.png","../images/ylw_slt.png","../images/blu_wht.png","../images/gry_blk.png","../images/pnk_blu.png"],"mutagen_generator_assignment":[0,1],"goal":1,"start":3,"action_noise":0.15,"location_history":"[3,4,5,4,3,2,1]","action_history":"[0,1,1,1,1,0]","mutagen_history":"[0,1,1,1,1,0]","location_rts":"[49596,448,372,338,504,533]","trial_type":"fractal-mutation","trial_index":71,"time_elapsed":2382729,"internal_node_id":"0.0-5.0-17.0"},{"group":"hexagon_bi","fractal_assignment":["../images/org_blu.png","../images/cyn_red.png","../images/ylw_slt.png","../images/blu_wht.png","../images/gry_blk.png","../images/pnk_blu.png"],"mutagen_generator_assignment":[0,1],"goal":5,"start":1,"action_noise":0.15,"location_history":"[1,2,3,2,3,4,3,2,3,4,3,4,3,2,1,2,3,2,1,0,1,0,5]","action_history":"[0,1,1,1,0,0,1,1,0,0,0,0,1,0,0,1,1,0,1,1,1,0]","mutagen_history":"[0,1,1,1,0,0,1,1,0,0,0,0,1,0,0,1,1,0,1,1,1,0]","location_rts":"[100346,846,129,448,342,575,748,1317,434,433,553,468,974,735,680,643,913,620,970,649,826,493]","trial_type":"fractal-mutation","trial_index":72,"time_elapsed":2524429,"internal_node_id":"0.0-5.0-18.0"},{"group":"hexagon_bi","fractal_assignment":["../images/org_blu.png","../images/cyn_red.png","../images/ylw_slt.png","../images/blu_wht.png","../images/gry_blk.png","../images/pnk_blu.png"],"mutagen_generator_assignment":[0,1],"goal":2,"start":5,"action_noise":0.15,"location_history":"[5,0,1,2]","action_history":"[0,1,0]","mutagen_history":"[0,1,0]","location_rts":"[2955,751,728]","trial_type":"fractal-mutation","trial_index":73,"time_elapsed":2535617,"internal_node_id":"0.0-5.0-19.0"},{"group":"hexagon_bi","fractal_assignment":["../images/org_blu.png","../images/cyn_red.png","../images/ylw_slt.png","../images/blu_wht.png","../images/gry_blk.png","../images/pnk_blu.png"],"mutagen_generator_assignment":[0,1],"goal":4,"start":2,"action_noise":0.15,"location_history":"[2,1,0,5,0,1,2,3,2,3,2,3,4]","action_history":"[0,1,0,0,1,0,0,1,1,0,1,0]","mutagen_history":"[0,1,0,0,1,0,0,1,1,0,1,0]","location_rts":"[732,918,773,1886,692,957,860,830,1254,879,762,1268]","trial_type":"fractal-mutation","trial_index":74,"time_elapsed":2563899,"internal_node_id":"0.0-5.0-20.0"},{"group":"hexagon_bi","fractal_assignment":["../images/org_blu.png","../images/cyn_red.png","../images/ylw_slt.png","../images/blu_wht.png","../images/gry_blk.png","../images/pnk_blu.png"],"mutagen_generator_assignment":[0,1],"goal":1,"start":4,"action_noise":0.15,"location_history":"[4,3,2,3,2,3,4,5,4,3,4,3,2,3,4,3,4,5,4,5,0,5,4,3,4,5,0,5,0,5,4,5,0,5,4,3,4,5,0,5,4,5,4,3,2,1]","action_history":"[0,1,1,1,1,0,0,1,1,1,0,0,1,0,0,1,1,1,1,0,0,1,0,0,1,0,0,1,1,1,1,0,0,1,0,0,1,0,0,1,1,0,0,1,0]","mutagen_history":"[0,1,1,1,1,0,0,1,1,1,0,0,1,0,0,1,1,1,1,0,0,1,0,0,1,0,0,1,1,1,1,0,0,1,0,0,1,0,0,1,1,0,0,1,0]","location_rts":"[2578,480,522,708,338,632,698,542,723,949,588,661,455,667,1023,503,488,439,640,515,689,1074,541,614,765,562,1444,663,536,504,1124,483,479,347,506,665,555,576,589,543,526,673,491,517,895]","trial_type":"fractal-mutation","trial_index":75,"time_elapsed":2646477,"internal_node_id":"0.0-5.0-21.0"},{"group":"hexagon_bi","fractal_assignment":["../images/org_blu.png","../images/cyn_red.png","../images/ylw_slt.png","../images/blu_wht.png","../images/gry_blk.png","../images/pnk_blu.png"],"mutagen_generator_assignment":[0,1],"goal":3,"start":1,"action_noise":0.15,"location_history":"[1,2,3]","action_history":"[0,1]","mutagen_history":"[0,1]","location_rts":"[61661,817]","trial_type":"fractal-mutation","trial_index":76,"time_elapsed":2716026,"internal_node_id":"0.0-5.0-22.0"},{"group":"hexagon_bi","fractal_assignment":["../images/org_blu.png","../images/cyn_red.png","../images/ylw_slt.png","../images/blu_wht.png","../images/gry_blk.png","../images/pnk_blu.png"],"mutagen_generator_assignment":[0,1],"goal":2,"start":3,"action_noise":0.15,"location_history":"[3,4,3,4,5,0,5,0,5,4,3,4,5,0,1,2]","action_history":"[0,1,0,1,1,0,0,0,1,0,0,1,1,1,0]","mutagen_history":"[0,1,0,1,1,0,0,0,1,0,0,1,1,1,0]","location_rts":"[904,947,801,441,911,462,436,426,518,558,688,380,442,557,423]","trial_type":"fractal-mutation","trial_index":77,"time_elapsed":2745819,"internal_node_id":"0.0-5.0-23.0"},{"group":"hexagon_bi","fractal_assignment":["../images/org_blu.png","../images/cyn_red.png","../images/ylw_slt.png","../images/blu_wht.png","../images/gry_blk.png","../images/pnk_blu.png"],"mutagen_generator_assignment":[0,1],"goal":0,"start":2,"action_noise":0.15,"location_history":"[2,1,0]","action_history":"[0,1]","mutagen_history":"[0,1]","location_rts":"[19841,622]","trial_type":"fractal-mutation","trial_index":78,"time_elapsed":2772051,"internal_node_id":"0.0-5.0-24.0"},{"group":"hexagon_bi","fractal_assignment":["../images/org_blu.png","../images/cyn_red.png","../images/ylw_slt.png","../images/blu_wht.png","../images/gry_blk.png","../images/pnk_blu.png"],"mutagen_generator_assignment":[0,1],"goal":5,"start":0,"action_noise":0.15,"location_history":"[0,5]","action_history":"[0]","mutagen_history":"[0]","location_rts":"[676]","trial_type":"fractal-mutation","trial_index":79,"time_elapsed":2777298,"internal_node_id":"0.0-5.0-25.0"},{"group":"hexagon_bi","fractal_assignment":["../images/org_blu.png","../images/cyn_red.png","../images/ylw_slt.png","../images/blu_wht.png","../images/gry_blk.png","../images/pnk_blu.png"],"mutagen_generator_assignment":[0,1],"goal":2,"start":5,"action_noise":0.15,"location_history":"[5,4,3,4,5,0,5,0,1,2]","action_history":"[1,0,0,0,1,1,0,0,0]","mutagen_history":"[1,0,0,0,1,1,0,0,0]","location_rts":"[571,546,431,842,444,633,479,362,611]","trial_type":"fractal-mutation","trial_index":80,"time_elapsed":2795419,"internal_node_id":"0.0-5.0-26.0"},{"group":"hexagon_bi","fractal_assignment":["../images/org_blu.png","../images/cyn_red.png","../images/ylw_slt.png","../images/blu_wht.png","../images/gry_blk.png","../images/pnk_blu.png"],"mutagen_generator_assignment":[0,1],"goal":3,"start":2,"action_noise":0.15,"location_history":"[2,1,0,1,0,1,2,1,2,1,0,1,2,3]","action_history":"[0,1,1,1,1,0,0,0,0,1,1,0,1]","mutagen_history":"[0,1,1,1,1,0,0,0,0,1,1,0,1]","location_rts":"[19102,626,362,245,783,404,993,576,823,364,557,473,285]","trial_type":"fractal-mutation","trial_index":81,"time_elapsed":2838698,"internal_node_id":"0.0-5.0-27.0"},{"group":"hexagon_bi","fractal_assignment":["../images/org_blu.png","../images/cyn_red.png","../images/ylw_slt.png","../images/blu_wht.png","../images/gry_blk.png","../images/pnk_blu.png"],"mutagen_generator_assignment":[0,1],"goal":0,"start":3,"action_noise":0.15,"location_history":"[3,2,1,2,1,0]","action_history":"[1,0,0,0,1]","mutagen_history":"[1,0,0,0,1]","location_rts":"[25136,578,558,553,766]","trial_type":"fractal-mutation","trial_index":82,"time_elapsed":2875216,"internal_node_id":"0.0-5.0-28.0"},{"group":"hexagon_bi","fractal_assignment":["../images/org_blu.png","../images/cyn_red.png","../images/ylw_slt.png","../images/blu_wht.png","../images/gry_blk.png","../images/pnk_blu.png"],"mutagen_generator_assignment":[0,1],"goal":1,"start":0,"action_noise":0.15,"location_history":"[0,5,0,1]","action_history":"[1,0,1]","mutagen_history":"[1,0,1]","location_rts":"[8662,736,617]","trial_type":"fractal-mutation","trial_index":83,"time_elapsed":2892525,"internal_node_id":"0.0-5.0-29.0"},{"group":"hexagon_bi","fractal_assignment":["../images/org_blu.png","../images/cyn_red.png","../images/ylw_slt.png","../images/blu_wht.png","../images/gry_blk.png","../images/pnk_blu.png"],"mutagen_generator_assignment":[0,1],"goal":4,"start":1,"action_noise":0.15,"location_history":"[1,2,3,4]","action_history":"[0,1,0]","mutagen_history":"[0,1,0]","location_rts":"[22246,597,630]","trial_type":"fractal-mutation","trial_index":84,"time_elapsed":2922962,"internal_node_id":"0.0-5.0-30.0"},{"group":"hexagon_bi","fractal_assignment":["../images/org_blu.png","../images/cyn_red.png","../images/ylw_slt.png","../images/blu_wht.png","../images/gry_blk.png","../images/pnk_blu.png"],"mutagen_generator_assignment":[0,1],"goal":5,"start":4,"action_noise":0.15,"location_history":"[4,5]","action_history":"[1]","mutagen_history":"[1]","location_rts":"[2339]","trial_type":"fractal-mutation","trial_index":85,"time_elapsed":2929889,"internal_node_id":"0.0-5.0-31.0"},{"group":"hexagon_bi","fractal_assignment":["../images/org_blu.png","../images/cyn_red.png","../images/ylw_slt.png","../images/blu_wht.png","../images/gry_blk.png","../images/pnk_blu.png"],"mutagen_generator_assignment":[0,1],"goal":0,"start":5,"action_noise":0.15,"location_history":"[5,4,3,4,5,4,3,4,5,0]","action_history":"[1,0,0,1,1,0,0,1,0]","mutagen_history":"[1,0,0,1,1,0,0,1,0]","location_rts":"[2796,1513,450,774,458,1354,870,1001,1068]","trial_type":"fractal-mutation","trial_index":86,"time_elapsed":2953418,"internal_node_id":"0.0-5.0-32.0"},{"group":"hexagon_bi","fractal_assignment":["../images/org_blu.png","../images/cyn_red.png","../images/ylw_slt.png","../images/blu_wht.png","../images/gry_blk.png","../images/pnk_blu.png"],"mutagen_generator_assignment":[0,1],"goal":3,"start":0,"action_noise":0.15,"location_history":"[0,1,2,3]","action_history":"[1,0,0]","mutagen_history":"[1,0,0]","location_rts":"[1088,1021,2339]","trial_type":"fractal-mutation","trial_index":87,"time_elapsed":2964607,"internal_node_id":"0.0-5.0-33.0"},{"group":"hexagon_bi","fractal_assignment":["../images/org_blu.png","../images/cyn_red.png","../images/ylw_slt.png","../images/blu_wht.png","../images/gry_blk.png","../images/pnk_blu.png"],"mutagen_generator_assignment":[0,1],"goal":1,"start":3,"action_noise":0.15,"location_history":"[3,4,5,0,1]","action_history":"[0,1,0,0]","mutagen_history":"[0,1,0,0]","location_rts":"[2217,609,1317,1146]","trial_type":"fractal-mutation","trial_index":88,"time_elapsed":2977729,"internal_node_id":"0.0-5.0-34.0"},{"group":"hexagon_bi","fractal_assignment":["../images/org_blu.png","../images/cyn_red.png","../images/ylw_slt.png","../images/blu_wht.png","../images/gry_blk.png","../images/pnk_blu.png"],"mutagen_generator_assignment":[0,1],"goal":2,"start":1,"action_noise":0.15,"location_history":"[1,0,5,0,5,4,5,0,5,4,5,0,5,4,3,4,5,4,5,0,1,2]","action_history":"[1,0,0,0,1,1,0,0,1,1,0,0,1,0,1,0,1,0,0,1,0]","mutagen_history":"[1,0,0,0,1,1,0,0,1,1,0,0,1,0,1,0,1,0,0,1,0]","location_rts":"[536,689,394,600,663,776,409,645,700,554,970,845,1077,657,622,478,599,631,748,778,477]","trial_type":"fractal-mutation","trial_index":89,"time_elapsed":3018647,"internal_node_id":"0.0-5.0-35.0"},{"group":"hexagon_bi","fractal_assignment":["../images/org_blu.png","../images/cyn_red.png","../images/ylw_slt.png","../images/blu_wht.png","../images/gry_blk.png","../images/pnk_blu.png"],"mutagen_generator_assignment":[0,1],"goal":4,"start":2,"action_noise":0.15,"location_history":"[2,1,2,1,0,5,0,1,0,5,4]","action_history":"[1,0,0,1,0,0,1,1,0,1]","mutagen_history":"[1,0,0,1,0,0,1,1,0,1]","location_rts":"[11656,460,536,397,492,696,372,703,624,692]","trial_type":"fractal-mutation","trial_index":90,"time_elapsed":3050898,"internal_node_id":"0.0-5.0-36.0"},{"group":"hexagon_bi","fractal_assignment":["../images/org_blu.png","../images/cyn_red.png","../images/ylw_slt.png","../images/blu_wht.png","../images/gry_blk.png","../images/pnk_blu.png"],"mutagen_generator_assignment":[0,1],"goal":5,"start":4,"action_noise":0.15,"location_history":"[4,3,4,3,2,3,4,3,4,3,4,5]","action_history":"[1,0,0,1,1,0,0,0,0,0,1]","mutagen_history":"[1,0,0,1,1,0,0,0,0,0,1]","location_rts":"[9003,841,517,626,448,836,354,790,619,887,577]","trial_type":"fractal-mutation","trial_index":91,"time_elapsed":3081746,"internal_node_id":"0.0-5.0-37.0"},{"group":"hexagon_bi","fractal_assignment":["../images/org_blu.png","../images/cyn_red.png","../images/ylw_slt.png","../images/blu_wht.png","../images/gry_blk.png","../images/pnk_blu.png"],"mutagen_generator_assignment":[0,1],"goal":1,"start":5,"action_noise":0.15,"location_history":"[5,4,5,4,3,4,5,0,1]","action_history":"[0,1,1,0,0,1,0,1]","mutagen_history":"[0,1,1,0,0,1,0,1]","location_rts":"[62833,1301,563,526,2860,1517,409,892]","trial_type":"fractal-mutation","trial_index":92,"time_elapsed":3165759,"internal_node_id":"0.0-5.0-38.0"},{"group":"hexagon_bi","fractal_assignment":["../images/org_blu.png","../images/cyn_red.png","../images/ylw_slt.png","../images/blu_wht.png","../images/gry_blk.png","../images/pnk_blu.png"],"mutagen_generator_assignment":[0,1],"goal":4,"start":1,"action_noise":0.15,"location_history":"[1,2,3,2,1,2,3,4]","action_history":"[0,0,1,0,1,1,0]","mutagen_history":"[0,0,1,0,1,1,0]","location_rts":"[4029,1050,814,486,674,456,493]","trial_type":"fractal-mutation","trial_index":93,"time_elapsed":3184835,"internal_node_id":"0.0-5.0-39.0"},{"group":"hexagon_bi","fractal_assignment":["../images/org_blu.png","../images/cyn_red.png","../images/ylw_slt.png","../images/blu_wht.png","../images/gry_blk.png","../images/pnk_blu.png"],"mutagen_generator_assignment":[0,1],"goal":3,"start":4,"action_noise":0.15,"location_history":"[4,3]","action_history":"[0]","mutagen_history":"[0]","location_rts":"[781]","trial_type":"fractal-mutation","trial_index":94,"time_elapsed":3190210,"internal_node_id":"0.0-5.0-40.0"},{"group":"hexagon_bi","fractal_assignment":["../images/org_blu.png","../images/cyn_red.png","../images/ylw_slt.png","../images/blu_wht.png","../images/gry_blk.png","../images/pnk_blu.png"],"mutagen_generator_assignment":[0,1],"goal":2,"start":3,"action_noise":0.15,"location_history":"[3,2]","action_history":"[1]","mutagen_history":"[1]","location_rts":"[3484]","trial_type":"fractal-mutation","trial_index":95,"time_elapsed":3198288,"internal_node_id":"0.0-5.0-41.0"},{"group":"hexagon_bi","fractal_assignment":["../images/org_blu.png","../images/cyn_red.png","../images/ylw_slt.png","../images/blu_wht.png","../images/gry_blk.png","../images/pnk_blu.png"],"mutagen_generator_assignment":[0,1],"goal":0,"start":2,"action_noise":0.15,"location_history":"[2,1,2,1,2,1,0]","action_history":"[0,0,0,0,0,1]","mutagen_history":"[0,0,0,0,0,1]","location_rts":"[2301,1416,1496,905,1361,1635]","trial_type":"fractal-mutation","trial_index":96,"time_elapsed":3217372,"internal_node_id":"0.0-5.0-42.0"},{"group":"hexagon_bi","fractal_assignment":["../images/org_blu.png","../images/cyn_red.png","../images/ylw_slt.png","../images/blu_wht.png","../images/gry_blk.png","../images/pnk_blu.png"],"mutagen_generator_assignment":[0,1],"goal":5,"start":0,"action_noise":0.15,"location_history":"[0,5]","action_history":"[1]","mutagen_history":"[1]","location_rts":"[12805]","trial_type":"fractal-mutation","trial_index":97,"time_elapsed":3235149,"internal_node_id":"0.0-5.0-43.0"},{"group":"hexagon_bi","fractal_assignment":["../images/org_blu.png","../images/cyn_red.png","../images/ylw_slt.png","../images/blu_wht.png","../images/gry_blk.png","../images/pnk_blu.png"],"mutagen_generator_assignment":[0,1],"goal":0,"start":5,"action_noise":0.15,"location_history":"[5,0]","action_history":"[0]","mutagen_history":"[0]","location_rts":"[957]","trial_type":"fractal-mutation","trial_index":98,"time_elapsed":3240698,"internal_node_id":"0.0-5.0-44.0"},{"group":"hexagon_bi","fractal_assignment":["../images/org_blu.png","../images/cyn_red.png","../images/ylw_slt.png","../images/blu_wht.png","../images/gry_blk.png","../images/pnk_blu.png"],"mutagen_generator_assignment":[0,1],"goal":2,"start":0,"action_noise":0.15,"location_history":"[0,1,2]","action_history":"[1,0]","mutagen_history":"[1,0]","location_rts":"[404,1064]","trial_type":"fractal-mutation","trial_index":99,"time_elapsed":3247836,"internal_node_id":"0.0-5.0-45.0"},{"group":"hexagon_bi","fractal_assignment":["../images/org_blu.png","../images/cyn_red.png","../images/ylw_slt.png","../images/blu_wht.png","../images/gry_blk.png","../images/pnk_blu.png"],"mutagen_generator_assignment":[0,1],"goal":4,"start":2,"action_noise":0.15,"location_history":"[2,1,2,1,0,1,0,5,0,5,0,1,0,1,2,1,2,3,4]","action_history":"[1,0,0,1,1,1,0,0,0,0,1,1,1,0,0,0,1,0]","mutagen_history":"[1,0,0,1,1,1,0,0,0,0,1,1,1,0,0,0,1,0]","location_rts":"[725,534,732,510,554,425,469,601,487,529,625,707,479,616,590,1024,655,540]","trial_type":"fractal-mutation","trial_index":100,"time_elapsed":3281656,"internal_node_id":"0.0-5.0-46.0"},{"group":"hexagon_bi","fractal_assignment":["../images/org_blu.png","../images/cyn_red.png","../images/ylw_slt.png","../images/blu_wht.png","../images/gry_blk.png","../images/pnk_blu.png"],"mutagen_generator_assignment":[0,1],"goal":1,"start":4,"action_noise":0.15,"location_history":"[4,3,2,3,2,3,2,3,4,3,4,5,0,5,4,5,0,5,4,3,4,5,0,5,4,5,0,1]","action_history":"[0,1,1,1,1,0,0,0,0,0,1,0,0,1,1,0,1,1,0,0,1,1,0,1,0,0,1]","mutagen_history":"[0,1,1,1,1,0,0,0,0,0,1,0,0,1,1,0,1,1,0,0,1,1,0,1,0,0,1]","location_rts":"[23050,565,459,355,514,402,442,687,475,443,603,475,747,528,575,365,282,527,330,523,400,531,463,505,585,558,693]","trial_type":"fractal-mutation","trial_index":101,"time_elapsed":3350664,"internal_node_id":"0.0-5.0-47.0"},{"group":"hexagon_bi","fractal_assignment":["../images/org_blu.png","../images/cyn_red.png","../images/ylw_slt.png","../images/blu_wht.png","../images/gry_blk.png","../images/pnk_blu.png"],"mutagen_generator_assignment":[0,1],"goal":5,"start":1,"action_noise":0.15,"location_history":"[1,2,1,2,1,0,1,2,1,2,1,0,1,0,5]","action_history":"[1,0,0,0,1,1,0,0,0,0,1,1,1,1]","mutagen_history":"[1,0,0,0,1,1,0,0,0,0,1,1,1,1]","location_rts":"[19547,969,567,444,903,982,509,403,481,608,341,479,886,510]","trial_type":"fractal-mutation","trial_index":102,"time_elapsed":3398076,"internal_node_id":"0.0-5.0-48.0"},{"group":"hexagon_bi","fractal_assignment":["../images/org_blu.png","../images/cyn_red.png","../images/ylw_slt.png","../images/blu_wht.png","../images/gry_blk.png","../images/pnk_blu.png"],"mutagen_generator_assignment":[0,1],"goal":3,"start":5,"action_noise":0.15,"location_history":"[5,0,1,0,1,0,1,2,1,2,3]","action_history":"[1,1,0,0,1,1,0,0,0,1]","mutagen_history":"[1,1,0,0,1,1,0,0,0,1]","location_rts":"[7318,497,407,448,405,383,299,678,410,446]","trial_type":"fractal-mutation","trial_index":103,"time_elapsed":3424705,"internal_node_id":"0.0-5.0-49.0"},{"view_history":"[{\"page_index\":0,\"viewing_time\":78374}]","rt":78374,"trial_type":"instructions","trial_index":104,"time_elapsed":3504147,"internal_node_id":"0.0-6.0"},{"rt":68509,"responses":"{\"Q0\":\"In response to message reply from yesterday, it could be that I'm just not as quick to memorize patterns to complete the hit in under half an hour. I'd like to think I'm pretty smart with a graduate degree (ha!) but remembering the patterns are no small feat! I think the last hit will mostly make up for all the time spent between the 3. \"}","trial_type":"survey-text","trial_index":105,"time_elapsed":3573664,"internal_node_id":"0.0-7.0"}]