[{"view_history":"[{\"page_index\":0,\"viewing_time\":2292423},{\"page_index\":1,\"viewing_time\":9274}]","rt":2301699,"trial_type":"instructions","trial_index":0,"time_elapsed":2301699,"internal_node_id":"0.0-0.0"},{"view_history":"[{\"page_index\":0,\"viewing_time\":2222},{\"page_index\":1,\"viewing_time\":3622}]","rt":5844,"trial_type":"instructions","trial_index":1,"time_elapsed":2308545,"internal_node_id":"0.0-1.0"},{"group":"hexagon_tri","room_assignment":["grey","green","purple","red","blue","yellow"],"door_color_assignment":["black","white"],"door_generator_assignment":[0,1],"goal":3,"start":5,"action_noise":0.15,"location_history":"[5,0,5,0,1,5,4,0,5,4,2,3]","action_history":"[0,0,1,1,0,0,0,0,0,1,1]","door_history":"[0,0,1,1,0,0,0,0,0,1,1]","location_rts":"[1882,932,596,857,841,929,554,469,454,456,777]","trial_type":"two-door-navigation","trial_index":2,"time_elapsed":2332045,"internal_node_id":"0.0-2.0-0.0"},{"group":"hexagon_tri","room_assignment":["grey","green","purple","red","blue","yellow"],"door_color_assignment":["black","white"],"door_generator_assignment":[0,1],"goal":1,"start":3,"action_noise":0.15,"location_history":"[3,4,0,5,0,5,4,2,1]","action_history":"[0,0,0,1,0,1,1,0]","door_history":"[0,0,0,1,0,1,1,0]","location_rts":"[4758,300,300,469,774,893,768,1998]","trial_type":"two-door-navigation","trial_index":3,"time_elapsed":2353977,"internal_node_id":"0.0-2.0-1.0"},{"group":"hexagon_tri","room_assignment":["grey","green","purple","red","blue","yellow"],"door_color_assignment":["black","white"],"door_generator_assignment":[0,1],"goal":0,"start":1,"action_noise":0.15,"location_history":"[1,5,4,0]","action_history":"[1,0,0]","door_history":"[1,0,0]","location_rts":"[2108,659,658]","trial_type":"two-door-navigation","trial_index":4,"time_elapsed":2363974,"internal_node_id":"0.0-2.0-2.0"},{"group":"hexagon_tri","room_assignment":["grey","green","purple","red","blue","yellow"],"door_color_assignment":["black","white"],"door_generator_assignment":[0,1],"goal":3,"start":0,"action_noise":0.15,"location_history":"[0,1,5,4,2,1,3]","action_history":"[1,1,1,1,0,0]","door_history":"[1,1,1,1,0,0]","location_rts":"[2051,3088,659,1689,933,638]","trial_type":"two-door-navigation","trial_index":5,"time_elapsed":2382678,"internal_node_id":"0.0-2.0-3.0"},{"group":"hexagon_tri","room_assignment":["grey","green","purple","red","blue","yellow"],"door_color_assignment":["black","white"],"door_generator_assignment":[0,1],"goal":4,"start":3,"action_noise":0.15,"location_history":"[3,2,1,5,4]","action_history":"[0,0,1,0]","door_history":"[0,0,1,0]","location_rts":"[1818,1503,642,776]","trial_type":"two-door-navigation","trial_index":6,"time_elapsed":2395003,"internal_node_id":"0.0-2.0-4.0"},{"group":"hexagon_tri","room_assignment":["grey","green","purple","red","blue","yellow"],"door_color_assignment":["black","white"],"door_generator_assignment":[0,1],"goal":2,"start":4,"action_noise":0.15,"location_history":"[4,0,1,3,2]","action_history":"[0,1,0,0]","door_history":"[0,1,0,0]","location_rts":"[1841,1278,1266,1010]","trial_type":"two-door-navigation","trial_index":7,"time_elapsed":2407982,"internal_node_id":"0.0-2.0-5.0"},{"group":"hexagon_tri","room_assignment":["grey","green","purple","red","blue","yellow"],"door_color_assignment":["black","white"],"door_generator_assignment":[0,1],"goal":1,"start":2,"action_noise":0.15,"location_history":"[2,3,2,3,4,0,5,4,0,1]","action_history":"[0,0,1,1,0,0,1,0,1]","door_history":"[0,0,1,1,0,0,1,0,1]","location_rts":"[1862,741,1301,821,2757,538,928,1415,738]","trial_type":"two-door-navigation","trial_index":8,"time_elapsed":2431783,"internal_node_id":"0.0-2.0-6.0"},{"group":"hexagon_tri","room_assignment":["grey","green","purple","red","blue","yellow"],"door_color_assignment":["black","white"],"door_generator_assignment":[0,1],"goal":5,"start":1,"action_noise":0.15,"location_history":"[1,3,4,0,1,5]","action_history":"[0,1,0,1,0]","door_history":"[0,1,0,1,0]","location_rts":"[1317,1853,1364,840,1982]","trial_type":"two-door-navigation","trial_index":9,"time_elapsed":2447746,"internal_node_id":"0.0-2.0-7.0"},{"group":"hexagon_tri","room_assignment":["grey","green","purple","red","blue","yellow"],"door_color_assignment":["black","white"],"door_generator_assignment":[0,1],"goal":4,"start":5,"action_noise":0.15,"location_history":"[5,4]","action_history":"[0]","door_history":"[0]","location_rts":"[1957]","trial_type":"two-door-navigation","trial_index":10,"time_elapsed":2454226,"internal_node_id":"0.0-2.0-8.0"},{"group":"hexagon_tri","room_assignment":["grey","green","purple","red","blue","yellow"],"door_color_assignment":["black","white"],"door_generator_assignment":[0,1],"goal":2,"start":4,"action_noise":0.15,"location_history":"[4,2]","action_history":"[1]","door_history":"[1]","location_rts":"[3556]","trial_type":"two-door-navigation","trial_index":11,"time_elapsed":2462306,"internal_node_id":"0.0-2.0-9.0"},{"group":"hexagon_tri","room_assignment":["grey","green","purple","red","blue","yellow"],"door_color_assignment":["black","white"],"door_generator_assignment":[0,1],"goal":0,"start":2,"action_noise":0.15,"location_history":"[2,1,5,4,2,3,2,1,3,2,1,5,4,0]","action_history":"[0,1,0,0,1,0,0,0,0,0,1,0,1]","door_history":"[0,1,0,0,1,0,0,0,0,0,1,0,1]","location_rts":"[1945,849,951,899,1581,765,970,750,540,1288,404,1177,1144]","trial_type":"two-door-navigation","trial_index":12,"time_elapsed":2492362,"internal_node_id":"0.0-2.0-10.0"},{"group":"hexagon_tri","room_assignment":["grey","green","purple","red","blue","yellow"],"door_color_assignment":["black","white"],"door_generator_assignment":[0,1],"goal":1,"start":0,"action_noise":0.15,"location_history":"[0,5,0,1]","action_history":"[0,1,1]","door_history":"[0,1,1]","location_rts":"[1194,674,990]","trial_type":"two-door-navigation","trial_index":13,"time_elapsed":2501786,"internal_node_id":"0.0-2.0-11.0"},{"group":"hexagon_tri","room_assignment":["grey","green","purple","red","blue","yellow"],"door_color_assignment":["black","white"],"door_generator_assignment":[0,1],"goal":3,"start":1,"action_noise":0.15,"location_history":"[1,5,0,1,3]","action_history":"[1,0,0,1]","door_history":"[1,0,0,1]","location_rts":"[3309,1794,785,877]","trial_type":"two-door-navigation","trial_index":14,"time_elapsed":2516143,"internal_node_id":"0.0-2.0-12.0"},{"group":"hexagon_tri","room_assignment":["grey","green","purple","red","blue","yellow"],"door_color_assignment":["black","white"],"door_generator_assignment":[0,1],"goal":5,"start":3,"action_noise":0.15,"location_history":"[3,4,2,3,2,3,4,0,5]","action_history":"[0,1,1,0,1,1,0,1]","door_history":"[0,1,1,0,1,1,0,1]","location_rts":"[4830,2078,1783,1142,1027,963,1755,1293]","trial_type":"two-door-navigation","trial_index":15,"time_elapsed":2542684,"internal_node_id":"0.0-2.0-13.0"},{"group":"hexagon_tri","room_assignment":["grey","green","purple","red","blue","yellow"],"door_color_assignment":["black","white"],"door_generator_assignment":[0,1],"goal":4,"start":5,"action_noise":0.15,"location_history":"[5,0,1,3,2,3,4]","action_history":"[0,1,0,0,1,1]","door_history":"[0,1,0,0,1,1]","location_rts":"[1615,856,702,1371,766,754]","trial_type":"two-door-navigation","trial_index":16,"time_elapsed":2558378,"internal_node_id":"0.0-2.0-14.0"},{"group":"hexagon_tri","room_assignment":["grey","green","purple","red","blue","yellow"],"door_color_assignment":["black","white"],"door_generator_assignment":[0,1],"goal":0,"start":4,"action_noise":0.15,"location_history":"[4,0]","action_history":"[0]","door_history":"[0]","location_rts":"[4614]","trial_type":"two-door-navigation","trial_index":17,"time_elapsed":2567516,"internal_node_id":"0.0-2.0-15.0"},{"group":"hexagon_tri","room_assignment":["grey","green","purple","red","blue","yellow"],"door_color_assignment":["black","white"],"door_generator_assignment":[0,1],"goal":3,"start":0,"action_noise":0.15,"location_history":"[0,5,0,1,3]","action_history":"[0,1,1,0]","door_history":"[0,1,1,0]","location_rts":"[7764,729,1053,740]","trial_type":"two-door-navigation","trial_index":18,"time_elapsed":2585389,"internal_node_id":"0.0-2.0-16.0"},{"group":"hexagon_tri","room_assignment":["grey","green","purple","red","blue","yellow"],"door_color_assignment":["black","white"],"door_generator_assignment":[0,1],"goal":1,"start":3,"action_noise":0.15,"location_history":"[3,2,3,4,0,5,4,0,5,0,5,0,1]","action_history":"[0,1,1,1,0,0,0,0,1,0,1,1]","door_history":"[0,1,1,1,0,0,0,0,1,0,1,1]","location_rts":"[1221,1294,818,1862,1604,853,712,900,965,1720,1026,924]","trial_type":"two-door-navigation","trial_index":19,"time_elapsed":2615045,"internal_node_id":"0.0-2.0-17.0"},{"group":"hexagon_tri","room_assignment":["grey","green","purple","red","blue","yellow"],"door_color_assignment":["black","white"],"door_generator_assignment":[0,1],"goal":5,"start":1,"action_noise":0.15,"location_history":"[1,3,2,1,5]","action_history":"[1,0,0,1]","door_history":"[1,0,0,1]","location_rts":"[1769,930,876,925]","trial_type":"two-door-navigation","trial_index":20,"time_elapsed":2627133,"internal_node_id":"0.0-2.0-18.0"},{"group":"hexagon_tri","room_assignment":["grey","green","purple","red","blue","yellow"],"door_color_assignment":["black","white"],"door_generator_assignment":[0,1],"goal":2,"start":5,"action_noise":0.15,"location_history":"[5,4,0,1,5,4,2]","action_history":"[0,0,0,1,1,1]","door_history":"[0,0,0,1,1,1]","location_rts":"[1671,2050,604,788,1014,1061]","trial_type":"two-door-navigation","trial_index":21,"time_elapsed":2643944,"internal_node_id":"0.0-2.0-19.0"},{"group":"hexagon_tri","room_assignment":["grey","green","purple","red","blue","yellow"],"door_color_assignment":["black","white"],"door_generator_assignment":[0,1],"goal":4,"start":2,"action_noise":0.15,"location_history":"[2,3,4]","action_history":"[1,0]","door_history":"[1,0]","location_rts":"[4636,1018]","trial_type":"two-door-navigation","trial_index":22,"time_elapsed":2655149,"internal_node_id":"0.0-2.0-20.0"},{"group":"hexagon_tri","room_assignment":["grey","green","purple","red","blue","yellow"],"door_color_assignment":["black","white"],"door_generator_assignment":[0,1],"goal":1,"start":4,"action_noise":0.15,"location_history":"[4,2,1]","action_history":"[1,0]","door_history":"[1,0]","location_rts":"[2613,2413]","trial_type":"two-door-navigation","trial_index":23,"time_elapsed":2665718,"internal_node_id":"0.0-2.0-21.0"},{"group":"hexagon_tri","room_assignment":["grey","green","purple","red","blue","yellow"],"door_color_assignment":["black","white"],"door_generator_assignment":[0,1],"goal":3,"start":1,"action_noise":0.15,"location_history":"[1,5,4,0,5,4,2,1,3]","action_history":"[1,0,0,0,0,1,0,0]","door_history":"[1,0,0,0,0,1,0,0]","location_rts":"[1999,1267,869,472,690,836,3373,792]","trial_type":"two-door-navigation","trial_index":24,"time_elapsed":2687698,"internal_node_id":"0.0-2.0-22.0"},{"group":"hexagon_tri","room_assignment":["grey","green","purple","red","blue","yellow"],"door_color_assignment":["black","white"],"door_generator_assignment":[0,1],"goal":2,"start":3,"action_noise":0.15,"location_history":"[3,4,0,5,0,5,4,0,5,0,1,3,4,0,1,5,0,1,3,2]","action_history":"[1,0,0,1,0,0,0,0,0,1,0,1,0,0,1,0,1,0,0]","door_history":"[1,0,0,1,0,0,0,0,0,1,0,1,0,0,1,0,1,0,0]","location_rts":"[1557,1161,1034,1097,674,583,973,572,413,568,814,1202,989,491,239,836,1026,823,1067]","trial_type":"two-door-navigation","trial_index":25,"time_elapsed":2726715,"internal_node_id":"0.0-2.0-23.0"},{"group":"hexagon_tri","room_assignment":["grey","green","purple","red","blue","yellow"],"door_color_assignment":["black","white"],"door_generator_assignment":[0,1],"goal":0,"start":2,"action_noise":0.15,"location_history":"[2,1,5,4,0]","action_history":"[0,1,0,0]","door_history":"[0,1,0,0]","location_rts":"[3125,847,668,619]","trial_type":"two-door-navigation","trial_index":26,"time_elapsed":2739558,"internal_node_id":"0.0-2.0-24.0"},{"group":"hexagon_tri","room_assignment":["grey","green","purple","red","blue","yellow"],"door_color_assignment":["black","white"],"door_generator_assignment":[0,1],"goal":5,"start":0,"action_noise":0.15,"location_history":"[0,1,5]","action_history":"[0,1]","door_history":"[0,1]","location_rts":"[1720,764]","trial_type":"two-door-navigation","trial_index":27,"time_elapsed":2747588,"internal_node_id":"0.0-2.0-25.0"},{"group":"hexagon_tri","room_assignment":["grey","green","purple","red","blue","yellow"],"door_color_assignment":["black","white"],"door_generator_assignment":[0,1],"goal":2,"start":5,"action_noise":0.15,"location_history":"[5,4,2]","action_history":"[0,1]","door_history":"[0,1]","location_rts":"[1501,640]","trial_type":"two-door-navigation","trial_index":28,"time_elapsed":2755275,"internal_node_id":"0.0-2.0-26.0"},{"group":"hexagon_tri","room_assignment":["grey","green","purple","red","blue","yellow"],"door_color_assignment":["black","white"],"door_generator_assignment":[0,1],"goal":3,"start":2,"action_noise":0.15,"location_history":"[2,1,3]","action_history":"[0,0]","door_history":"[0,0]","location_rts":"[1617,2431]","trial_type":"two-door-navigation","trial_index":29,"time_elapsed":2764867,"internal_node_id":"0.0-2.0-27.0"},{"group":"hexagon_tri","room_assignment":["grey","green","purple","red","blue","yellow"],"door_color_assignment":["black","white"],"door_generator_assignment":[0,1],"goal":0,"start":3,"action_noise":0.15,"location_history":"[3,2,1,3,4,0]","action_history":"[0,0,0,1,0]","door_history":"[0,0,0,1,0]","location_rts":"[1671,789,473,571,602]","trial_type":"two-door-navigation","trial_index":30,"time_elapsed":2777598,"internal_node_id":"0.0-2.0-28.0"},{"group":"hexagon_tri","room_assignment":["grey","green","purple","red","blue","yellow"],"door_color_assignment":["black","white"],"door_generator_assignment":[0,1],"goal":1,"start":0,"action_noise":0.15,"location_history":"[0,5,4,2,1]","action_history":"[0,0,1,0]","door_history":"[0,0,1,0]","location_rts":"[1729,565,923,736]","trial_type":"two-door-navigation","trial_index":31,"time_elapsed":2789139,"internal_node_id":"0.0-2.0-29.0"},{"group":"hexagon_tri","room_assignment":["grey","green","purple","red","blue","yellow"],"door_color_assignment":["black","white"],"door_generator_assignment":[0,1],"goal":4,"start":1,"action_noise":0.15,"location_history":"[1,5,4]","action_history":"[0,0]","door_history":"[0,0]","location_rts":"[1489,602]","trial_type":"two-door-navigation","trial_index":32,"time_elapsed":2796775,"internal_node_id":"0.0-2.0-30.0"},{"group":"hexagon_tri","room_assignment":["grey","green","purple","red","blue","yellow"],"door_color_assignment":["black","white"],"door_generator_assignment":[0,1],"goal":5,"start":4,"action_noise":0.15,"location_history":"[4,2,3,4,2,1,5]","action_history":"[1,1,1,1,0,1]","door_history":"[1,1,1,1,0,1]","location_rts":"[3325,1504,733,1750,1042,772]","trial_type":"two-door-navigation","trial_index":33,"time_elapsed":2815527,"internal_node_id":"0.0-2.0-31.0"},{"group":"hexagon_tri","room_assignment":["grey","green","purple","red","blue","yellow"],"door_color_assignment":["black","white"],"door_generator_assignment":[0,1],"goal":0,"start":5,"action_noise":0.15,"location_history":"[5,4,0]","action_history":"[1,0]","door_history":"[1,0]","location_rts":"[3367,827]","trial_type":"two-door-navigation","trial_index":34,"time_elapsed":2825268,"internal_node_id":"0.0-2.0-32.0"},{"group":"hexagon_tri","room_assignment":["grey","green","purple","red","blue","yellow"],"door_color_assignment":["black","white"],"door_generator_assignment":[0,1],"goal":3,"start":0,"action_noise":0.15,"location_history":"[0,5,4,0,1,3]","action_history":"[0,0,0,1,0]","door_history":"[0,0,0,1,0]","location_rts":"[1789,461,1173,4133,1023]","trial_type":"two-door-navigation","trial_index":35,"time_elapsed":2842458,"internal_node_id":"0.0-2.0-33.0"},{"group":"hexagon_tri","room_assignment":["grey","green","purple","red","blue","yellow"],"door_color_assignment":["black","white"],"door_generator_assignment":[0,1],"goal":1,"start":3,"action_noise":0.15,"location_history":"[3,2,1]","action_history":"[0,0]","door_history":"[0,0]","location_rts":"[1092,440]","trial_type":"two-door-navigation","trial_index":36,"time_elapsed":2849535,"internal_node_id":"0.0-2.0-34.0"},{"group":"hexagon_tri","room_assignment":["grey","green","purple","red","blue","yellow"],"door_color_assignment":["black","white"],"door_generator_assignment":[0,1],"goal":2,"start":1,"action_noise":0.15,"location_history":"[1,3,2]","action_history":"[0,0]","door_history":"[0,0]","location_rts":"[1676,440]","trial_type":"two-door-navigation","trial_index":37,"time_elapsed":2857199,"internal_node_id":"0.0-2.0-35.0"},{"group":"hexagon_tri","room_assignment":["grey","green","purple","red","blue","yellow"],"door_color_assignment":["black","white"],"door_generator_assignment":[0,1],"goal":4,"start":2,"action_noise":0.15,"location_history":"[2,1,5,4]","action_history":"[1,1,0]","door_history":"[1,1,0]","location_rts":"[1480,947,1203]","trial_type":"two-door-navigation","trial_index":38,"time_elapsed":2867394,"internal_node_id":"0.0-2.0-36.0"},{"group":"hexagon_tri","room_assignment":["grey","green","purple","red","blue","yellow"],"door_color_assignment":["black","white"],"door_generator_assignment":[0,1],"goal":5,"start":4,"action_noise":0.15,"location_history":"[4,2,1,5]","action_history":"[0,0,1]","door_history":"[0,0,1]","location_rts":"[2337,343,181]","trial_type":"two-door-navigation","trial_index":39,"time_elapsed":2876826,"internal_node_id":"0.0-2.0-37.0"},{"group":"hexagon_tri","room_assignment":["grey","green","purple","red","blue","yellow"],"door_color_assignment":["black","white"],"door_generator_assignment":[0,1],"goal":1,"start":5,"action_noise":0.15,"location_history":"[5,0,1]","action_history":"[1,1]","door_history":"[1,1]","location_rts":"[2249,1131]","trial_type":"two-door-navigation","trial_index":40,"time_elapsed":2885752,"internal_node_id":"0.0-2.0-38.0"},{"group":"hexagon_tri","room_assignment":["grey","green","purple","red","blue","yellow"],"door_color_assignment":["black","white"],"door_generator_assignment":[0,1],"goal":4,"start":1,"action_noise":0.15,"location_history":"[1,5,4]","action_history":"[1,0]","door_history":"[1,0]","location_rts":"[2751,1498]","trial_type":"two-door-navigation","trial_index":41,"time_elapsed":2895546,"internal_node_id":"0.0-2.0-39.0"},{"group":"hexagon_tri","room_assignment":["grey","green","purple","red","blue","yellow"],"door_color_assignment":["black","white"],"door_generator_assignment":[0,1],"goal":3,"start":4,"action_noise":0.15,"location_history":"[4,2,1,5,4,2,1,3]","action_history":"[1,0,0,0,1,0,0]","door_history":"[1,0,0,0,1,0,0]","location_rts":"[3200,1318,2698,860,1393,1156,701]","trial_type":"two-door-navigation","trial_index":42,"time_elapsed":2917524,"internal_node_id":"0.0-2.0-40.0"},{"group":"hexagon_tri","room_assignment":["grey","green","purple","red","blue","yellow"],"door_color_assignment":["black","white"],"door_generator_assignment":[0,1],"goal":2,"start":3,"action_noise":0.15,"location_history":"[3,2]","action_history":"[0]","door_history":"[0]","location_rts":"[1686]","trial_type":"two-door-navigation","trial_index":43,"time_elapsed":2923736,"internal_node_id":"0.0-2.0-41.0"},{"group":"hexagon_tri","room_assignment":["grey","green","purple","red","blue","yellow"],"door_color_assignment":["black","white"],"door_generator_assignment":[0,1],"goal":0,"start":2,"action_noise":0.15,"location_history":"[2,3,4,0]","action_history":"[1,1,0]","door_history":"[1,1,0]","location_rts":"[1470,1835,896]","trial_type":"two-door-navigation","trial_index":44,"time_elapsed":2934503,"internal_node_id":"0.0-2.0-42.0"},{"group":"hexagon_tri","room_assignment":["grey","green","purple","red","blue","yellow"],"door_color_assignment":["black","white"],"door_generator_assignment":[0,1],"goal":5,"start":0,"action_noise":0.15,"location_history":"[0,1,5]","action_history":"[1,1]","door_history":"[1,1]","location_rts":"[3354,1340]","trial_type":"two-door-navigation","trial_index":45,"time_elapsed":2944741,"internal_node_id":"0.0-2.0-43.0"},{"group":"hexagon_tri","room_assignment":["grey","green","purple","red","blue","yellow"],"door_color_assignment":["black","white"],"door_generator_assignment":[0,1],"goal":0,"start":5,"action_noise":0.15,"location_history":"[5,4,0]","action_history":"[1,0]","door_history":"[1,0]","location_rts":"[2982,1790]","trial_type":"two-door-navigation","trial_index":46,"time_elapsed":2955059,"internal_node_id":"0.0-2.0-44.0"},{"group":"hexagon_tri","room_assignment":["grey","green","purple","red","blue","yellow"],"door_color_assignment":["black","white"],"door_generator_assignment":[0,1],"goal":2,"start":0,"action_noise":0.15,"location_history":"[0,1,3,2]","action_history":"[1,0,0]","door_history":"[1,0,0]","location_rts":"[2134,1429,243]","trial_type":"two-door-navigation","trial_index":47,"time_elapsed":2965433,"internal_node_id":"0.0-2.0-45.0"},{"group":"hexagon_tri","room_assignment":["grey","green","purple","red","blue","yellow"],"door_color_assignment":["black","white"],"door_generator_assignment":[0,1],"goal":4,"start":2,"action_noise":0.15,"location_history":"[2,3,4]","action_history":"[1,1]","door_history":"[1,1]","location_rts":"[1898,1179]","trial_type":"two-door-navigation","trial_index":48,"time_elapsed":2974055,"internal_node_id":"0.0-2.0-46.0"},{"group":"hexagon_tri","room_assignment":["grey","green","purple","red","blue","yellow"],"door_color_assignment":["black","white"],"door_generator_assignment":[0,1],"goal":1,"start":4,"action_noise":0.15,"location_history":"[4,2,1]","action_history":"[1,0]","door_history":"[1,0]","location_rts":"[2331,4079]","trial_type":"two-door-navigation","trial_index":49,"time_elapsed":2986012,"internal_node_id":"0.0-2.0-47.0"},{"group":"hexagon_tri","room_assignment":["grey","green","purple","red","blue","yellow"],"door_color_assignment":["black","white"],"door_generator_assignment":[0,1],"goal":5,"start":1,"action_noise":0.15,"location_history":"[1,5]","action_history":"[1]","door_history":"[1]","location_rts":"[1506]","trial_type":"two-door-navigation","trial_index":50,"time_elapsed":2992045,"internal_node_id":"0.0-2.0-48.0"},{"group":"hexagon_tri","room_assignment":["grey","green","purple","red","blue","yellow"],"door_color_assignment":["black","white"],"door_generator_assignment":[0,1],"goal":3,"start":5,"action_noise":0.15,"location_history":"[5,0,1,3]","action_history":"[1,1,0]","door_history":"[1,1,0]","location_rts":"[4819,528,1022]","trial_type":"two-door-navigation","trial_index":51,"time_elapsed":3004979,"internal_node_id":"0.0-2.0-49.0"},{"view_history":"[{\"page_index\":0,\"viewing_time\":2515}]","rt":2515,"trial_type":"instructions","trial_index":52,"time_elapsed":3008494,"internal_node_id":"0.0-3.0"},{"view_history":"[{\"page_index\":0,\"viewing_time\":5065},{\"page_index\":1,\"viewing_time\":9172}]","rt":14237,"trial_type":"instructions","trial_index":53,"time_elapsed":3023731,"internal_node_id":"0.0-4.0"},{"group":"hexagon_bi","fractal_assignment":["../images/gry_blk.png","../images/blu_wht.png","../images/cyn_red.png","../images/pnk_blu.png","../images/ylw_slt.png","../images/org_blu.png"],"mutagen_generator_assignment":[0,1],"goal":3,"start":5,"action_noise":0.15,"location_history":"[5,0,1,2,1,0,1,2,3]","action_history":"[0,1,0,0,1,1,0,1]","mutagen_history":"[0,1,0,0,1,1,0,1]","location_rts":"[4370,1010,1656,1351,1072,942,356,494]","trial_type":"fractal-mutation","trial_index":54,"time_elapsed":3046765,"internal_node_id":"0.0-5.0-0.0"},{"group":"hexagon_bi","fractal_assignment":["../images/gry_blk.png","../images/blu_wht.png","../images/cyn_red.png","../images/pnk_blu.png","../images/ylw_slt.png","../images/org_blu.png"],"mutagen_generator_assignment":[0,1],"goal":1,"start":3,"action_noise":0.15,"location_history":"[3,2,1]","action_history":"[1,0]","mutagen_history":"[1,0]","location_rts":"[3693,496]","trial_type":"fractal-mutation","trial_index":55,"time_elapsed":3056520,"internal_node_id":"0.0-5.0-1.0"},{"group":"hexagon_bi","fractal_assignment":["../images/gry_blk.png","../images/blu_wht.png","../images/cyn_red.png","../images/pnk_blu.png","../images/ylw_slt.png","../images/org_blu.png"],"mutagen_generator_assignment":[0,1],"goal":0,"start":1,"action_noise":0.15,"location_history":"[1,0]","action_history":"[1]","mutagen_history":"[1]","location_rts":"[1678]","trial_type":"fractal-mutation","trial_index":56,"time_elapsed":3062747,"internal_node_id":"0.0-5.0-2.0"},{"group":"hexagon_bi","fractal_assignment":["../images/gry_blk.png","../images/blu_wht.png","../images/cyn_red.png","../images/pnk_blu.png","../images/ylw_slt.png","../images/org_blu.png"],"mutagen_generator_assignment":[0,1],"goal":3,"start":0,"action_noise":0.15,"location_history":"[0,1,0,1,0,1,2,3]","action_history":"[1,1,1,0,1,0,1]","mutagen_history":"[1,1,1,0,1,0,1]","location_rts":"[2144,2240,529,205,233,902,500]","trial_type":"fractal-mutation","trial_index":57,"time_elapsed":3080245,"internal_node_id":"0.0-5.0-3.0"},{"group":"hexagon_bi","fractal_assignment":["../images/gry_blk.png","../images/blu_wht.png","../images/cyn_red.png","../images/pnk_blu.png","../images/ylw_slt.png","../images/org_blu.png"],"mutagen_generator_assignment":[0,1],"goal":4,"start":3,"action_noise":0.15,"location_history":"[3,4]","action_history":"[0]","mutagen_history":"[0]","location_rts":"[2094]","trial_type":"fractal-mutation","trial_index":58,"time_elapsed":3086866,"internal_node_id":"0.0-5.0-4.0"},{"group":"hexagon_bi","fractal_assignment":["../images/gry_blk.png","../images/blu_wht.png","../images/cyn_red.png","../images/pnk_blu.png","../images/ylw_slt.png","../images/org_blu.png"],"mutagen_generator_assignment":[0,1],"goal":2,"start":4,"action_noise":0.15,"location_history":"[4,5,0,1,2]","action_history":"[1,0,1,0]","mutagen_history":"[1,0,1,0]","location_rts":"[1306,1232,655,493]","trial_type":"fractal-mutation","trial_index":59,"time_elapsed":3098165,"internal_node_id":"0.0-5.0-5.0"},{"group":"hexagon_bi","fractal_assignment":["../images/gry_blk.png","../images/blu_wht.png","../images/cyn_red.png","../images/pnk_blu.png","../images/ylw_slt.png","../images/org_blu.png"],"mutagen_generator_assignment":[0,1],"goal":1,"start":2,"action_noise":0.15,"location_history":"[2,1]","action_history":"[0]","mutagen_history":"[0]","location_rts":"[1137]","trial_type":"fractal-mutation","trial_index":60,"time_elapsed":3103830,"internal_node_id":"0.0-5.0-6.0"},{"group":"hexagon_bi","fractal_assignment":["../images/gry_blk.png","../images/blu_wht.png","../images/cyn_red.png","../images/pnk_blu.png","../images/ylw_slt.png","../images/org_blu.png"],"mutagen_generator_assignment":[0,1],"goal":5,"start":1,"action_noise":0.15,"location_history":"[1,0,5]","action_history":"[1,0]","mutagen_history":"[1,0]","location_rts":"[1124,1658]","trial_type":"fractal-mutation","trial_index":61,"time_elapsed":3112179,"internal_node_id":"0.0-5.0-7.0"},{"group":"hexagon_bi","fractal_assignment":["../images/gry_blk.png","../images/blu_wht.png","../images/cyn_red.png","../images/pnk_blu.png","../images/ylw_slt.png","../images/org_blu.png"],"mutagen_generator_assignment":[0,1],"goal":4,"start":5,"action_noise":0.15,"location_history":"[5,4]","action_history":"[1]","mutagen_history":"[1]","location_rts":"[6206]","trial_type":"fractal-mutation","trial_index":62,"time_elapsed":3122931,"internal_node_id":"0.0-5.0-8.0"},{"group":"hexagon_bi","fractal_assignment":["../images/gry_blk.png","../images/blu_wht.png","../images/cyn_red.png","../images/pnk_blu.png","../images/ylw_slt.png","../images/org_blu.png"],"mutagen_generator_assignment":[0,1],"goal":2,"start":4,"action_noise":0.15,"location_history":"[4,5,4,5,4,3,2]","action_history":"[1,1,1,0,0,1]","mutagen_history":"[1,1,1,0,0,1]","location_rts":"[1456,1187,759,1120,1245,1490]","trial_type":"fractal-mutation","trial_index":63,"time_elapsed":3139904,"internal_node_id":"0.0-5.0-9.0"},{"group":"hexagon_bi","fractal_assignment":["../images/gry_blk.png","../images/blu_wht.png","../images/cyn_red.png","../images/pnk_blu.png","../images/ylw_slt.png","../images/org_blu.png"],"mutagen_generator_assignment":[0,1],"goal":0,"start":2,"action_noise":0.15,"location_history":"[2,3,4,5,0]","action_history":"[1,0,1,0]","mutagen_history":"[1,0,1,0]","location_rts":"[1551,1272,831,792]","trial_type":"fractal-mutation","trial_index":64,"time_elapsed":3151972,"internal_node_id":"0.0-5.0-10.0"},{"group":"hexagon_bi","fractal_assignment":["../images/gry_blk.png","../images/blu_wht.png","../images/cyn_red.png","../images/pnk_blu.png","../images/ylw_slt.png","../images/org_blu.png"],"mutagen_generator_assignment":[0,1],"goal":1,"start":0,"action_noise":0.15,"location_history":"[0,1]","action_history":"[1]","mutagen_history":"[1]","location_rts":"[1399]","trial_type":"fractal-mutation","trial_index":65,"time_elapsed":3157909,"internal_node_id":"0.0-5.0-11.0"},{"group":"hexagon_bi","fractal_assignment":["../images/gry_blk.png","../images/blu_wht.png","../images/cyn_red.png","../images/pnk_blu.png","../images/ylw_slt.png","../images/org_blu.png"],"mutagen_generator_assignment":[0,1],"goal":3,"start":1,"action_noise":0.15,"location_history":"[1,0,1,2,1,0,5,4,5,0,5,4,3]","action_history":"[1,1,0,1,0,0,1,1,0,1,1,1]","mutagen_history":"[1,1,0,1,0,0,1,1,0,1,1,1]","location_rts":"[2595,727,458,251,2276,1029,496,795,599,385,764,538]","trial_type":"fractal-mutation","trial_index":66,"time_elapsed":3184709,"internal_node_id":"0.0-5.0-12.0"},{"group":"hexagon_bi","fractal_assignment":["../images/gry_blk.png","../images/blu_wht.png","../images/cyn_red.png","../images/pnk_blu.png","../images/ylw_slt.png","../images/org_blu.png"],"mutagen_generator_assignment":[0,1],"goal":5,"start":3,"action_noise":0.15,"location_history":"[3,4,5]","action_history":"[0,1]","mutagen_history":"[0,1]","location_rts":"[2362,685]","trial_type":"fractal-mutation","trial_index":67,"time_elapsed":3193323,"internal_node_id":"0.0-5.0-13.0"},{"group":"hexagon_bi","fractal_assignment":["../images/gry_blk.png","../images/blu_wht.png","../images/cyn_red.png","../images/pnk_blu.png","../images/ylw_slt.png","../images/org_blu.png"],"mutagen_generator_assignment":[0,1],"goal":4,"start":5,"action_noise":0.15,"location_history":"[5,4]","action_history":"[1]","mutagen_history":"[1]","location_rts":"[926]","trial_type":"fractal-mutation","trial_index":68,"time_elapsed":3198798,"internal_node_id":"0.0-5.0-14.0"},{"group":"hexagon_bi","fractal_assignment":["../images/gry_blk.png","../images/blu_wht.png","../images/cyn_red.png","../images/pnk_blu.png","../images/ylw_slt.png","../images/org_blu.png"],"mutagen_generator_assignment":[0,1],"goal":0,"start":4,"action_noise":0.15,"location_history":"[4,5,0]","action_history":"[1,0]","mutagen_history":"[1,0]","location_rts":"[1216,1227]","trial_type":"fractal-mutation","trial_index":69,"time_elapsed":3206808,"internal_node_id":"0.0-5.0-15.0"},{"group":"hexagon_bi","fractal_assignment":["../images/gry_blk.png","../images/blu_wht.png","../images/cyn_red.png","../images/pnk_blu.png","../images/ylw_slt.png","../images/org_blu.png"],"mutagen_generator_assignment":[0,1],"goal":3,"start":0,"action_noise":0.15,"location_history":"[0,1,2,3]","action_history":"[1,0,1]","mutagen_history":"[1,0,1]","location_rts":"[1539,2739,671]","trial_type":"fractal-mutation","trial_index":70,"time_elapsed":3218361,"internal_node_id":"0.0-5.0-16.0"},{"group":"hexagon_bi","fractal_assignment":["../images/gry_blk.png","../images/blu_wht.png","../images/cyn_red.png","../images/pnk_blu.png","../images/ylw_slt.png","../images/org_blu.png"],"mutagen_generator_assignment":[0,1],"goal":1,"start":3,"action_noise":0.15,"location_history":"[3,2,1]","action_history":"[1,0]","mutagen_history":"[1,0]","location_rts":"[1435,707]","trial_type":"fractal-mutation","trial_index":71,"time_elapsed":3226064,"internal_node_id":"0.0-5.0-17.0"},{"group":"hexagon_bi","fractal_assignment":["../images/gry_blk.png","../images/blu_wht.png","../images/cyn_red.png","../images/pnk_blu.png","../images/ylw_slt.png","../images/org_blu.png"],"mutagen_generator_assignment":[0,1],"goal":5,"start":1,"action_noise":0.15,"location_history":"[1,0,5]","action_history":"[1,0]","mutagen_history":"[1,0]","location_rts":"[2865,897]","trial_type":"fractal-mutation","trial_index":72,"time_elapsed":3235390,"internal_node_id":"0.0-5.0-18.0"},{"group":"hexagon_bi","fractal_assignment":["../images/gry_blk.png","../images/blu_wht.png","../images/cyn_red.png","../images/pnk_blu.png","../images/ylw_slt.png","../images/org_blu.png"],"mutagen_generator_assignment":[0,1],"goal":2,"start":5,"action_noise":0.15,"location_history":"[5,4,3,2]","action_history":"[1,0,1]","mutagen_history":"[1,0,1]","location_rts":"[1578,1774,1963]","trial_type":"fractal-mutation","trial_index":73,"time_elapsed":3247314,"internal_node_id":"0.0-5.0-19.0"},{"group":"hexagon_bi","fractal_assignment":["../images/gry_blk.png","../images/blu_wht.png","../images/cyn_red.png","../images/pnk_blu.png","../images/ylw_slt.png","../images/org_blu.png"],"mutagen_generator_assignment":[0,1],"goal":4,"start":2,"action_noise":0.15,"location_history":"[2,1,0,1,0,5,4]","action_history":"[0,1,1,1,0,1]","mutagen_history":"[0,1,1,1,0,1]","location_rts":"[3828,293,1617,691,350,931]","trial_type":"fractal-mutation","trial_index":74,"time_elapsed":3264723,"internal_node_id":"0.0-5.0-20.0"},{"group":"hexagon_bi","fractal_assignment":["../images/gry_blk.png","../images/blu_wht.png","../images/cyn_red.png","../images/pnk_blu.png","../images/ylw_slt.png","../images/org_blu.png"],"mutagen_generator_assignment":[0,1],"goal":1,"start":4,"action_noise":0.15,"location_history":"[4,5,0,5,4,3,4,3,2,1]","action_history":"[1,0,1,1,0,1,0,1,0]","mutagen_history":"[1,0,1,1,0,1,0,1,0]","location_rts":"[1692,1192,669,898,1154,1617,1441,841,692]","trial_type":"fractal-mutation","trial_index":75,"time_elapsed":3287706,"internal_node_id":"0.0-5.0-21.0"},{"group":"hexagon_bi","fractal_assignment":["../images/gry_blk.png","../images/blu_wht.png","../images/cyn_red.png","../images/pnk_blu.png","../images/ylw_slt.png","../images/org_blu.png"],"mutagen_generator_assignment":[0,1],"goal":3,"start":1,"action_noise":0.15,"location_history":"[1,2,1,2,1,2,3]","action_history":"[0,1,0,1,0,1]","mutagen_history":"[0,1,0,1,0,1]","location_rts":"[2866,429,1641,296,831,1017]","trial_type":"fractal-mutation","trial_index":76,"time_elapsed":3304470,"internal_node_id":"0.0-5.0-22.0"},{"group":"hexagon_bi","fractal_assignment":["../images/gry_blk.png","../images/blu_wht.png","../images/cyn_red.png","../images/pnk_blu.png","../images/ylw_slt.png","../images/org_blu.png"],"mutagen_generator_assignment":[0,1],"goal":2,"start":3,"action_noise":0.15,"location_history":"[3,2]","action_history":"[1]","mutagen_history":"[1]","location_rts":"[1771]","trial_type":"fractal-mutation","trial_index":77,"time_elapsed":3310784,"internal_node_id":"0.0-5.0-23.0"},{"group":"hexagon_bi","fractal_assignment":["../images/gry_blk.png","../images/blu_wht.png","../images/cyn_red.png","../images/pnk_blu.png","../images/ylw_slt.png","../images/org_blu.png"],"mutagen_generator_assignment":[0,1],"goal":0,"start":2,"action_noise":0.15,"location_history":"[2,3,2,3,4,3,4,5,0]","action_history":"[1,1,1,0,0,0,1,0]","mutagen_history":"[1,1,1,0,0,0,1,0]","location_rts":"[2306,741,763,312,1179,713,345,1028]","trial_type":"fractal-mutation","trial_index":78,"time_elapsed":3329923,"internal_node_id":"0.0-5.0-24.0"},{"group":"hexagon_bi","fractal_assignment":["../images/gry_blk.png","../images/blu_wht.png","../images/cyn_red.png","../images/pnk_blu.png","../images/ylw_slt.png","../images/org_blu.png"],"mutagen_generator_assignment":[0,1],"goal":5,"start":0,"action_noise":0.15,"location_history":"[0,1,0,5]","action_history":"[1,1,0]","mutagen_history":"[1,1,0]","location_rts":"[1871,936,703]","trial_type":"fractal-mutation","trial_index":79,"time_elapsed":3340036,"internal_node_id":"0.0-5.0-25.0"},{"group":"hexagon_bi","fractal_assignment":["../images/gry_blk.png","../images/blu_wht.png","../images/cyn_red.png","../images/pnk_blu.png","../images/ylw_slt.png","../images/org_blu.png"],"mutagen_generator_assignment":[0,1],"goal":2,"start":5,"action_noise":0.15,"location_history":"[5,4,3,2]","action_history":"[1,0,1]","mutagen_history":"[1,0,1]","location_rts":"[1875,1224,1482]","trial_type":"fractal-mutation","trial_index":80,"time_elapsed":3351213,"internal_node_id":"0.0-5.0-26.0"},{"group":"hexagon_bi","fractal_assignment":["../images/gry_blk.png","../images/blu_wht.png","../images/cyn_red.png","../images/pnk_blu.png","../images/ylw_slt.png","../images/org_blu.png"],"mutagen_generator_assignment":[0,1],"goal":3,"start":2,"action_noise":0.15,"location_history":"[2,3]","action_history":"[1]","mutagen_history":"[1]","location_rts":"[2776]","trial_type":"fractal-mutation","trial_index":81,"time_elapsed":3358529,"internal_node_id":"0.0-5.0-27.0"},{"group":"hexagon_bi","fractal_assignment":["../images/gry_blk.png","../images/blu_wht.png","../images/cyn_red.png","../images/pnk_blu.png","../images/ylw_slt.png","../images/org_blu.png"],"mutagen_generator_assignment":[0,1],"goal":0,"start":3,"action_noise":0.15,"location_history":"[3,4,3,4,3,4,5,0]","action_history":"[0,0,0,0,0,1,0]","mutagen_history":"[0,0,0,0,0,1,0]","location_rts":"[2334,1943,728,427,366,157,777]","trial_type":"fractal-mutation","trial_index":82,"time_elapsed":3375945,"internal_node_id":"0.0-5.0-28.0"},{"group":"hexagon_bi","fractal_assignment":["../images/gry_blk.png","../images/blu_wht.png","../images/cyn_red.png","../images/pnk_blu.png","../images/ylw_slt.png","../images/org_blu.png"],"mutagen_generator_assignment":[0,1],"goal":1,"start":0,"action_noise":0.15,"location_history":"[0,1]","action_history":"[1]","mutagen_history":"[1]","location_rts":"[1321]","trial_type":"fractal-mutation","trial_index":83,"time_elapsed":3381812,"internal_node_id":"0.0-5.0-29.0"},{"group":"hexagon_bi","fractal_assignment":["../images/gry_blk.png","../images/blu_wht.png","../images/cyn_red.png","../images/pnk_blu.png","../images/ylw_slt.png","../images/org_blu.png"],"mutagen_generator_assignment":[0,1],"goal":4,"start":1,"action_noise":0.15,"location_history":"[1,2,1,2,3,4]","action_history":"[0,0,1,1,0]","mutagen_history":"[0,0,1,1,0]","location_rts":"[3287,738,183,1367,340]","trial_type":"fractal-mutation","trial_index":84,"time_elapsed":3396380,"internal_node_id":"0.0-5.0-30.0"},{"group":"hexagon_bi","fractal_assignment":["../images/gry_blk.png","../images/blu_wht.png","../images/cyn_red.png","../images/pnk_blu.png","../images/ylw_slt.png","../images/org_blu.png"],"mutagen_generator_assignment":[0,1],"goal":5,"start":4,"action_noise":0.15,"location_history":"[4,3,4,3,4,5]","action_history":"[0,0,0,0,1]","mutagen_history":"[0,0,0,0,1]","location_rts":"[7410,2590,804,1881,341]","trial_type":"fractal-mutation","trial_index":85,"time_elapsed":3418038,"internal_node_id":"0.0-5.0-31.0"},{"group":"hexagon_bi","fractal_assignment":["../images/gry_blk.png","../images/blu_wht.png","../images/cyn_red.png","../images/pnk_blu.png","../images/ylw_slt.png","../images/org_blu.png"],"mutagen_generator_assignment":[0,1],"goal":0,"start":5,"action_noise":0.15,"location_history":"[5,0]","action_history":"[0]","mutagen_history":"[0]","location_rts":"[6813]","trial_type":"fractal-mutation","trial_index":86,"time_elapsed":3429376,"internal_node_id":"0.0-5.0-32.0"},{"group":"hexagon_bi","fractal_assignment":["../images/gry_blk.png","../images/blu_wht.png","../images/cyn_red.png","../images/pnk_blu.png","../images/ylw_slt.png","../images/org_blu.png"],"mutagen_generator_assignment":[0,1],"goal":3,"start":0,"action_noise":0.15,"location_history":"[0,5,0,5,0,1,2,3]","action_history":"[0,0,0,1,1,0,1]","mutagen_history":"[0,0,0,1,1,0,1]","location_rts":"[4428,1635,354,268,709,1340,375]","trial_type":"fractal-mutation","trial_index":87,"time_elapsed":3449178,"internal_node_id":"0.0-5.0-33.0"},{"group":"hexagon_bi","fractal_assignment":["../images/gry_blk.png","../images/blu_wht.png","../images/cyn_red.png","../images/pnk_blu.png","../images/ylw_slt.png","../images/org_blu.png"],"mutagen_generator_assignment":[0,1],"goal":1,"start":3,"action_noise":0.15,"location_history":"[3,2,1]","action_history":"[1,0]","mutagen_history":"[1,0]","location_rts":"[2050,485]","trial_type":"fractal-mutation","trial_index":88,"time_elapsed":3457283,"internal_node_id":"0.0-5.0-34.0"},{"group":"hexagon_bi","fractal_assignment":["../images/gry_blk.png","../images/blu_wht.png","../images/cyn_red.png","../images/pnk_blu.png","../images/ylw_slt.png","../images/org_blu.png"],"mutagen_generator_assignment":[0,1],"goal":2,"start":1,"action_noise":0.15,"location_history":"[1,2]","action_history":"[0]","mutagen_history":"[0]","location_rts":"[1857]","trial_type":"fractal-mutation","trial_index":89,"time_elapsed":3463665,"internal_node_id":"0.0-5.0-35.0"},{"group":"hexagon_bi","fractal_assignment":["../images/gry_blk.png","../images/blu_wht.png","../images/cyn_red.png","../images/pnk_blu.png","../images/ylw_slt.png","../images/org_blu.png"],"mutagen_generator_assignment":[0,1],"goal":4,"start":2,"action_noise":0.15,"location_history":"[2,3,4]","action_history":"[1,0]","mutagen_history":"[1,0]","location_rts":"[5554,503]","trial_type":"fractal-mutation","trial_index":90,"time_elapsed":3475289,"internal_node_id":"0.0-5.0-36.0"},{"group":"hexagon_bi","fractal_assignment":["../images/gry_blk.png","../images/blu_wht.png","../images/cyn_red.png","../images/pnk_blu.png","../images/ylw_slt.png","../images/org_blu.png"],"mutagen_generator_assignment":[0,1],"goal":5,"start":4,"action_noise":0.15,"location_history":"[4,3,2,1,0,5]","action_history":"[0,0,1,1,0]","mutagen_history":"[0,0,1,1,0]","location_rts":"[3547,805,226,737,816]","trial_type":"fractal-mutation","trial_index":91,"time_elapsed":3490059,"internal_node_id":"0.0-5.0-37.0"},{"group":"hexagon_bi","fractal_assignment":["../images/gry_blk.png","../images/blu_wht.png","../images/cyn_red.png","../images/pnk_blu.png","../images/ylw_slt.png","../images/org_blu.png"],"mutagen_generator_assignment":[0,1],"goal":1,"start":5,"action_noise":0.15,"location_history":"[5,4,5,4,5,0,1]","action_history":"[1,1,1,0,0,1]","mutagen_history":"[1,1,1,0,0,1]","location_rts":"[2461,1555,757,498,2084,1083]","trial_type":"fractal-mutation","trial_index":92,"time_elapsed":3508187,"internal_node_id":"0.0-5.0-38.0"},{"group":"hexagon_bi","fractal_assignment":["../images/gry_blk.png","../images/blu_wht.png","../images/cyn_red.png","../images/pnk_blu.png","../images/ylw_slt.png","../images/org_blu.png"],"mutagen_generator_assignment":[0,1],"goal":4,"start":1,"action_noise":0.15,"location_history":"[1,2,1,2,3,4]","action_history":"[0,1,0,1,0]","mutagen_history":"[0,1,0,1,0]","location_rts":"[4840,470,2048,408,670]","trial_type":"fractal-mutation","trial_index":93,"time_elapsed":3525266,"internal_node_id":"0.0-5.0-39.0"},{"group":"hexagon_bi","fractal_assignment":["../images/gry_blk.png","../images/blu_wht.png","../images/cyn_red.png","../images/pnk_blu.png","../images/ylw_slt.png","../images/org_blu.png"],"mutagen_generator_assignment":[0,1],"goal":3,"start":4,"action_noise":0.15,"location_history":"[4,5,0,1,2,3]","action_history":"[0,0,1,0,1]","mutagen_history":"[0,0,1,0,1]","location_rts":"[2475,1195,1035,1169,606]","trial_type":"fractal-mutation","trial_index":94,"time_elapsed":3540402,"internal_node_id":"0.0-5.0-40.0"},{"group":"hexagon_bi","fractal_assignment":["../images/gry_blk.png","../images/blu_wht.png","../images/cyn_red.png","../images/pnk_blu.png","../images/ylw_slt.png","../images/org_blu.png"],"mutagen_generator_assignment":[0,1],"goal":2,"start":3,"action_noise":0.15,"location_history":"[3,2]","action_history":"[1]","mutagen_history":"[1]","location_rts":"[2278]","trial_type":"fractal-mutation","trial_index":95,"time_elapsed":3547225,"internal_node_id":"0.0-5.0-41.0"},{"group":"hexagon_bi","fractal_assignment":["../images/gry_blk.png","../images/blu_wht.png","../images/cyn_red.png","../images/pnk_blu.png","../images/ylw_slt.png","../images/org_blu.png"],"mutagen_generator_assignment":[0,1],"goal":0,"start":2,"action_noise":0.15,"location_history":"[2,1,2,3,4,5,0]","action_history":"[1,0,1,0,1,0]","mutagen_history":"[1,0,1,0,1,0]","location_rts":"[2692,3253,351,852,680,513]","trial_type":"fractal-mutation","trial_index":96,"time_elapsed":3565223,"internal_node_id":"0.0-5.0-42.0"},{"group":"hexagon_bi","fractal_assignment":["../images/gry_blk.png","../images/blu_wht.png","../images/cyn_red.png","../images/pnk_blu.png","../images/ylw_slt.png","../images/org_blu.png"],"mutagen_generator_assignment":[0,1],"goal":5,"start":0,"action_noise":0.15,"location_history":"[0,5]","action_history":"[0]","mutagen_history":"[0]","location_rts":"[1599]","trial_type":"fractal-mutation","trial_index":97,"time_elapsed":3571348,"internal_node_id":"0.0-5.0-43.0"},{"group":"hexagon_bi","fractal_assignment":["../images/gry_blk.png","../images/blu_wht.png","../images/cyn_red.png","../images/pnk_blu.png","../images/ylw_slt.png","../images/org_blu.png"],"mutagen_generator_assignment":[0,1],"goal":0,"start":5,"action_noise":0.15,"location_history":"[5,0]","action_history":"[0]","mutagen_history":"[0]","location_rts":"[1033]","trial_type":"fractal-mutation","trial_index":98,"time_elapsed":3576908,"internal_node_id":"0.0-5.0-44.0"},{"group":"hexagon_bi","fractal_assignment":["../images/gry_blk.png","../images/blu_wht.png","../images/cyn_red.png","../images/pnk_blu.png","../images/ylw_slt.png","../images/org_blu.png"],"mutagen_generator_assignment":[0,1],"goal":2,"start":0,"action_noise":0.15,"location_history":"[0,5,4,3,2]","action_history":"[0,1,0,1]","mutagen_history":"[0,1,0,1]","location_rts":"[3630,289,1326,920]","trial_type":"fractal-mutation","trial_index":99,"time_elapsed":3590703,"internal_node_id":"0.0-5.0-45.0"},{"group":"hexagon_bi","fractal_assignment":["../images/gry_blk.png","../images/blu_wht.png","../images/cyn_red.png","../images/pnk_blu.png","../images/ylw_slt.png","../images/org_blu.png"],"mutagen_generator_assignment":[0,1],"goal":4,"start":2,"action_noise":0.15,"location_history":"[2,3,4]","action_history":"[1,0]","mutagen_history":"[1,0]","location_rts":"[3088,491]","trial_type":"fractal-mutation","trial_index":100,"time_elapsed":3599849,"internal_node_id":"0.0-5.0-46.0"},{"group":"hexagon_bi","fractal_assignment":["../images/gry_blk.png","../images/blu_wht.png","../images/cyn_red.png","../images/pnk_blu.png","../images/ylw_slt.png","../images/org_blu.png"],"mutagen_generator_assignment":[0,1],"goal":1,"start":4,"action_noise":0.15,"location_history":"[4,3,2,1]","action_history":"[0,1,0]","mutagen_history":"[0,1,0]","location_rts":"[2774,446,501]","trial_type":"fractal-mutation","trial_index":101,"time_elapsed":3610159,"internal_node_id":"0.0-5.0-47.0"},{"group":"hexagon_bi","fractal_assignment":["../images/gry_blk.png","../images/blu_wht.png","../images/cyn_red.png","../images/pnk_blu.png","../images/ylw_slt.png","../images/org_blu.png"],"mutagen_generator_assignment":[0,1],"goal":5,"start":1,"action_noise":0.15,"location_history":"[1,2,3,4,3,4,5]","action_history":"[0,1,0,0,0,1]","mutagen_history":"[0,1,0,0,0,1]","location_rts":"[2142,560,1927,2966,658,215]","trial_type":"fractal-mutation","trial_index":102,"time_elapsed":3628296,"internal_node_id":"0.0-5.0-48.0"},{"group":"hexagon_bi","fractal_assignment":["../images/gry_blk.png","../images/blu_wht.png","../images/cyn_red.png","../images/pnk_blu.png","../images/ylw_slt.png","../images/org_blu.png"],"mutagen_generator_assignment":[0,1],"goal":3,"start":5,"action_noise":0.15,"location_history":"[5,0,1,2,3]","action_history":"[0,1,0,1]","mutagen_history":"[0,1,0,1]","location_rts":"[2674,309,1458,278]","trial_type":"fractal-mutation","trial_index":103,"time_elapsed":3640638,"internal_node_id":"0.0-5.0-49.0"},{"view_history":"[{\"page_index\":0,\"viewing_time\":8901}]","rt":8901,"trial_type":"instructions","trial_index":104,"time_elapsed":3650540,"internal_node_id":"0.0-6.0"},{"rt":8256,"responses":"{\"Q0\":\"No comments.\"}","trial_type":"survey-text","trial_index":105,"time_elapsed":3659805,"internal_node_id":"0.0-7.0"}]