[{"view_history":"[{\"page_index\":0,\"viewing_time\":7904},{\"page_index\":1,\"viewing_time\":18911}]","rt":26816,"trial_type":"instructions","trial_index":0,"time_elapsed":26817,"internal_node_id":"0.0-0.0"},{"view_history":"[{\"page_index\":0,\"viewing_time\":6926},{\"page_index\":1,\"viewing_time\":44505}]","rt":51431,"trial_type":"instructions","trial_index":1,"time_elapsed":79249,"internal_node_id":"0.0-1.0"},{"group":"hexagon_tri","room_assignment":["yellow","blue","red","green","grey","purple"],"door_color_assignment":["white","black"],"door_generator_assignment":[0,1],"goal":3,"start":5,"action_noise":0.15,"location_history":"[5,0,5,0,5,0,5,0,5,4,0,1,3]","action_history":"[0,0,1,0,1,1,1,0,0,0,0,0]","door_history":"[0,0,1,0,1,1,1,0,0,0,0,0]","location_rts":"[2356,1063,1061,1022,1002,924,758,1817,592,1197,431,1665]","trial_type":"two-door-navigation","trial_index":2,"time_elapsed":108903,"internal_node_id":"0.0-2.0-0.0"},{"group":"hexagon_tri","room_assignment":["yellow","blue","red","green","grey","purple"],"door_color_assignment":["white","black"],"door_generator_assignment":[0,1],"goal":1,"start":3,"action_noise":0.15,"location_history":"[3,4,2,1]","action_history":"[1,1,0]","door_history":"[1,1,0]","location_rts":"[2643,2323,1136]","trial_type":"two-door-navigation","trial_index":3,"time_elapsed":121572,"internal_node_id":"0.0-2.0-1.0"},{"group":"hexagon_tri","room_assignment":["yellow","blue","red","green","grey","purple"],"door_color_assignment":["white","black"],"door_generator_assignment":[0,1],"goal":0,"start":1,"action_noise":0.15,"location_history":"[1,5,0]","action_history":"[0,1]","door_history":"[0,1]","location_rts":"[1867,1440]","trial_type":"two-door-navigation","trial_index":4,"time_elapsed":130426,"internal_node_id":"0.0-2.0-2.0"},{"group":"hexagon_tri","room_assignment":["yellow","blue","red","green","grey","purple"],"door_color_assignment":["white","black"],"door_generator_assignment":[0,1],"goal":3,"start":0,"action_noise":0.15,"location_history":"[0,5,4,0,1,3]","action_history":"[0,0,0,1,0]","door_history":"[0,0,0,1,0]","location_rts":"[1583,677,782,1259,1395]","trial_type":"two-door-navigation","trial_index":5,"time_elapsed":144739,"internal_node_id":"0.0-2.0-3.0"},{"group":"hexagon_tri","room_assignment":["yellow","blue","red","green","grey","purple"],"door_color_assignment":["white","black"],"door_generator_assignment":[0,1],"goal":4,"start":3,"action_noise":0.15,"location_history":"[3,2,1,3,4]","action_history":"[0,0,0,1]","door_history":"[0,0,0,1]","location_rts":"[1893,666,728,1024]","trial_type":"two-door-navigation","trial_index":6,"time_elapsed":156652,"internal_node_id":"0.0-2.0-4.0"},{"group":"hexagon_tri","room_assignment":["yellow","blue","red","green","grey","purple"],"door_color_assignment":["white","black"],"door_generator_assignment":[0,1],"goal":2,"start":4,"action_noise":0.15,"location_history":"[4,2]","action_history":"[0]","door_history":"[0]","location_rts":"[2141]","trial_type":"two-door-navigation","trial_index":7,"time_elapsed":163321,"internal_node_id":"0.0-2.0-5.0"},{"group":"hexagon_tri","room_assignment":["yellow","blue","red","green","grey","purple"],"door_color_assignment":["white","black"],"door_generator_assignment":[0,1],"goal":1,"start":2,"action_noise":0.15,"location_history":"[2,3,2,3,2,1]","action_history":"[1,0,0,0,0]","door_history":"[1,0,0,0,0]","location_rts":"[2064,1567,526,453,468]","trial_type":"two-door-navigation","trial_index":8,"time_elapsed":177008,"internal_node_id":"0.0-2.0-6.0"},{"group":"hexagon_tri","room_assignment":["yellow","blue","red","green","grey","purple"],"door_color_assignment":["white","black"],"door_generator_assignment":[0,1],"goal":5,"start":1,"action_noise":0.15,"location_history":"[1,5]","action_history":"[1]","door_history":"[1]","location_rts":"[4986]","trial_type":"two-door-navigation","trial_index":9,"time_elapsed":186521,"internal_node_id":"0.0-2.0-7.0"},{"group":"hexagon_tri","room_assignment":["yellow","blue","red","green","grey","purple"],"door_color_assignment":["white","black"],"door_generator_assignment":[0,1],"goal":4,"start":5,"action_noise":0.15,"location_history":"[5,0,5,0,5,4]","action_history":"[1,0,0,0,0]","door_history":"[1,0,0,0,0]","location_rts":"[8147,1325,396,393,555]","trial_type":"two-door-navigation","trial_index":10,"time_elapsed":205940,"internal_node_id":"0.0-2.0-8.0"},{"group":"hexagon_tri","room_assignment":["yellow","blue","red","green","grey","purple"],"door_color_assignment":["white","black"],"door_generator_assignment":[0,1],"goal":2,"start":4,"action_noise":0.15,"location_history":"[4,2]","action_history":"[1]","door_history":"[1]","location_rts":"[3321]","trial_type":"two-door-navigation","trial_index":11,"time_elapsed":213785,"internal_node_id":"0.0-2.0-9.0"},{"group":"hexagon_tri","room_assignment":["yellow","blue","red","green","grey","purple"],"door_color_assignment":["white","black"],"door_generator_assignment":[0,1],"goal":0,"start":2,"action_noise":0.15,"location_history":"[2,1,3,2,1,3,2,3,4,2,3,2,1,3,2,1,3,4,0]","action_history":"[0,0,0,1,0,0,0,1,0,0,0,0,0,0,1,0,0,0]","door_history":"[0,0,0,1,0,0,0,1,0,0,0,0,0,0,1,0,0,0]","location_rts":"[895,507,962,1330,427,411,630,899,781,458,391,426,386,633,1080,668,567,2438]","trial_type":"two-door-navigation","trial_index":12,"time_elapsed":249567,"internal_node_id":"0.0-2.0-10.0"},{"group":"hexagon_tri","room_assignment":["yellow","blue","red","green","grey","purple"],"door_color_assignment":["white","black"],"door_generator_assignment":[0,1],"goal":1,"start":0,"action_noise":0.15,"location_history":"[0,1]","action_history":"[1]","door_history":"[1]","location_rts":"[2370]","trial_type":"two-door-navigation","trial_index":13,"time_elapsed":256456,"internal_node_id":"0.0-2.0-11.0"},{"group":"hexagon_tri","room_assignment":["yellow","blue","red","green","grey","purple"],"door_color_assignment":["white","black"],"door_generator_assignment":[0,1],"goal":3,"start":1,"action_noise":0.15,"location_history":"[1,3]","action_history":"[0]","door_history":"[0]","location_rts":"[1911]","trial_type":"two-door-navigation","trial_index":14,"time_elapsed":262887,"internal_node_id":"0.0-2.0-12.0"},{"group":"hexagon_tri","room_assignment":["yellow","blue","red","green","grey","purple"],"door_color_assignment":["white","black"],"door_generator_assignment":[0,1],"goal":5,"start":3,"action_noise":0.15,"location_history":"[3,4,2,3,2,3,2,1,5]","action_history":"[0,1,1,0,0,0,0,1]","door_history":"[0,1,1,0,0,0,0,1]","location_rts":"[2081,2695,1219,907,584,687,590,1672]","trial_type":"two-door-navigation","trial_index":15,"time_elapsed":284968,"internal_node_id":"0.0-2.0-13.0"},{"group":"hexagon_tri","room_assignment":["yellow","blue","red","green","grey","purple"],"door_color_assignment":["white","black"],"door_generator_assignment":[0,1],"goal":4,"start":5,"action_noise":0.15,"location_history":"[5,4]","action_history":"[0]","door_history":"[0]","location_rts":"[1737]","trial_type":"two-door-navigation","trial_index":16,"time_elapsed":291226,"internal_node_id":"0.0-2.0-14.0"},{"group":"hexagon_tri","room_assignment":["yellow","blue","red","green","grey","purple"],"door_color_assignment":["white","black"],"door_generator_assignment":[0,1],"goal":0,"start":4,"action_noise":0.15,"location_history":"[4,0]","action_history":"[0]","door_history":"[0]","location_rts":"[1966]","trial_type":"two-door-navigation","trial_index":17,"time_elapsed":297716,"internal_node_id":"0.0-2.0-15.0"},{"group":"hexagon_tri","room_assignment":["yellow","blue","red","green","grey","purple"],"door_color_assignment":["white","black"],"door_generator_assignment":[0,1],"goal":3,"start":0,"action_noise":0.15,"location_history":"[0,1,5,0,1,5,0,5,0,1,3]","action_history":"[1,1,1,0,1,0,0,1,1,0]","door_history":"[1,1,1,0,1,0,0,1,1,0]","location_rts":"[1572,1241,838,938,702,1129,856,1442,852,1982]","trial_type":"two-door-navigation","trial_index":18,"time_elapsed":322965,"internal_node_id":"0.0-2.0-16.0"},{"group":"hexagon_tri","room_assignment":["yellow","blue","red","green","grey","purple"],"door_color_assignment":["white","black"],"door_generator_assignment":[0,1],"goal":1,"start":3,"action_noise":0.15,"location_history":"[3,4,2,1]","action_history":"[1,1,0]","door_history":"[1,1,0]","location_rts":"[3189,1405,1452]","trial_type":"two-door-navigation","trial_index":19,"time_elapsed":335573,"internal_node_id":"0.0-2.0-17.0"},{"group":"hexagon_tri","room_assignment":["yellow","blue","red","green","grey","purple"],"door_color_assignment":["white","black"],"door_generator_assignment":[0,1],"goal":5,"start":1,"action_noise":0.15,"location_history":"[1,5]","action_history":"[1]","door_history":"[1]","location_rts":"[2000]","trial_type":"two-door-navigation","trial_index":20,"time_elapsed":342092,"internal_node_id":"0.0-2.0-18.0"},{"group":"hexagon_tri","room_assignment":["yellow","blue","red","green","grey","purple"],"door_color_assignment":["white","black"],"door_generator_assignment":[0,1],"goal":2,"start":5,"action_noise":0.15,"location_history":"[5,4,2]","action_history":"[0,0]","door_history":"[0,0]","location_rts":"[1755,979]","trial_type":"two-door-navigation","trial_index":21,"time_elapsed":350371,"internal_node_id":"0.0-2.0-19.0"},{"group":"hexagon_tri","room_assignment":["yellow","blue","red","green","grey","purple"],"door_color_assignment":["white","black"],"door_generator_assignment":[0,1],"goal":4,"start":2,"action_noise":0.15,"location_history":"[2,1,3,2,3,2,3,2,1,3,2,3,4]","action_history":"[0,0,0,1,0,0,0,1,0,0,1,1]","door_history":"[0,0,0,1,0,0,0,1,0,0,1,1]","location_rts":"[1702,436,462,1063,647,424,646,1028,1427,1151,1763,1090]","trial_type":"two-door-navigation","trial_index":22,"time_elapsed":377952,"internal_node_id":"0.0-2.0-20.0"},{"group":"hexagon_tri","room_assignment":["yellow","blue","red","green","grey","purple"],"door_color_assignment":["white","black"],"door_generator_assignment":[0,1],"goal":1,"start":4,"action_noise":0.15,"location_history":"[4,2,1]","action_history":"[1,0]","door_history":"[1,0]","location_rts":"[4894,1015]","trial_type":"two-door-navigation","trial_index":23,"time_elapsed":389408,"internal_node_id":"0.0-2.0-21.0"},{"group":"hexagon_tri","room_assignment":["yellow","blue","red","green","grey","purple"],"door_color_assignment":["white","black"],"door_generator_assignment":[0,1],"goal":3,"start":1,"action_noise":0.15,"location_history":"[1,3]","action_history":"[0]","door_history":"[0]","location_rts":"[3231]","trial_type":"two-door-navigation","trial_index":24,"time_elapsed":397164,"internal_node_id":"0.0-2.0-22.0"},{"group":"hexagon_tri","room_assignment":["yellow","blue","red","green","grey","purple"],"door_color_assignment":["white","black"],"door_generator_assignment":[0,1],"goal":2,"start":3,"action_noise":0.15,"location_history":"[3,2]","action_history":"[0]","door_history":"[0]","location_rts":"[2308]","trial_type":"two-door-navigation","trial_index":25,"time_elapsed":404000,"internal_node_id":"0.0-2.0-23.0"},{"group":"hexagon_tri","room_assignment":["yellow","blue","red","green","grey","purple"],"door_color_assignment":["white","black"],"door_generator_assignment":[0,1],"goal":0,"start":2,"action_noise":0.15,"location_history":"[2,3,4,0]","action_history":"[1,1,0]","door_history":"[1,1,0]","location_rts":"[1839,1616,876]","trial_type":"two-door-navigation","trial_index":26,"time_elapsed":414899,"internal_node_id":"0.0-2.0-24.0"},{"group":"hexagon_tri","room_assignment":["yellow","blue","red","green","grey","purple"],"door_color_assignment":["white","black"],"door_generator_assignment":[0,1],"goal":5,"start":0,"action_noise":0.15,"location_history":"[0,5]","action_history":"[0]","door_history":"[0]","location_rts":"[2221]","trial_type":"two-door-navigation","trial_index":27,"time_elapsed":421647,"internal_node_id":"0.0-2.0-25.0"},{"group":"hexagon_tri","room_assignment":["yellow","blue","red","green","grey","purple"],"door_color_assignment":["white","black"],"door_generator_assignment":[0,1],"goal":2,"start":5,"action_noise":0.15,"location_history":"[5,4,2]","action_history":"[0,1]","door_history":"[0,1]","location_rts":"[1794,1528]","trial_type":"two-door-navigation","trial_index":28,"time_elapsed":430515,"internal_node_id":"0.0-2.0-26.0"},{"group":"hexagon_tri","room_assignment":["yellow","blue","red","green","grey","purple"],"door_color_assignment":["white","black"],"door_generator_assignment":[0,1],"goal":3,"start":2,"action_noise":0.15,"location_history":"[2,1,3]","action_history":"[0,0]","door_history":"[0,0]","location_rts":"[1685,996]","trial_type":"two-door-navigation","trial_index":29,"time_elapsed":438745,"internal_node_id":"0.0-2.0-27.0"},{"group":"hexagon_tri","room_assignment":["yellow","blue","red","green","grey","purple"],"door_color_assignment":["white","black"],"door_generator_assignment":[0,1],"goal":0,"start":3,"action_noise":0.15,"location_history":"[3,4,0]","action_history":"[1,0]","door_history":"[1,0]","location_rts":"[3198,1127]","trial_type":"two-door-navigation","trial_index":30,"time_elapsed":448612,"internal_node_id":"0.0-2.0-28.0"},{"group":"hexagon_tri","room_assignment":["yellow","blue","red","green","grey","purple"],"door_color_assignment":["white","black"],"door_generator_assignment":[0,1],"goal":1,"start":0,"action_noise":0.15,"location_history":"[0,1]","action_history":"[1]","door_history":"[1]","location_rts":"[4283]","trial_type":"two-door-navigation","trial_index":31,"time_elapsed":457421,"internal_node_id":"0.0-2.0-29.0"},{"group":"hexagon_tri","room_assignment":["yellow","blue","red","green","grey","purple"],"door_color_assignment":["white","black"],"door_generator_assignment":[0,1],"goal":4,"start":1,"action_noise":0.15,"location_history":"[1,3,4]","action_history":"[0,1]","door_history":"[0,1]","location_rts":"[3581,3765]","trial_type":"two-door-navigation","trial_index":32,"time_elapsed":470312,"internal_node_id":"0.0-2.0-30.0"},{"group":"hexagon_tri","room_assignment":["yellow","blue","red","green","grey","purple"],"door_color_assignment":["white","black"],"door_generator_assignment":[0,1],"goal":5,"start":4,"action_noise":0.15,"location_history":"[4,0,5]","action_history":"[1,1]","door_history":"[1,1]","location_rts":"[9418,1725]","trial_type":"two-door-navigation","trial_index":33,"time_elapsed":486997,"internal_node_id":"0.0-2.0-31.0"},{"group":"hexagon_tri","room_assignment":["yellow","blue","red","green","grey","purple"],"door_color_assignment":["white","black"],"door_generator_assignment":[0,1],"goal":0,"start":5,"action_noise":0.15,"location_history":"[5,0]","action_history":"[0]","door_history":"[0]","location_rts":"[10196]","trial_type":"two-door-navigation","trial_index":34,"time_elapsed":501717,"internal_node_id":"0.0-2.0-32.0"},{"group":"hexagon_tri","room_assignment":["yellow","blue","red","green","grey","purple"],"door_color_assignment":["white","black"],"door_generator_assignment":[0,1],"goal":3,"start":0,"action_noise":0.15,"location_history":"[0,1,3]","action_history":"[0,0]","door_history":"[0,0]","location_rts":"[39510,5517]","trial_type":"two-door-navigation","trial_index":35,"time_elapsed":552284,"internal_node_id":"0.0-2.0-33.0"},{"group":"hexagon_tri","room_assignment":["yellow","blue","red","green","grey","purple"],"door_color_assignment":["white","black"],"door_generator_assignment":[0,1],"goal":1,"start":3,"action_noise":0.15,"location_history":"[3,4,2,1]","action_history":"[1,1,0]","door_history":"[1,1,0]","location_rts":"[1925,1004,1569]","trial_type":"two-door-navigation","trial_index":36,"time_elapsed":563345,"internal_node_id":"0.0-2.0-34.0"},{"group":"hexagon_tri","room_assignment":["yellow","blue","red","green","grey","purple"],"door_color_assignment":["white","black"],"door_generator_assignment":[0,1],"goal":2,"start":1,"action_noise":0.15,"location_history":"[1,3,2]","action_history":"[1,1]","door_history":"[1,1]","location_rts":"[1841,816]","trial_type":"two-door-navigation","trial_index":37,"time_elapsed":571544,"internal_node_id":"0.0-2.0-35.0"},{"group":"hexagon_tri","room_assignment":["yellow","blue","red","green","grey","purple"],"door_color_assignment":["white","black"],"door_generator_assignment":[0,1],"goal":4,"start":2,"action_noise":0.15,"location_history":"[2,1,3,4]","action_history":"[0,0,1]","door_history":"[0,0,1]","location_rts":"[1412,1206,907]","trial_type":"two-door-navigation","trial_index":38,"time_elapsed":581635,"internal_node_id":"0.0-2.0-36.0"},{"group":"hexagon_tri","room_assignment":["yellow","blue","red","green","grey","purple"],"door_color_assignment":["white","black"],"door_generator_assignment":[0,1],"goal":5,"start":4,"action_noise":0.15,"location_history":"[4,2,3,2,3,2,3,2,1,5]","action_history":"[0,0,0,1,1,1,0,0,1]","door_history":"[0,0,0,1,1,1,0,0,1]","location_rts":"[3148,1346,817,873,1234,1322,816,564,1219]","trial_type":"two-door-navigation","trial_index":39,"time_elapsed":605671,"internal_node_id":"0.0-2.0-37.0"},{"group":"hexagon_tri","room_assignment":["yellow","blue","red","green","grey","purple"],"door_color_assignment":["white","black"],"door_generator_assignment":[0,1],"goal":1,"start":5,"action_noise":0.15,"location_history":"[5,0,5,4,2,1]","action_history":"[1,1,0,0,0]","door_history":"[1,1,0,0,0]","location_rts":"[4202,1401,657,1004,3167]","trial_type":"two-door-navigation","trial_index":40,"time_elapsed":624702,"internal_node_id":"0.0-2.0-38.0"},{"group":"hexagon_tri","room_assignment":["yellow","blue","red","green","grey","purple"],"door_color_assignment":["white","black"],"door_generator_assignment":[0,1],"goal":4,"start":1,"action_noise":0.15,"location_history":"[1,3,4]","action_history":"[0,1]","door_history":"[0,1]","location_rts":"[2510,1057]","trial_type":"two-door-navigation","trial_index":41,"time_elapsed":633815,"internal_node_id":"0.0-2.0-39.0"},{"group":"hexagon_tri","room_assignment":["yellow","blue","red","green","grey","purple"],"door_color_assignment":["white","black"],"door_generator_assignment":[0,1],"goal":3,"start":4,"action_noise":0.15,"location_history":"[4,0,5,4,0,5,4,0,1,3]","action_history":"[0,1,1,0,0,0,0,0,0]","door_history":"[0,1,1,0,0,0,0,0,0]","location_rts":"[1649,1677,804,1124,455,750,1252,959,2394]","trial_type":"two-door-navigation","trial_index":42,"time_elapsed":657567,"internal_node_id":"0.0-2.0-40.0"},{"group":"hexagon_tri","room_assignment":["yellow","blue","red","green","grey","purple"],"door_color_assignment":["white","black"],"door_generator_assignment":[0,1],"goal":2,"start":3,"action_noise":0.15,"location_history":"[3,2]","action_history":"[0]","door_history":"[0]","location_rts":"[2252]","trial_type":"two-door-navigation","trial_index":43,"time_elapsed":664346,"internal_node_id":"0.0-2.0-41.0"},{"group":"hexagon_tri","room_assignment":["yellow","blue","red","green","grey","purple"],"door_color_assignment":["white","black"],"door_generator_assignment":[0,1],"goal":0,"start":2,"action_noise":0.15,"location_history":"[2,1,5,4,0]","action_history":"[0,1,0,0]","door_history":"[0,1,0,0]","location_rts":"[1637,1506,1220,1327]","trial_type":"two-door-navigation","trial_index":44,"time_elapsed":677625,"internal_node_id":"0.0-2.0-42.0"},{"group":"hexagon_tri","room_assignment":["yellow","blue","red","green","grey","purple"],"door_color_assignment":["white","black"],"door_generator_assignment":[0,1],"goal":5,"start":0,"action_noise":0.15,"location_history":"[0,5]","action_history":"[0]","door_history":"[0]","location_rts":"[1937]","trial_type":"two-door-navigation","trial_index":45,"time_elapsed":684086,"internal_node_id":"0.0-2.0-43.0"},{"group":"hexagon_tri","room_assignment":["yellow","blue","red","green","grey","purple"],"door_color_assignment":["white","black"],"door_generator_assignment":[0,1],"goal":0,"start":5,"action_noise":0.15,"location_history":"[5,0]","action_history":"[1]","door_history":"[1]","location_rts":"[2226]","trial_type":"two-door-navigation","trial_index":46,"time_elapsed":690836,"internal_node_id":"0.0-2.0-44.0"},{"group":"hexagon_tri","room_assignment":["yellow","blue","red","green","grey","purple"],"door_color_assignment":["white","black"],"door_generator_assignment":[0,1],"goal":2,"start":0,"action_noise":0.15,"location_history":"[0,5,4,0,1,3,4,0,1,3,2]","action_history":"[0,0,0,1,0,0,0,1,0,0]","door_history":"[0,0,0,1,0,0,0,1,0,0]","location_rts":"[1268,750,1496,977,575,914,551,1180,489,459]","trial_type":"two-door-navigation","trial_index":47,"time_elapsed":713213,"internal_node_id":"0.0-2.0-45.0"},{"group":"hexagon_tri","room_assignment":["yellow","blue","red","green","grey","purple"],"door_color_assignment":["white","black"],"door_generator_assignment":[0,1],"goal":4,"start":2,"action_noise":0.15,"location_history":"[2,1,3,4]","action_history":"[0,0,1]","door_history":"[0,0,1]","location_rts":"[1091,1562,1271]","trial_type":"two-door-navigation","trial_index":48,"time_elapsed":723696,"internal_node_id":"0.0-2.0-46.0"},{"group":"hexagon_tri","room_assignment":["yellow","blue","red","green","grey","purple"],"door_color_assignment":["white","black"],"door_generator_assignment":[0,1],"goal":1,"start":4,"action_noise":0.15,"location_history":"[4,0,5,0,5,0,5,4,2,1]","action_history":"[0,0,1,0,0,0,0,1,0]","door_history":"[0,0,1,0,0,0,0,1,0]","location_rts":"[1018,747,1457,913,673,866,686,976,785]","trial_type":"two-door-navigation","trial_index":49,"time_elapsed":744508,"internal_node_id":"0.0-2.0-47.0"},{"group":"hexagon_tri","room_assignment":["yellow","blue","red","green","grey","purple"],"door_color_assignment":["white","black"],"door_generator_assignment":[0,1],"goal":5,"start":1,"action_noise":0.15,"location_history":"[1,3,2,1,3,4,0,5]","action_history":"[0,0,0,1,1,0,0]","door_history":"[0,0,0,1,1,0,0]","location_rts":"[1304,713,2065,794,2541,1434,607]","trial_type":"two-door-navigation","trial_index":50,"time_elapsed":764611,"internal_node_id":"0.0-2.0-48.0"},{"group":"hexagon_tri","room_assignment":["yellow","blue","red","green","grey","purple"],"door_color_assignment":["white","black"],"door_generator_assignment":[0,1],"goal":3,"start":5,"action_noise":0.15,"location_history":"[5,4,0,5,4,2,3]","action_history":"[0,1,0,0,1,0]","door_history":"[0,1,0,0,1,0]","location_rts":"[1278,1130,725,734,941,1026]","trial_type":"two-door-navigation","trial_index":51,"time_elapsed":780080,"internal_node_id":"0.0-2.0-49.0"},{"view_history":"[{\"page_index\":0,\"viewing_time\":29336}]","rt":29336,"trial_type":"instructions","trial_index":52,"time_elapsed":810417,"internal_node_id":"0.0-3.0"},{"view_history":"[{\"page_index\":0,\"viewing_time\":3343},{\"page_index\":1,\"viewing_time\":7160}]","rt":10503,"trial_type":"instructions","trial_index":53,"time_elapsed":821921,"internal_node_id":"0.0-4.0"},{"group":"hexagon_tri","fractal_assignment":["../images/gry_blk.png","../images/ylw_slt.png","../images/pnk_blu.png","../images/cyn_red.png","../images/blu_wht.png","../images/org_blu.png"],"mutagen_generator_assignment":[1,0],"goal":3,"start":5,"action_noise":0.15,"location_history":"[5,0,1,3]","action_history":"[1,0,0]","mutagen_history":"[0,1,1]","location_rts":"[3655,773,478]","trial_type":"fractal-mutation","trial_index":54,"time_elapsed":833462,"internal_node_id":"0.0-5.0-0.0"},{"group":"hexagon_tri","fractal_assignment":["../images/gry_blk.png","../images/ylw_slt.png","../images/pnk_blu.png","../images/cyn_red.png","../images/blu_wht.png","../images/org_blu.png"],"mutagen_generator_assignment":[1,0],"goal":1,"start":3,"action_noise":0.15,"location_history":"[3,4,0,5,4,2,1]","action_history":"[1,0,0,0,1,0]","mutagen_history":"[0,1,1,1,0,1]","location_rts":"[2691,983,753,747,710,575]","trial_type":"fractal-mutation","trial_index":55,"time_elapsed":849646,"internal_node_id":"0.0-5.0-1.0"},{"group":"hexagon_tri","fractal_assignment":["../images/gry_blk.png","../images/ylw_slt.png","../images/pnk_blu.png","../images/cyn_red.png","../images/blu_wht.png","../images/org_blu.png"],"mutagen_generator_assignment":[1,0],"goal":0,"start":1,"action_noise":0.15,"location_history":"[1,5,4,2,1,3,2,1,5,0]","action_history":"[0,0,1,0,0,0,0,1,1]","mutagen_history":"[1,1,0,1,1,1,1,0,0]","location_rts":"[1370,547,692,634,1014,577,558,1046,633]","trial_type":"fractal-mutation","trial_index":56,"time_elapsed":869521,"internal_node_id":"0.0-5.0-2.0"},{"group":"hexagon_tri","fractal_assignment":["../images/gry_blk.png","../images/ylw_slt.png","../images/pnk_blu.png","../images/cyn_red.png","../images/blu_wht.png","../images/org_blu.png"],"mutagen_generator_assignment":[1,0],"goal":3,"start":0,"action_noise":0.15,"location_history":"[0,1,3]","action_history":"[1,0]","mutagen_history":"[0,1]","location_rts":"[1397,572]","trial_type":"fractal-mutation","trial_index":57,"time_elapsed":877059,"internal_node_id":"0.0-5.0-3.0"},{"group":"hexagon_tri","fractal_assignment":["../images/gry_blk.png","../images/ylw_slt.png","../images/pnk_blu.png","../images/cyn_red.png","../images/blu_wht.png","../images/org_blu.png"],"mutagen_generator_assignment":[1,0],"goal":4,"start":3,"action_noise":0.15,"location_history":"[3,4]","action_history":"[1]","mutagen_history":"[0]","location_rts":"[819]","trial_type":"fractal-mutation","trial_index":58,"time_elapsed":882410,"internal_node_id":"0.0-5.0-4.0"},{"group":"hexagon_tri","fractal_assignment":["../images/gry_blk.png","../images/ylw_slt.png","../images/pnk_blu.png","../images/cyn_red.png","../images/blu_wht.png","../images/org_blu.png"],"mutagen_generator_assignment":[1,0],"goal":2,"start":4,"action_noise":0.15,"location_history":"[4,0,5,0,1,5,4,0,1,5,4,0,1,5,4,0,1,5,0,1,5,4,0,5,0,5,4,0,1,5,4,2]","action_history":"[0,0,1,1,1,0,0,0,1,0,0,1,0,0,0,1,1,0,0,1,0,0,0,1,0,0,0,1,0,0,1]","mutagen_history":"[1,1,0,0,0,1,1,1,0,1,1,0,1,1,1,0,0,1,1,0,1,1,1,0,1,1,1,0,1,1,0]","location_rts":"[1585,935,1168,944,479,734,938,556,913,523,697,742,719,552,521,608,877,911,2184,9134,419,632,615,546,513,392,966,1367,557,484,813]","trial_type":"fractal-mutation","trial_index":59,"time_elapsed":950908,"internal_node_id":"0.0-5.0-5.0"},{"group":"hexagon_tri","fractal_assignment":["../images/gry_blk.png","../images/ylw_slt.png","../images/pnk_blu.png","../images/cyn_red.png","../images/blu_wht.png","../images/org_blu.png"],"mutagen_generator_assignment":[1,0],"goal":1,"start":2,"action_noise":0.15,"location_history":"[2,1]","action_history":"[0]","mutagen_history":"[1]","location_rts":"[2107]","trial_type":"fractal-mutation","trial_index":60,"time_elapsed":957557,"internal_node_id":"0.0-5.0-6.0"},{"group":"hexagon_tri","fractal_assignment":["../images/gry_blk.png","../images/ylw_slt.png","../images/pnk_blu.png","../images/cyn_red.png","../images/blu_wht.png","../images/org_blu.png"],"mutagen_generator_assignment":[1,0],"goal":5,"start":1,"action_noise":0.15,"location_history":"[1,3,4,2,3,2,1,5]","action_history":"[1,1,1,0,0,0,1]","mutagen_history":"[0,0,0,1,1,1,0]","location_rts":"[1205,490,683,1021,839,489,1163]","trial_type":"fractal-mutation","trial_index":61,"time_elapsed":974158,"internal_node_id":"0.0-5.0-7.0"},{"group":"hexagon_tri","fractal_assignment":["../images/gry_blk.png","../images/ylw_slt.png","../images/pnk_blu.png","../images/cyn_red.png","../images/blu_wht.png","../images/org_blu.png"],"mutagen_generator_assignment":[1,0],"goal":4,"start":5,"action_noise":0.15,"location_history":"[5,4]","action_history":"[0]","mutagen_history":"[1]","location_rts":"[1674]","trial_type":"fractal-mutation","trial_index":62,"time_elapsed":980369,"internal_node_id":"0.0-5.0-8.0"},{"group":"hexagon_tri","fractal_assignment":["../images/gry_blk.png","../images/ylw_slt.png","../images/pnk_blu.png","../images/cyn_red.png","../images/blu_wht.png","../images/org_blu.png"],"mutagen_generator_assignment":[1,0],"goal":2,"start":4,"action_noise":0.15,"location_history":"[4,2]","action_history":"[0]","mutagen_history":"[1]","location_rts":"[1751]","trial_type":"fractal-mutation","trial_index":63,"time_elapsed":986655,"internal_node_id":"0.0-5.0-9.0"},{"group":"hexagon_tri","fractal_assignment":["../images/gry_blk.png","../images/ylw_slt.png","../images/pnk_blu.png","../images/cyn_red.png","../images/blu_wht.png","../images/org_blu.png"],"mutagen_generator_assignment":[1,0],"goal":0,"start":2,"action_noise":0.15,"location_history":"[2,3,2,3,2,1,3,2,3,4,0]","action_history":"[1,1,1,0,0,0,1,0,1,0]","mutagen_history":"[0,0,0,1,1,1,0,1,0,1]","location_rts":"[1528,879,987,783,777,647,741,545,551,594]","trial_type":"fractal-mutation","trial_index":64,"time_elapsed":1008484,"internal_node_id":"0.0-5.0-10.0"},{"group":"hexagon_tri","fractal_assignment":["../images/gry_blk.png","../images/ylw_slt.png","../images/pnk_blu.png","../images/cyn_red.png","../images/blu_wht.png","../images/org_blu.png"],"mutagen_generator_assignment":[1,0],"goal":1,"start":0,"action_noise":0.15,"location_history":"[0,5,4,0,1]","action_history":"[0,0,0,1]","mutagen_history":"[1,1,1,0]","location_rts":"[12677,558,517,760]","trial_type":"fractal-mutation","trial_index":65,"time_elapsed":1030622,"internal_node_id":"0.0-5.0-11.0"},{"group":"hexagon_tri","fractal_assignment":["../images/gry_blk.png","../images/ylw_slt.png","../images/pnk_blu.png","../images/cyn_red.png","../images/blu_wht.png","../images/org_blu.png"],"mutagen_generator_assignment":[1,0],"goal":3,"start":1,"action_noise":0.15,"location_history":"[1,3]","action_history":"[0]","mutagen_history":"[1]","location_rts":"[1163]","trial_type":"fractal-mutation","trial_index":66,"time_elapsed":1036319,"internal_node_id":"0.0-5.0-12.0"},{"group":"hexagon_tri","fractal_assignment":["../images/gry_blk.png","../images/ylw_slt.png","../images/pnk_blu.png","../images/cyn_red.png","../images/blu_wht.png","../images/org_blu.png"],"mutagen_generator_assignment":[1,0],"goal":5,"start":3,"action_noise":0.15,"location_history":"[3,4,0,5]","action_history":"[1,0,0]","mutagen_history":"[0,1,1]","location_rts":"[1387,1805,1481]","trial_type":"fractal-mutation","trial_index":67,"time_elapsed":1047586,"internal_node_id":"0.0-5.0-13.0"},{"group":"hexagon_tri","fractal_assignment":["../images/gry_blk.png","../images/ylw_slt.png","../images/pnk_blu.png","../images/cyn_red.png","../images/blu_wht.png","../images/org_blu.png"],"mutagen_generator_assignment":[1,0],"goal":4,"start":5,"action_noise":0.15,"location_history":"[5,0,5,4]","action_history":"[1,0,0]","mutagen_history":"[0,1,1]","location_rts":"[3992,913,1644]","trial_type":"fractal-mutation","trial_index":68,"time_elapsed":1060726,"internal_node_id":"0.0-5.0-14.0"},{"group":"hexagon_tri","fractal_assignment":["../images/gry_blk.png","../images/ylw_slt.png","../images/pnk_blu.png","../images/cyn_red.png","../images/blu_wht.png","../images/org_blu.png"],"mutagen_generator_assignment":[1,0],"goal":0,"start":4,"action_noise":0.15,"location_history":"[4,2,1,5,0]","action_history":"[1,0,0,1]","mutagen_history":"[0,1,1,0]","location_rts":"[1395,536,393,981]","trial_type":"fractal-mutation","trial_index":69,"time_elapsed":1071658,"internal_node_id":"0.0-5.0-15.0"},{"group":"hexagon_tri","fractal_assignment":["../images/gry_blk.png","../images/ylw_slt.png","../images/pnk_blu.png","../images/cyn_red.png","../images/blu_wht.png","../images/org_blu.png"],"mutagen_generator_assignment":[1,0],"goal":3,"start":0,"action_noise":0.15,"location_history":"[0,1,5,4,0,5,0,5,4,0,1,3]","action_history":"[1,1,0,0,0,1,0,0,0,1,0]","mutagen_history":"[0,0,1,1,1,0,1,1,1,0,1]","location_rts":"[3486,879,428,440,504,768,580,747,630,885,1514]","trial_type":"fractal-mutation","trial_index":70,"time_elapsed":1097378,"internal_node_id":"0.0-5.0-16.0"},{"group":"hexagon_tri","fractal_assignment":["../images/gry_blk.png","../images/ylw_slt.png","../images/pnk_blu.png","../images/cyn_red.png","../images/blu_wht.png","../images/org_blu.png"],"mutagen_generator_assignment":[1,0],"goal":1,"start":3,"action_noise":0.15,"location_history":"[3,2,1]","action_history":"[0,0]","mutagen_history":"[1,1]","location_rts":"[16614,522]","trial_type":"fractal-mutation","trial_index":71,"time_elapsed":1120085,"internal_node_id":"0.0-5.0-17.0"},{"group":"hexagon_tri","fractal_assignment":["../images/gry_blk.png","../images/ylw_slt.png","../images/pnk_blu.png","../images/cyn_red.png","../images/blu_wht.png","../images/org_blu.png"],"mutagen_generator_assignment":[1,0],"goal":5,"start":1,"action_noise":0.15,"location_history":"[1,5]","action_history":"[1]","mutagen_history":"[0]","location_rts":"[1764]","trial_type":"fractal-mutation","trial_index":72,"time_elapsed":1126385,"internal_node_id":"0.0-5.0-18.0"},{"group":"hexagon_tri","fractal_assignment":["../images/gry_blk.png","../images/ylw_slt.png","../images/pnk_blu.png","../images/cyn_red.png","../images/blu_wht.png","../images/org_blu.png"],"mutagen_generator_assignment":[1,0],"goal":2,"start":5,"action_noise":0.15,"location_history":"[5,4,0,5,0,5,4,0,5,4,0,1,3,2]","action_history":"[0,0,0,1,0,0,0,0,0,0,1,0,0]","mutagen_history":"[1,1,1,0,1,1,1,1,1,1,0,1,1]","location_rts":"[1126,525,529,823,498,427,531,489,619,782,473,648,678]","trial_type":"fractal-mutation","trial_index":73,"time_elapsed":1151472,"internal_node_id":"0.0-5.0-19.0"},{"group":"hexagon_tri","fractal_assignment":["../images/gry_blk.png","../images/ylw_slt.png","../images/pnk_blu.png","../images/cyn_red.png","../images/blu_wht.png","../images/org_blu.png"],"mutagen_generator_assignment":[1,0],"goal":4,"start":2,"action_noise":0.15,"location_history":"[2,1,5,4]","action_history":"[0,1,0]","mutagen_history":"[1,0,1]","location_rts":"[3802,989,1003]","trial_type":"fractal-mutation","trial_index":74,"time_elapsed":1163874,"internal_node_id":"0.0-5.0-20.0"},{"group":"hexagon_tri","fractal_assignment":["../images/gry_blk.png","../images/ylw_slt.png","../images/pnk_blu.png","../images/cyn_red.png","../images/blu_wht.png","../images/org_blu.png"],"mutagen_generator_assignment":[1,0],"goal":1,"start":4,"action_noise":0.15,"location_history":"[4,2,1]","action_history":"[1,0]","mutagen_history":"[0,1]","location_rts":"[871,543]","trial_type":"fractal-mutation","trial_index":75,"time_elapsed":1170856,"internal_node_id":"0.0-5.0-21.0"},{"group":"hexagon_tri","fractal_assignment":["../images/gry_blk.png","../images/ylw_slt.png","../images/pnk_blu.png","../images/cyn_red.png","../images/blu_wht.png","../images/org_blu.png"],"mutagen_generator_assignment":[1,0],"goal":3,"start":1,"action_noise":0.15,"location_history":"[1,3]","action_history":"[0]","mutagen_history":"[1]","location_rts":"[898]","trial_type":"fractal-mutation","trial_index":76,"time_elapsed":1176293,"internal_node_id":"0.0-5.0-22.0"},{"group":"hexagon_tri","fractal_assignment":["../images/gry_blk.png","../images/ylw_slt.png","../images/pnk_blu.png","../images/cyn_red.png","../images/blu_wht.png","../images/org_blu.png"],"mutagen_generator_assignment":[1,0],"goal":2,"start":3,"action_noise":0.15,"location_history":"[3,2]","action_history":"[0]","mutagen_history":"[1]","location_rts":"[1123]","trial_type":"fractal-mutation","trial_index":77,"time_elapsed":1181951,"internal_node_id":"0.0-5.0-23.0"},{"group":"hexagon_tri","fractal_assignment":["../images/gry_blk.png","../images/ylw_slt.png","../images/pnk_blu.png","../images/cyn_red.png","../images/blu_wht.png","../images/org_blu.png"],"mutagen_generator_assignment":[1,0],"goal":0,"start":2,"action_noise":0.15,"location_history":"[2,1,3,2,3,4,0]","action_history":"[0,0,0,1,0,0]","mutagen_history":"[1,1,1,0,1,1]","location_rts":"[1353,634,774,586,586,507]","trial_type":"fractal-mutation","trial_index":78,"time_elapsed":1196085,"internal_node_id":"0.0-5.0-24.0"},{"group":"hexagon_tri","fractal_assignment":["../images/gry_blk.png","../images/ylw_slt.png","../images/pnk_blu.png","../images/cyn_red.png","../images/blu_wht.png","../images/org_blu.png"],"mutagen_generator_assignment":[1,0],"goal":5,"start":0,"action_noise":0.15,"location_history":"[0,5]","action_history":"[0]","mutagen_history":"[1]","location_rts":"[1093]","trial_type":"fractal-mutation","trial_index":79,"time_elapsed":1201722,"internal_node_id":"0.0-5.0-25.0"},{"group":"hexagon_tri","fractal_assignment":["../images/gry_blk.png","../images/ylw_slt.png","../images/pnk_blu.png","../images/cyn_red.png","../images/blu_wht.png","../images/org_blu.png"],"mutagen_generator_assignment":[1,0],"goal":2,"start":5,"action_noise":0.15,"location_history":"[5,0,5,4,0,1,5,4,2]","action_history":"[1,0,0,0,0,1,0,0]","mutagen_history":"[0,1,1,1,1,0,1,1]","location_rts":"[1103,567,694,517,616,529,453,487]","trial_type":"fractal-mutation","trial_index":80,"time_elapsed":1218452,"internal_node_id":"0.0-5.0-26.0"},{"group":"hexagon_tri","fractal_assignment":["../images/gry_blk.png","../images/ylw_slt.png","../images/pnk_blu.png","../images/cyn_red.png","../images/blu_wht.png","../images/org_blu.png"],"mutagen_generator_assignment":[1,0],"goal":3,"start":2,"action_noise":0.15,"location_history":"[2,1,3]","action_history":"[0,0]","mutagen_history":"[1,1]","location_rts":"[1522,459]","trial_type":"fractal-mutation","trial_index":81,"time_elapsed":1225998,"internal_node_id":"0.0-5.0-27.0"},{"group":"hexagon_tri","fractal_assignment":["../images/gry_blk.png","../images/ylw_slt.png","../images/pnk_blu.png","../images/cyn_red.png","../images/blu_wht.png","../images/org_blu.png"],"mutagen_generator_assignment":[1,0],"goal":0,"start":3,"action_noise":0.15,"location_history":"[3,2,1,5,4,0]","action_history":"[0,0,1,0,0]","mutagen_history":"[1,1,0,1,1]","location_rts":"[1229,472,484,409,434]","trial_type":"fractal-mutation","trial_index":82,"time_elapsed":1237702,"internal_node_id":"0.0-5.0-28.0"},{"group":"hexagon_tri","fractal_assignment":["../images/gry_blk.png","../images/ylw_slt.png","../images/pnk_blu.png","../images/cyn_red.png","../images/blu_wht.png","../images/org_blu.png"],"mutagen_generator_assignment":[1,0],"goal":1,"start":0,"action_noise":0.15,"location_history":"[0,5,0,1]","action_history":"[0,0,1]","mutagen_history":"[1,1,0]","location_rts":"[1379,502,981]","trial_type":"fractal-mutation","trial_index":83,"time_elapsed":1247165,"internal_node_id":"0.0-5.0-29.0"},{"group":"hexagon_tri","fractal_assignment":["../images/gry_blk.png","../images/ylw_slt.png","../images/pnk_blu.png","../images/cyn_red.png","../images/blu_wht.png","../images/org_blu.png"],"mutagen_generator_assignment":[1,0],"goal":4,"start":1,"action_noise":0.15,"location_history":"[1,5,4]","action_history":"[0,0]","mutagen_history":"[1,1]","location_rts":"[1149,453]","trial_type":"fractal-mutation","trial_index":84,"time_elapsed":1254337,"internal_node_id":"0.0-5.0-30.0"},{"group":"hexagon_tri","fractal_assignment":["../images/gry_blk.png","../images/ylw_slt.png","../images/pnk_blu.png","../images/cyn_red.png","../images/blu_wht.png","../images/org_blu.png"],"mutagen_generator_assignment":[1,0],"goal":5,"start":4,"action_noise":0.15,"location_history":"[4,0,1,5]","action_history":"[0,0,1]","mutagen_history":"[1,1,0]","location_rts":"[1337,437,453]","trial_type":"fractal-mutation","trial_index":85,"time_elapsed":1263171,"internal_node_id":"0.0-5.0-31.0"},{"group":"hexagon_tri","fractal_assignment":["../images/gry_blk.png","../images/ylw_slt.png","../images/pnk_blu.png","../images/cyn_red.png","../images/blu_wht.png","../images/org_blu.png"],"mutagen_generator_assignment":[1,0],"goal":0,"start":5,"action_noise":0.15,"location_history":"[5,4,2,1,5,0]","action_history":"[0,0,0,1,1]","mutagen_history":"[1,1,1,0,0]","location_rts":"[1095,510,678,1098,1082]","trial_type":"fractal-mutation","trial_index":86,"time_elapsed":1276317,"internal_node_id":"0.0-5.0-32.0"},{"group":"hexagon_tri","fractal_assignment":["../images/gry_blk.png","../images/ylw_slt.png","../images/pnk_blu.png","../images/cyn_red.png","../images/blu_wht.png","../images/org_blu.png"],"mutagen_generator_assignment":[1,0],"goal":3,"start":0,"action_noise":0.15,"location_history":"[0,5,0,1,5,4,2,1,3]","action_history":"[0,0,1,0,0,1,0,0]","mutagen_history":"[1,1,0,1,1,0,1,1]","location_rts":"[15629,567,884,634,572,858,614,740]","trial_type":"fractal-mutation","trial_index":87,"time_elapsed":1308581,"internal_node_id":"0.0-5.0-33.0"},{"group":"hexagon_tri","fractal_assignment":["../images/gry_blk.png","../images/ylw_slt.png","../images/pnk_blu.png","../images/cyn_red.png","../images/blu_wht.png","../images/org_blu.png"],"mutagen_generator_assignment":[1,0],"goal":1,"start":3,"action_noise":0.15,"location_history":"[3,2,1]","action_history":"[0,0]","mutagen_history":"[1,1]","location_rts":"[1910,452]","trial_type":"fractal-mutation","trial_index":88,"time_elapsed":1316520,"internal_node_id":"0.0-5.0-34.0"},{"group":"hexagon_tri","fractal_assignment":["../images/gry_blk.png","../images/ylw_slt.png","../images/pnk_blu.png","../images/cyn_red.png","../images/blu_wht.png","../images/org_blu.png"],"mutagen_generator_assignment":[1,0],"goal":2,"start":1,"action_noise":0.15,"location_history":"[1,5,0,5,4,0,5,0,5,4,0,5,4,0,1,5,0,5,4,2]","action_history":"[1,1,1,0,0,0,1,0,0,1,0,0,0,1,0,0,0,0,1]","mutagen_history":"[0,0,0,1,1,1,0,1,1,0,1,1,1,0,1,1,1,1,0]","location_rts":"[1521,989,573,636,483,520,535,626,585,533,549,442,561,588,717,600,517,866,631]","trial_type":"fractal-mutation","trial_index":89,"time_elapsed":1352095,"internal_node_id":"0.0-5.0-35.0"},{"group":"hexagon_tri","fractal_assignment":["../images/gry_blk.png","../images/ylw_slt.png","../images/pnk_blu.png","../images/cyn_red.png","../images/blu_wht.png","../images/org_blu.png"],"mutagen_generator_assignment":[1,0],"goal":4,"start":2,"action_noise":0.15,"location_history":"[2,1,3,2,3,2,1,5,4]","action_history":"[0,0,0,1,0,0,1,0]","mutagen_history":"[1,1,1,0,1,1,0,1]","location_rts":"[1561,439,889,597,524,665,501,512]","trial_type":"fractal-mutation","trial_index":90,"time_elapsed":1369538,"internal_node_id":"0.0-5.0-36.0"},{"group":"hexagon_tri","fractal_assignment":["../images/gry_blk.png","../images/ylw_slt.png","../images/pnk_blu.png","../images/cyn_red.png","../images/blu_wht.png","../images/org_blu.png"],"mutagen_generator_assignment":[1,0],"goal":5,"start":4,"action_noise":0.15,"location_history":"[4,0,1,5]","action_history":"[0,0,1]","mutagen_history":"[1,1,0]","location_rts":"[1241,654,488]","trial_type":"fractal-mutation","trial_index":91,"time_elapsed":1378522,"internal_node_id":"0.0-5.0-37.0"},{"group":"hexagon_tri","fractal_assignment":["../images/gry_blk.png","../images/ylw_slt.png","../images/pnk_blu.png","../images/cyn_red.png","../images/blu_wht.png","../images/org_blu.png"],"mutagen_generator_assignment":[1,0],"goal":1,"start":5,"action_noise":0.15,"location_history":"[5,0,5,4,0,5,4,2,1]","action_history":"[0,0,1,0,0,0,1,0]","mutagen_history":"[1,1,0,1,1,1,0,1]","location_rts":"[801,616,982,600,458,466,646,641]","trial_type":"fractal-mutation","trial_index":92,"time_elapsed":1395495,"internal_node_id":"0.0-5.0-38.0"},{"group":"hexagon_tri","fractal_assignment":["../images/gry_blk.png","../images/ylw_slt.png","../images/pnk_blu.png","../images/cyn_red.png","../images/blu_wht.png","../images/org_blu.png"],"mutagen_generator_assignment":[1,0],"goal":4,"start":1,"action_noise":0.15,"location_history":"[1,3,4]","action_history":"[0,0]","mutagen_history":"[1,1]","location_rts":"[772,535]","trial_type":"fractal-mutation","trial_index":93,"time_elapsed":1402373,"internal_node_id":"0.0-5.0-39.0"},{"group":"hexagon_tri","fractal_assignment":["../images/gry_blk.png","../images/ylw_slt.png","../images/pnk_blu.png","../images/cyn_red.png","../images/blu_wht.png","../images/org_blu.png"],"mutagen_generator_assignment":[1,0],"goal":3,"start":4,"action_noise":0.15,"location_history":"[4,0,5,0,1,3]","action_history":"[0,0,1,1,0]","mutagen_history":"[1,1,0,0,1]","location_rts":"[1061,664,722,534,736]","trial_type":"fractal-mutation","trial_index":94,"time_elapsed":1414750,"internal_node_id":"0.0-5.0-40.0"},{"group":"hexagon_tri","fractal_assignment":["../images/gry_blk.png","../images/ylw_slt.png","../images/pnk_blu.png","../images/cyn_red.png","../images/blu_wht.png","../images/org_blu.png"],"mutagen_generator_assignment":[1,0],"goal":2,"start":3,"action_noise":0.15,"location_history":"[3,4,0,5,0,1,3,2]","action_history":"[0,0,0,1,1,0,0]","mutagen_history":"[1,1,1,0,0,1,1]","location_rts":"[908,662,464,469,525,558,439]","trial_type":"fractal-mutation","trial_index":95,"time_elapsed":1429507,"internal_node_id":"0.0-5.0-41.0"},{"group":"hexagon_tri","fractal_assignment":["../images/gry_blk.png","../images/ylw_slt.png","../images/pnk_blu.png","../images/cyn_red.png","../images/blu_wht.png","../images/org_blu.png"],"mutagen_generator_assignment":[1,0],"goal":0,"start":2,"action_noise":0.15,"location_history":"[2,1,3,4,0]","action_history":"[0,0,1,0]","mutagen_history":"[1,1,0,1]","location_rts":"[1176,499,712,554]","trial_type":"fractal-mutation","trial_index":96,"time_elapsed":1440084,"internal_node_id":"0.0-5.0-42.0"},{"group":"hexagon_tri","fractal_assignment":["../images/gry_blk.png","../images/ylw_slt.png","../images/pnk_blu.png","../images/cyn_red.png","../images/blu_wht.png","../images/org_blu.png"],"mutagen_generator_assignment":[1,0],"goal":5,"start":0,"action_noise":0.15,"location_history":"[0,5]","action_history":"[0]","mutagen_history":"[1]","location_rts":"[915]","trial_type":"fractal-mutation","trial_index":97,"time_elapsed":1445534,"internal_node_id":"0.0-5.0-43.0"},{"group":"hexagon_tri","fractal_assignment":["../images/gry_blk.png","../images/ylw_slt.png","../images/pnk_blu.png","../images/cyn_red.png","../images/blu_wht.png","../images/org_blu.png"],"mutagen_generator_assignment":[1,0],"goal":0,"start":5,"action_noise":0.15,"location_history":"[5,0]","action_history":"[1]","mutagen_history":"[0]","location_rts":"[1787]","trial_type":"fractal-mutation","trial_index":98,"time_elapsed":1451852,"internal_node_id":"0.0-5.0-44.0"},{"group":"hexagon_tri","fractal_assignment":["../images/gry_blk.png","../images/ylw_slt.png","../images/pnk_blu.png","../images/cyn_red.png","../images/blu_wht.png","../images/org_blu.png"],"mutagen_generator_assignment":[1,0],"goal":2,"start":0,"action_noise":0.15,"location_history":"[0,5,4,0,1,3,4,0,5,0,1,3,2]","action_history":"[0,0,0,1,0,0,0,0,1,1,0,0]","mutagen_history":"[1,1,1,0,1,1,1,1,0,0,1,1]","location_rts":"[876,471,611,530,646,524,531,731,443,741,462,489]","trial_type":"fractal-mutation","trial_index":99,"time_elapsed":1474797,"internal_node_id":"0.0-5.0-45.0"},{"group":"hexagon_tri","fractal_assignment":["../images/gry_blk.png","../images/ylw_slt.png","../images/pnk_blu.png","../images/cyn_red.png","../images/blu_wht.png","../images/org_blu.png"],"mutagen_generator_assignment":[1,0],"goal":4,"start":2,"action_noise":0.15,"location_history":"[2,1,3,2,3,2,1,5,4]","action_history":"[0,0,0,1,0,0,1,0]","mutagen_history":"[1,1,1,0,1,1,0,1]","location_rts":"[1101,496,449,796,749,465,735,428]","trial_type":"fractal-mutation","trial_index":100,"time_elapsed":1491801,"internal_node_id":"0.0-5.0-46.0"},{"group":"hexagon_tri","fractal_assignment":["../images/gry_blk.png","../images/ylw_slt.png","../images/pnk_blu.png","../images/cyn_red.png","../images/blu_wht.png","../images/org_blu.png"],"mutagen_generator_assignment":[1,0],"goal":1,"start":4,"action_noise":0.15,"location_history":"[4,0,5,4,2,1]","action_history":"[0,0,0,1,0]","mutagen_history":"[1,1,1,0,1]","location_rts":"[1135,676,445,701,448]","trial_type":"fractal-mutation","trial_index":101,"time_elapsed":1503876,"internal_node_id":"0.0-5.0-47.0"},{"group":"hexagon_tri","fractal_assignment":["../images/gry_blk.png","../images/ylw_slt.png","../images/pnk_blu.png","../images/cyn_red.png","../images/blu_wht.png","../images/org_blu.png"],"mutagen_generator_assignment":[1,0],"goal":5,"start":1,"action_noise":0.15,"location_history":"[1,3,2,3,2,1,5]","action_history":"[0,0,1,0,0,1]","mutagen_history":"[1,1,0,1,1,0]","location_rts":"[870,665,510,743,618,694]","trial_type":"fractal-mutation","trial_index":102,"time_elapsed":1517656,"internal_node_id":"0.0-5.0-48.0"},{"group":"hexagon_tri","fractal_assignment":["../images/gry_blk.png","../images/ylw_slt.png","../images/pnk_blu.png","../images/cyn_red.png","../images/blu_wht.png","../images/org_blu.png"],"mutagen_generator_assignment":[1,0],"goal":3,"start":5,"action_noise":0.15,"location_history":"[5,4,0,5,0,5,4,0,1,3]","action_history":"[0,0,0,1,0,0,0,1,0]","mutagen_history":"[1,1,1,0,1,1,1,0,1]","location_rts":"[1075,760,1524,2743,949,374,522,493,495]","trial_type":"fractal-mutation","trial_index":103,"time_elapsed":1539361,"internal_node_id":"0.0-5.0-49.0"},{"view_history":"[{\"page_index\":0,\"viewing_time\":6161}]","rt":6161,"trial_type":"instructions","trial_index":104,"time_elapsed":1546522,"internal_node_id":"0.0-6.0"},{"rt":38806,"responses":"{\"Q0\":\"no problems\"}","trial_type":"survey-text","trial_index":105,"time_elapsed":1586332,"internal_node_id":"0.0-7.0"}]