[{"view_history":"[{\"page_index\":0,\"viewing_time\":8621},{\"page_index\":1,\"viewing_time\":34955}]","rt":43577,"trial_type":"instructions","trial_index":0,"time_elapsed":43577,"internal_node_id":"0.0-0.0"},{"view_history":"[{\"page_index\":0,\"viewing_time\":4211},{\"page_index\":1,\"viewing_time\":19896}]","rt":24107,"trial_type":"instructions","trial_index":1,"time_elapsed":68686,"internal_node_id":"0.0-1.0"},{"group":"hexagon_tri","room_assignment":["yellow","green","red","purple","blue","grey"],"door_color_assignment":["white","black"],"door_generator_assignment":[0,1],"goal":3,"start":5,"action_noise":0.15,"location_history":"[5,4,0,5,0,1,5,0,5,4,2,3]","action_history":"[0,0,0,1,1,1,1,0,0,0,1]","door_history":"[0,0,0,1,1,1,1,0,0,0,1]","location_rts":"[6099,498,1367,1256,472,439,444,860,947,548,1532]","trial_type":"two-door-navigation","trial_index":2,"time_elapsed":98018,"internal_node_id":"0.0-2.0-0.0"},{"group":"hexagon_tri","room_assignment":["yellow","green","red","purple","blue","grey"],"door_color_assignment":["white","black"],"door_generator_assignment":[0,1],"goal":1,"start":3,"action_noise":0.15,"location_history":"[3,2,1]","action_history":"[0,0]","door_history":"[0,0]","location_rts":"[2216,622]","trial_type":"two-door-navigation","trial_index":3,"time_elapsed":106427,"internal_node_id":"0.0-2.0-1.0"},{"group":"hexagon_tri","room_assignment":["yellow","green","red","purple","blue","grey"],"door_color_assignment":["white","black"],"door_generator_assignment":[0,1],"goal":0,"start":1,"action_noise":0.15,"location_history":"[1,3,2,3,2,1,5,4,2,1,3,4,2,1,5,4,0]","action_history":"[0,0,0,0,0,1,1,1,0,0,1,1,1,1,0,0]","door_history":"[0,0,0,0,0,1,1,1,0,0,1,1,1,1,0,0]","location_rts":"[958,1380,936,966,1471,1109,587,843,549,1574,710,467,753,601,1275,510]","trial_type":"two-door-navigation","trial_index":4,"time_elapsed":141047,"internal_node_id":"0.0-2.0-2.0"},{"group":"hexagon_tri","room_assignment":["yellow","green","red","purple","blue","grey"],"door_color_assignment":["white","black"],"door_generator_assignment":[0,1],"goal":3,"start":0,"action_noise":0.15,"location_history":"[0,5,4,2,3]","action_history":"[0,0,1,1]","door_history":"[0,0,1,1]","location_rts":"[554,512,1278,535]","trial_type":"two-door-navigation","trial_index":5,"time_elapsed":151551,"internal_node_id":"0.0-2.0-3.0"},{"group":"hexagon_tri","room_assignment":["yellow","green","red","purple","blue","grey"],"door_color_assignment":["white","black"],"door_generator_assignment":[0,1],"goal":4,"start":3,"action_noise":0.15,"location_history":"[3,2,1,3,2,1,3,2,3,4]","action_history":"[0,0,0,0,0,0,0,1,1]","door_history":"[0,0,0,0,0,0,0,1,1]","location_rts":"[1849,659,1257,851,775,653,2036,486,480]","trial_type":"two-door-navigation","trial_index":6,"time_elapsed":173395,"internal_node_id":"0.0-2.0-4.0"},{"group":"hexagon_tri","room_assignment":["yellow","green","red","purple","blue","grey"],"door_color_assignment":["white","black"],"door_generator_assignment":[0,1],"goal":2,"start":4,"action_noise":0.15,"location_history":"[4,0,5,4,0,5,0,1,5,0,1,3,2]","action_history":"[0,0,0,0,0,1,1,1,1,1,0,0]","door_history":"[0,0,0,0,0,1,1,1,1,1,0,0]","location_rts":"[1667,577,392,737,675,819,755,474,573,462,1482,460]","trial_type":"two-door-navigation","trial_index":7,"time_elapsed":198289,"internal_node_id":"0.0-2.0-5.0"},{"group":"hexagon_tri","room_assignment":["yellow","green","red","purple","blue","grey"],"door_color_assignment":["white","black"],"door_generator_assignment":[0,1],"goal":1,"start":2,"action_noise":0.15,"location_history":"[2,1]","action_history":"[0]","door_history":"[0]","location_rts":"[1294]","trial_type":"two-door-navigation","trial_index":8,"time_elapsed":204115,"internal_node_id":"0.0-2.0-6.0"},{"group":"hexagon_tri","room_assignment":["yellow","green","red","purple","blue","grey"],"door_color_assignment":["white","black"],"door_generator_assignment":[0,1],"goal":5,"start":1,"action_noise":0.15,"location_history":"[1,3,2,1,3,2,1,5]","action_history":"[0,0,0,0,0,1,1]","door_history":"[0,0,0,0,0,1,1]","location_rts":"[1337,620,553,561,644,895,477]","trial_type":"two-door-navigation","trial_index":9,"time_elapsed":219903,"internal_node_id":"0.0-2.0-7.0"},{"group":"hexagon_tri","room_assignment":["yellow","green","red","purple","blue","grey"],"door_color_assignment":["white","black"],"door_generator_assignment":[0,1],"goal":4,"start":5,"action_noise":0.15,"location_history":"[5,4]","action_history":"[0]","door_history":"[0]","location_rts":"[6603]","trial_type":"two-door-navigation","trial_index":10,"time_elapsed":231090,"internal_node_id":"0.0-2.0-8.0"},{"group":"hexagon_tri","room_assignment":["yellow","green","red","purple","blue","grey"],"door_color_assignment":["white","black"],"door_generator_assignment":[0,1],"goal":2,"start":4,"action_noise":0.15,"location_history":"[4,0,5,4,2]","action_history":"[0,0,0,0]","door_history":"[0,0,0,0]","location_rts":"[2382,400,776,502]","trial_type":"two-door-navigation","trial_index":11,"time_elapsed":242740,"internal_node_id":"0.0-2.0-9.0"},{"group":"hexagon_tri","room_assignment":["yellow","green","red","purple","blue","grey"],"door_color_assignment":["white","black"],"door_generator_assignment":[0,1],"goal":0,"start":2,"action_noise":0.15,"location_history":"[2,1,3,4,0]","action_history":"[0,0,0,0]","door_history":"[0,0,0,0]","location_rts":"[1658,760,694,492]","trial_type":"two-door-navigation","trial_index":12,"time_elapsed":254020,"internal_node_id":"0.0-2.0-10.0"},{"group":"hexagon_tri","room_assignment":["yellow","green","red","purple","blue","grey"],"door_color_assignment":["white","black"],"door_generator_assignment":[0,1],"goal":1,"start":0,"action_noise":0.15,"location_history":"[0,5,0,5,4,0,1]","action_history":"[0,0,0,0,0,0]","door_history":"[0,0,0,0,0,0]","location_rts":"[1452,590,484,421,676,574]","trial_type":"two-door-navigation","trial_index":13,"time_elapsed":267931,"internal_node_id":"0.0-2.0-11.0"},{"group":"hexagon_tri","room_assignment":["yellow","green","red","purple","blue","grey"],"door_color_assignment":["white","black"],"door_generator_assignment":[0,1],"goal":3,"start":1,"action_noise":0.15,"location_history":"[1,3]","action_history":"[0]","door_history":"[0]","location_rts":"[1274]","trial_type":"two-door-navigation","trial_index":14,"time_elapsed":273752,"internal_node_id":"0.0-2.0-12.0"},{"group":"hexagon_tri","room_assignment":["yellow","green","red","purple","blue","grey"],"door_color_assignment":["white","black"],"door_generator_assignment":[0,1],"goal":5,"start":3,"action_noise":0.15,"location_history":"[3,2,1,3,2,1,3,2,3,4,2,3,4,0,5]","action_history":"[0,0,0,0,0,0,0,1,1,1,1,1,0,0]","door_history":"[0,0,0,0,0,0,0,1,1,1,1,1,0,0]","location_rts":"[1120,546,1169,742,689,630,545,714,501,511,627,994,431,631]","trial_type":"two-door-navigation","trial_index":15,"time_elapsed":301598,"internal_node_id":"0.0-2.0-13.0"},{"group":"hexagon_tri","room_assignment":["yellow","green","red","purple","blue","grey"],"door_color_assignment":["white","black"],"door_generator_assignment":[0,1],"goal":4,"start":5,"action_noise":0.15,"location_history":"[5,4]","action_history":"[0]","door_history":"[0]","location_rts":"[3375]","trial_type":"two-door-navigation","trial_index":16,"time_elapsed":309498,"internal_node_id":"0.0-2.0-14.0"},{"group":"hexagon_tri","room_assignment":["yellow","green","red","purple","blue","grey"],"door_color_assignment":["white","black"],"door_generator_assignment":[0,1],"goal":0,"start":4,"action_noise":0.15,"location_history":"[4,0]","action_history":"[0]","door_history":"[0]","location_rts":"[1155]","trial_type":"two-door-navigation","trial_index":17,"time_elapsed":315182,"internal_node_id":"0.0-2.0-15.0"},{"group":"hexagon_tri","room_assignment":["yellow","green","red","purple","blue","grey"],"door_color_assignment":["white","black"],"door_generator_assignment":[0,1],"goal":3,"start":0,"action_noise":0.15,"location_history":"[0,5,0,1,5,4,0,5,4,0,5,4,0,1,3]","action_history":"[0,1,1,1,0,0,0,0,0,0,0,0,1,1]","door_history":"[0,1,1,1,0,0,0,0,0,0,0,0,1,1]","location_rts":"[1224,2380,850,685,1508,563,670,656,558,540,593,1012,296,921]","trial_type":"two-door-navigation","trial_index":18,"time_elapsed":345563,"internal_node_id":"0.0-2.0-16.0"},{"group":"hexagon_tri","room_assignment":["yellow","green","red","purple","blue","grey"],"door_color_assignment":["white","black"],"door_generator_assignment":[0,1],"goal":1,"start":3,"action_noise":0.15,"location_history":"[3,2,1]","action_history":"[0,0]","door_history":"[0,0]","location_rts":"[1196,1785]","trial_type":"two-door-navigation","trial_index":19,"time_elapsed":354113,"internal_node_id":"0.0-2.0-17.0"},{"group":"hexagon_tri","room_assignment":["yellow","green","red","purple","blue","grey"],"door_color_assignment":["white","black"],"door_generator_assignment":[0,1],"goal":5,"start":1,"action_noise":0.15,"location_history":"[1,3,2,1,3,2,3,2,3,4,2,3,2,1,3,2,1,5]","action_history":"[0,0,0,0,0,0,1,1,1,1,1,0,0,0,0,0,1]","door_history":"[0,0,0,0,0,0,1,1,1,1,1,0,0,0,0,0,1]","location_rts":"[1859,852,859,812,703,674,844,674,886,1327,626,612,766,596,807,621,1255]","trial_type":"two-door-navigation","trial_index":20,"time_elapsed":389953,"internal_node_id":"0.0-2.0-18.0"},{"group":"hexagon_tri","room_assignment":["yellow","green","red","purple","blue","grey"],"door_color_assignment":["white","black"],"door_generator_assignment":[0,1],"goal":2,"start":5,"action_noise":0.15,"location_history":"[5,4,0,5,4,2]","action_history":"[0,0,0,1,1]","door_history":"[0,0,0,1,1]","location_rts":"[761,1494,683,802,642]","trial_type":"two-door-navigation","trial_index":21,"time_elapsed":402953,"internal_node_id":"0.0-2.0-19.0"},{"group":"hexagon_tri","room_assignment":["yellow","green","red","purple","blue","grey"],"door_color_assignment":["white","black"],"door_generator_assignment":[0,1],"goal":4,"start":2,"action_noise":0.15,"location_history":"[2,1,5,4]","action_history":"[0,0,0]","door_history":"[0,0,0]","location_rts":"[2379,846,921]","trial_type":"two-door-navigation","trial_index":22,"time_elapsed":413689,"internal_node_id":"0.0-2.0-20.0"},{"group":"hexagon_tri","room_assignment":["yellow","green","red","purple","blue","grey"],"door_color_assignment":["white","black"],"door_generator_assignment":[0,1],"goal":1,"start":4,"action_noise":0.15,"location_history":"[4,0,5,0,5,0,1]","action_history":"[0,0,1,1,1,1]","door_history":"[0,0,1,1,1,1]","location_rts":"[1582,1477,1143,433,464,505]","trial_type":"two-door-navigation","trial_index":23,"time_elapsed":428966,"internal_node_id":"0.0-2.0-21.0"},{"group":"hexagon_tri","room_assignment":["yellow","green","red","purple","blue","grey"],"door_color_assignment":["white","black"],"door_generator_assignment":[0,1],"goal":3,"start":1,"action_noise":0.15,"location_history":"[1,3]","action_history":"[0]","door_history":"[0]","location_rts":"[852]","trial_type":"two-door-navigation","trial_index":24,"time_elapsed":434344,"internal_node_id":"0.0-2.0-22.0"},{"group":"hexagon_tri","room_assignment":["yellow","green","red","purple","blue","grey"],"door_color_assignment":["white","black"],"door_generator_assignment":[0,1],"goal":2,"start":3,"action_noise":0.15,"location_history":"[3,2]","action_history":"[0]","door_history":"[0]","location_rts":"[1623]","trial_type":"two-door-navigation","trial_index":25,"time_elapsed":440494,"internal_node_id":"0.0-2.0-23.0"},{"group":"hexagon_tri","room_assignment":["yellow","green","red","purple","blue","grey"],"door_color_assignment":["white","black"],"door_generator_assignment":[0,1],"goal":0,"start":2,"action_noise":0.15,"location_history":"[2,1,3,2,1,3,4,2,3,4,2,1,3,2,1,3,4,2,3,2,1,3,4,0]","action_history":"[0,0,0,0,0,1,1,1,1,1,0,0,0,0,0,1,1,1,0,0,0,1,1]","door_history":"[0,0,0,0,0,1,1,1,1,1,0,0,0,0,0,1,1,1,0,0,0,1,1]","location_rts":"[1196,1126,815,2295,474,722,458,705,524,550,987,447,399,418,432,497,410,578,1406,444,478,1062,589]","trial_type":"two-door-navigation","trial_index":26,"time_elapsed":484832,"internal_node_id":"0.0-2.0-24.0"},{"group":"hexagon_tri","room_assignment":["yellow","green","red","purple","blue","grey"],"door_color_assignment":["white","black"],"door_generator_assignment":[0,1],"goal":5,"start":0,"action_noise":0.15,"location_history":"[0,5]","action_history":"[0]","door_history":"[0]","location_rts":"[1588]","trial_type":"two-door-navigation","trial_index":27,"time_elapsed":490969,"internal_node_id":"0.0-2.0-25.0"},{"group":"hexagon_tri","room_assignment":["yellow","green","red","purple","blue","grey"],"door_color_assignment":["white","black"],"door_generator_assignment":[0,1],"goal":2,"start":5,"action_noise":0.15,"location_history":"[5,4,2]","action_history":"[0,1]","door_history":"[0,1]","location_rts":"[1245,2883]","trial_type":"two-door-navigation","trial_index":28,"time_elapsed":500638,"internal_node_id":"0.0-2.0-26.0"},{"group":"hexagon_tri","room_assignment":["yellow","green","red","purple","blue","grey"],"door_color_assignment":["white","black"],"door_generator_assignment":[0,1],"goal":3,"start":2,"action_noise":0.15,"location_history":"[2,1,3]","action_history":"[0,0]","door_history":"[0,0]","location_rts":"[1975,875]","trial_type":"two-door-navigation","trial_index":29,"time_elapsed":509063,"internal_node_id":"0.0-2.0-27.0"},{"group":"hexagon_tri","room_assignment":["yellow","green","red","purple","blue","grey"],"door_color_assignment":["white","black"],"door_generator_assignment":[0,1],"goal":0,"start":3,"action_noise":0.15,"location_history":"[3,2,1,5,4,2,3,4,2,3,2,1,5,0]","action_history":"[0,0,0,0,1,1,1,0,0,0,0,1,1]","door_history":"[0,0,0,0,1,1,1,0,0,0,0,1,1]","location_rts":"[1291,958,900,825,535,501,456,930,591,785,507,1379,472]","trial_type":"two-door-navigation","trial_index":30,"time_elapsed":536136,"internal_node_id":"0.0-2.0-28.0"},{"group":"hexagon_tri","room_assignment":["yellow","green","red","purple","blue","grey"],"door_color_assignment":["white","black"],"door_generator_assignment":[0,1],"goal":1,"start":0,"action_noise":0.15,"location_history":"[0,5,4,0,5,0,1]","action_history":"[0,0,0,0,1,1]","door_history":"[0,0,0,0,1,1]","location_rts":"[1665,1368,320,846,912,1090]","trial_type":"two-door-navigation","trial_index":31,"time_elapsed":552003,"internal_node_id":"0.0-2.0-29.0"},{"group":"hexagon_tri","room_assignment":["yellow","green","red","purple","blue","grey"],"door_color_assignment":["white","black"],"door_generator_assignment":[0,1],"goal":4,"start":1,"action_noise":0.15,"location_history":"[1,3,2,1,5,0,5,4]","action_history":"[0,0,0,1,1,1,0]","door_history":"[0,0,0,1,1,1,0]","location_rts":"[1703,947,835,2115,10806,772,52578]","trial_type":"two-door-navigation","trial_index":32,"time_elapsed":632462,"internal_node_id":"0.0-2.0-30.0"},{"group":"hexagon_tri","room_assignment":["yellow","green","red","purple","blue","grey"],"door_color_assignment":["white","black"],"door_generator_assignment":[0,1],"goal":5,"start":4,"action_noise":0.15,"location_history":"[4,0,5]","action_history":"[0,0]","door_history":"[0,0]","location_rts":"[1790,526]","trial_type":"two-door-navigation","trial_index":33,"time_elapsed":640331,"internal_node_id":"0.0-2.0-31.0"},{"group":"hexagon_tri","room_assignment":["yellow","green","red","purple","blue","grey"],"door_color_assignment":["white","black"],"door_generator_assignment":[0,1],"goal":0,"start":5,"action_noise":0.15,"location_history":"[5,4,2,3,4,2,3,2,1,3,2,1,5,0]","action_history":"[0,1,1,1,1,1,0,0,0,0,0,1,1]","door_history":"[0,1,1,1,1,1,0,0,0,0,0,1,1]","location_rts":"[953,1329,862,699,518,543,969,484,688,797,2601,1006,591]","trial_type":"two-door-navigation","trial_index":34,"time_elapsed":669280,"internal_node_id":"0.0-2.0-32.0"},{"group":"hexagon_tri","room_assignment":["yellow","green","red","purple","blue","grey"],"door_color_assignment":["white","black"],"door_generator_assignment":[0,1],"goal":3,"start":0,"action_noise":0.15,"location_history":"[0,1,3]","action_history":"[0,0]","door_history":"[0,0]","location_rts":"[1864,1009]","trial_type":"two-door-navigation","trial_index":35,"time_elapsed":677730,"internal_node_id":"0.0-2.0-33.0"},{"group":"hexagon_tri","room_assignment":["yellow","green","red","purple","blue","grey"],"door_color_assignment":["white","black"],"door_generator_assignment":[0,1],"goal":1,"start":3,"action_noise":0.15,"location_history":"[3,4,2,1]","action_history":"[0,0,0]","door_history":"[0,0,0]","location_rts":"[589,452,1675]","trial_type":"two-door-navigation","trial_index":36,"time_elapsed":687035,"internal_node_id":"0.0-2.0-34.0"},{"group":"hexagon_tri","room_assignment":["yellow","green","red","purple","blue","grey"],"door_color_assignment":["white","black"],"door_generator_assignment":[0,1],"goal":2,"start":1,"action_noise":0.15,"location_history":"[1,3,2]","action_history":"[0,0]","door_history":"[0,0]","location_rts":"[4136,1106]","trial_type":"two-door-navigation","trial_index":37,"time_elapsed":697828,"internal_node_id":"0.0-2.0-35.0"},{"group":"hexagon_tri","room_assignment":["yellow","green","red","purple","blue","grey"],"door_color_assignment":["white","black"],"door_generator_assignment":[0,1],"goal":4,"start":2,"action_noise":0.15,"location_history":"[2,1,3,2,1,5,0,5,0,1,3,2,3,2,3,2,1,3,2,1,3,4]","action_history":"[0,0,0,0,1,1,1,1,0,0,0,1,1,1,0,0,0,0,0,0,1]","door_history":"[0,0,0,0,1,1,1,1,0,0,0,1,1,1,0,0,0,0,0,0,1]","location_rts":"[2245,1241,676,551,604,574,646,629,445,720,581,1358,621,590,234,715,880,588,456,897,1103]","trial_type":"two-door-navigation","trial_index":38,"time_elapsed":739346,"internal_node_id":"0.0-2.0-36.0"},{"group":"hexagon_tri","room_assignment":["yellow","green","red","purple","blue","grey"],"door_color_assignment":["white","black"],"door_generator_assignment":[0,1],"goal":5,"start":4,"action_noise":0.15,"location_history":"[4,0,1,3,2,1,3,2,3,4,2,3,4,0,5]","action_history":"[0,0,0,1,1,0,0,1,1,1,1,1,0,0]","door_history":"[0,0,0,1,1,0,0,1,1,1,1,1,0,0]","location_rts":"[991,903,712,1259,781,561,610,1190,558,773,767,1315,1656,688]","trial_type":"two-door-navigation","trial_index":39,"time_elapsed":770086,"internal_node_id":"0.0-2.0-37.0"},{"group":"hexagon_tri","room_assignment":["yellow","green","red","purple","blue","grey"],"door_color_assignment":["white","black"],"door_generator_assignment":[0,1],"goal":1,"start":5,"action_noise":0.15,"location_history":"[5,4,2,1]","action_history":"[0,0,0]","door_history":"[0,0,0]","location_rts":"[1594,556,1866]","trial_type":"two-door-navigation","trial_index":40,"time_elapsed":780670,"internal_node_id":"0.0-2.0-38.0"},{"group":"hexagon_tri","room_assignment":["yellow","green","red","purple","blue","grey"],"door_color_assignment":["white","black"],"door_generator_assignment":[0,1],"goal":4,"start":1,"action_noise":0.15,"location_history":"[1,3,2,1,3,2,1,5,4]","action_history":"[0,0,0,0,0,0,0,0]","door_history":"[0,0,0,0,0,0,0,0]","location_rts":"[1131,451,638,1107,528,563,583,662]","trial_type":"two-door-navigation","trial_index":41,"time_elapsed":798095,"internal_node_id":"0.0-2.0-39.0"},{"group":"hexagon_tri","room_assignment":["yellow","green","red","purple","blue","grey"],"door_color_assignment":["white","black"],"door_generator_assignment":[0,1],"goal":3,"start":4,"action_noise":0.15,"location_history":"[4,0,5,4,0,5,4,2,3]","action_history":"[0,0,0,0,0,0,1,1]","door_history":"[0,0,0,0,0,0,1,1]","location_rts":"[1575,753,470,626,610,485,640,901]","trial_type":"two-door-navigation","trial_index":42,"time_elapsed":815974,"internal_node_id":"0.0-2.0-40.0"},{"group":"hexagon_tri","room_assignment":["yellow","green","red","purple","blue","grey"],"door_color_assignment":["white","black"],"door_generator_assignment":[0,1],"goal":2,"start":3,"action_noise":0.15,"location_history":"[3,4,0,5,4,2]","action_history":"[0,0,0,0,1]","door_history":"[0,0,0,0,1]","location_rts":"[1670,690,743,552,590]","trial_type":"two-door-navigation","trial_index":43,"time_elapsed":828899,"internal_node_id":"0.0-2.0-41.0"},{"group":"hexagon_tri","room_assignment":["yellow","green","red","purple","blue","grey"],"door_color_assignment":["white","black"],"door_generator_assignment":[0,1],"goal":0,"start":2,"action_noise":0.15,"location_history":"[2,1,3,2,3,4,2,1,3,2,3,4,2,3,2,1,5,0]","action_history":"[0,0,0,1,1,1,0,0,1,1,1,1,1,0,0,1,1]","door_history":"[0,0,0,1,1,1,0,0,1,1,1,1,1,0,0,1,1]","location_rts":"[3965,603,770,1253,570,725,851,695,855,392,420,422,458,436,969,1107,713]","trial_type":"two-door-navigation","trial_index":44,"time_elapsed":865059,"internal_node_id":"0.0-2.0-42.0"},{"group":"hexagon_tri","room_assignment":["yellow","green","red","purple","blue","grey"],"door_color_assignment":["white","black"],"door_generator_assignment":[0,1],"goal":5,"start":0,"action_noise":0.15,"location_history":"[0,5]","action_history":"[0]","door_history":"[0]","location_rts":"[2727]","trial_type":"two-door-navigation","trial_index":45,"time_elapsed":872317,"internal_node_id":"0.0-2.0-43.0"},{"group":"hexagon_tri","room_assignment":["yellow","green","red","purple","blue","grey"],"door_color_assignment":["white","black"],"door_generator_assignment":[0,1],"goal":0,"start":5,"action_noise":0.15,"location_history":"[5,4,0]","action_history":"[1,0]","door_history":"[1,0]","location_rts":"[6969,1005]","trial_type":"two-door-navigation","trial_index":46,"time_elapsed":885836,"internal_node_id":"0.0-2.0-44.0"},{"group":"hexagon_tri","room_assignment":["yellow","green","red","purple","blue","grey"],"door_color_assignment":["white","black"],"door_generator_assignment":[0,1],"goal":2,"start":0,"action_noise":0.15,"location_history":"[0,5,4,0,5,0,1,5,0,5,4,0,1,3,4,0,5,4,0,5,4,0,1,5,0,1,3,4,0,1,5,0,1,5,4,0,5,0,1,3,2]","action_history":"[0,0,0,1,1,1,1,1,0,0,0,1,0,1,0,0,0,0,0,0,0,1,1,1,1,0,0,0,1,1,1,1,1,0,0,0,1,1,0,0]","door_history":"[0,0,0,1,1,1,1,1,0,0,0,1,0,1,0,0,0,0,0,0,0,1,1,1,1,0,0,0,1,1,1,1,1,0,0,0,1,1,0,0]","location_rts":"[2457,858,2915,2387,847,1681,842,792,1118,609,807,1038,1236,460,710,618,448,418,499,845,520,429,1191,1105,1645,1898,726,1411,1722,619,740,435,411,946,809,630,14415,2556,1122,589]","trial_type":"two-door-navigation","trial_index":47,"time_elapsed":985899,"internal_node_id":"0.0-2.0-45.0"},{"group":"hexagon_tri","room_assignment":["yellow","green","red","purple","blue","grey"],"door_color_assignment":["white","black"],"door_generator_assignment":[0,1],"goal":4,"start":2,"action_noise":0.15,"location_history":"[2,1,3,4]","action_history":"[0,0,0]","door_history":"[0,0,0]","location_rts":"[1554,1602,953]","trial_type":"two-door-navigation","trial_index":48,"time_elapsed":996564,"internal_node_id":"0.0-2.0-46.0"},{"group":"hexagon_tri","room_assignment":["yellow","green","red","purple","blue","grey"],"door_color_assignment":["white","black"],"door_generator_assignment":[0,1],"goal":1,"start":4,"action_noise":0.15,"location_history":"[4,0,5,4,2,1]","action_history":"[0,0,0,0,0]","door_history":"[0,0,0,0,0]","location_rts":"[3270,1112,956,4920,924]","trial_type":"two-door-navigation","trial_index":49,"time_elapsed":1016352,"internal_node_id":"0.0-2.0-47.0"},{"group":"hexagon_tri","room_assignment":["yellow","green","red","purple","blue","grey"],"door_color_assignment":["white","black"],"door_generator_assignment":[0,1],"goal":5,"start":1,"action_noise":0.15,"location_history":"[1,3,2,1,3,4,2,1,3,2,1,5]","action_history":"[0,0,0,0,1,1,1,0,0,0,1]","door_history":"[0,0,0,0,1,1,1,0,0,0,1]","location_rts":"[5246,1582,491,489,510,436,564,1292,500,654,2033]","trial_type":"two-door-navigation","trial_index":50,"time_elapsed":1044852,"internal_node_id":"0.0-2.0-48.0"},{"group":"hexagon_tri","room_assignment":["yellow","green","red","purple","blue","grey"],"door_color_assignment":["white","black"],"door_generator_assignment":[0,1],"goal":3,"start":5,"action_noise":0.15,"location_history":"[5,0,5,0,1,5,0,1,3]","action_history":"[0,0,1,1,1,1,0,0]","door_history":"[0,0,1,1,1,1,0,0]","location_rts":"[9308,327,1741,390,404,402,241,427]","trial_type":"two-door-navigation","trial_index":51,"time_elapsed":1069790,"internal_node_id":"0.0-2.0-49.0"},{"view_history":"[{\"page_index\":0,\"viewing_time\":5294}]","rt":5294,"trial_type":"instructions","trial_index":52,"time_elapsed":1076086,"internal_node_id":"0.0-3.0"},{"view_history":"[{\"page_index\":0,\"viewing_time\":5232},{\"page_index\":1,\"viewing_time\":13241},{\"page_index\":0,\"viewing_time\":2711},{\"page_index\":1,\"viewing_time\":7615}]","rt":28799,"trial_type":"instructions","trial_index":53,"time_elapsed":1105886,"internal_node_id":"0.0-4.0"},{"group":"hexagon_tri","fractal_assignment":["../images/cyn_red.png","../images/org_blu.png","../images/blu_wht.png","../images/pnk_blu.png","../images/gry_blk.png","../images/ylw_slt.png"],"mutagen_generator_assignment":[0,1],"goal":3,"start":5,"action_noise":0.15,"location_history":"[5,4,0,5,4,0,1,3]","action_history":"[0,1,0,0,0,1,0]","mutagen_history":"[0,1,0,0,0,1,0]","location_rts":"[9944,709,1048,981,1152,851,1164]","trial_type":"fractal-mutation","trial_index":54,"time_elapsed":1133146,"internal_node_id":"0.0-5.0-0.0"},{"group":"hexagon_tri","fractal_assignment":["../images/cyn_red.png","../images/org_blu.png","../images/blu_wht.png","../images/pnk_blu.png","../images/gry_blk.png","../images/ylw_slt.png"],"mutagen_generator_assignment":[0,1],"goal":1,"start":3,"action_noise":0.15,"location_history":"[3,4,2,1]","action_history":"[1,1,0]","mutagen_history":"[1,1,0]","location_rts":"[3094,917,894]","trial_type":"fractal-mutation","trial_index":55,"time_elapsed":1145065,"internal_node_id":"0.0-5.0-1.0"},{"group":"hexagon_tri","fractal_assignment":["../images/cyn_red.png","../images/org_blu.png","../images/blu_wht.png","../images/pnk_blu.png","../images/gry_blk.png","../images/ylw_slt.png"],"mutagen_generator_assignment":[0,1],"goal":0,"start":1,"action_noise":0.15,"location_history":"[1,5,4,2,1,5,4,2,3,4,2,1,3,2,1,3,4,2,1,5,4,0]","action_history":"[1,0,1,0,1,0,1,0,1,1,0,0,0,0,0,1,1,1,1,1,1]","mutagen_history":"[1,0,1,0,1,0,1,0,1,1,0,0,0,0,0,1,1,1,1,1,1]","location_rts":"[3493,787,875,668,2062,648,646,685,1200,761,881,692,1173,607,689,496,729,592,933,465,606]","trial_type":"fractal-mutation","trial_index":56,"time_elapsed":1192502,"internal_node_id":"0.0-5.0-2.0"},{"group":"hexagon_tri","fractal_assignment":["../images/cyn_red.png","../images/org_blu.png","../images/blu_wht.png","../images/pnk_blu.png","../images/gry_blk.png","../images/ylw_slt.png"],"mutagen_generator_assignment":[0,1],"goal":3,"start":0,"action_noise":0.15,"location_history":"[0,5,4,2,1,5,4,0,5,4,0,1,5,0,1,3]","action_history":"[0,0,1,0,1,0,0,0,0,0,1,1,1,1,0]","mutagen_history":"[0,0,1,0,1,0,0,0,0,0,1,1,1,1,0]","location_rts":"[5333,846,1055,760,837,577,565,964,590,446,816,869,648,1290,674]","trial_type":"fractal-mutation","trial_index":57,"time_elapsed":1229406,"internal_node_id":"0.0-5.0-3.0"},{"group":"hexagon_tri","fractal_assignment":["../images/cyn_red.png","../images/org_blu.png","../images/blu_wht.png","../images/pnk_blu.png","../images/gry_blk.png","../images/ylw_slt.png"],"mutagen_generator_assignment":[0,1],"goal":4,"start":3,"action_noise":0.15,"location_history":"[3,4]","action_history":"[1]","mutagen_history":"[1]","location_rts":"[4433]","trial_type":"fractal-mutation","trial_index":58,"time_elapsed":1238524,"internal_node_id":"0.0-5.0-4.0"},{"group":"hexagon_tri","fractal_assignment":["../images/cyn_red.png","../images/org_blu.png","../images/blu_wht.png","../images/pnk_blu.png","../images/gry_blk.png","../images/ylw_slt.png"],"mutagen_generator_assignment":[0,1],"goal":2,"start":4,"action_noise":0.15,"location_history":"[4,0,5,4,2]","action_history":"[0,0,0,1]","mutagen_history":"[0,0,0,1]","location_rts":"[4559,868,606,830]","trial_type":"fractal-mutation","trial_index":59,"time_elapsed":1253490,"internal_node_id":"0.0-5.0-5.0"},{"group":"hexagon_tri","fractal_assignment":["../images/cyn_red.png","../images/org_blu.png","../images/blu_wht.png","../images/pnk_blu.png","../images/gry_blk.png","../images/ylw_slt.png"],"mutagen_generator_assignment":[0,1],"goal":1,"start":2,"action_noise":0.15,"location_history":"[2,1]","action_history":"[0]","mutagen_history":"[0]","location_rts":"[1504]","trial_type":"fractal-mutation","trial_index":60,"time_elapsed":1259631,"internal_node_id":"0.0-5.0-6.0"},{"group":"hexagon_tri","fractal_assignment":["../images/cyn_red.png","../images/org_blu.png","../images/blu_wht.png","../images/pnk_blu.png","../images/gry_blk.png","../images/ylw_slt.png"],"mutagen_generator_assignment":[0,1],"goal":5,"start":1,"action_noise":0.15,"location_history":"[1,3,4,0,5]","action_history":"[1,1,0,0]","mutagen_history":"[1,1,0,0]","location_rts":"[3378,763,501,561]","trial_type":"fractal-mutation","trial_index":61,"time_elapsed":1272835,"internal_node_id":"0.0-5.0-7.0"},{"group":"hexagon_tri","fractal_assignment":["../images/cyn_red.png","../images/org_blu.png","../images/blu_wht.png","../images/pnk_blu.png","../images/gry_blk.png","../images/ylw_slt.png"],"mutagen_generator_assignment":[0,1],"goal":4,"start":5,"action_noise":0.15,"location_history":"[5,4]","action_history":"[0]","mutagen_history":"[0]","location_rts":"[4707]","trial_type":"fractal-mutation","trial_index":62,"time_elapsed":1282165,"internal_node_id":"0.0-5.0-8.0"},{"group":"hexagon_tri","fractal_assignment":["../images/cyn_red.png","../images/org_blu.png","../images/blu_wht.png","../images/pnk_blu.png","../images/gry_blk.png","../images/ylw_slt.png"],"mutagen_generator_assignment":[0,1],"goal":2,"start":4,"action_noise":0.15,"location_history":"[4,2]","action_history":"[1]","mutagen_history":"[1]","location_rts":"[2662]","trial_type":"fractal-mutation","trial_index":63,"time_elapsed":1289502,"internal_node_id":"0.0-5.0-9.0"},{"group":"hexagon_tri","fractal_assignment":["../images/cyn_red.png","../images/org_blu.png","../images/blu_wht.png","../images/pnk_blu.png","../images/gry_blk.png","../images/ylw_slt.png"],"mutagen_generator_assignment":[0,1],"goal":0,"start":2,"action_noise":0.15,"location_history":"[2,3,4,0]","action_history":"[1,1,0]","mutagen_history":"[1,1,0]","location_rts":"[2469,1136,1292]","trial_type":"fractal-mutation","trial_index":64,"time_elapsed":1301396,"internal_node_id":"0.0-5.0-10.0"},{"group":"hexagon_tri","fractal_assignment":["../images/cyn_red.png","../images/org_blu.png","../images/blu_wht.png","../images/pnk_blu.png","../images/gry_blk.png","../images/ylw_slt.png"],"mutagen_generator_assignment":[0,1],"goal":1,"start":0,"action_noise":0.15,"location_history":"[0,1]","action_history":"[1]","mutagen_history":"[1]","location_rts":"[2793]","trial_type":"fractal-mutation","trial_index":65,"time_elapsed":1308868,"internal_node_id":"0.0-5.0-11.0"},{"group":"hexagon_tri","fractal_assignment":["../images/cyn_red.png","../images/org_blu.png","../images/blu_wht.png","../images/pnk_blu.png","../images/gry_blk.png","../images/ylw_slt.png"],"mutagen_generator_assignment":[0,1],"goal":3,"start":1,"action_noise":0.15,"location_history":"[1,5,0,5,0,1,3]","action_history":"[1,0,0,1,1,0]","mutagen_history":"[1,0,0,1,1,0]","location_rts":"[3931,922,701,999,926,962]","trial_type":"fractal-mutation","trial_index":66,"time_elapsed":1327643,"internal_node_id":"0.0-5.0-12.0"},{"group":"hexagon_tri","fractal_assignment":["../images/cyn_red.png","../images/org_blu.png","../images/blu_wht.png","../images/pnk_blu.png","../images/gry_blk.png","../images/ylw_slt.png"],"mutagen_generator_assignment":[0,1],"goal":5,"start":3,"action_noise":0.15,"location_history":"[3,2,3,2,1,3,2,1,5]","action_history":"[0,1,0,1,0,0,0,0]","mutagen_history":"[0,1,0,1,0,0,0,0]","location_rts":"[1660,1677,773,820,627,632,665,971]","trial_type":"fractal-mutation","trial_index":67,"time_elapsed":1347964,"internal_node_id":"0.0-5.0-13.0"},{"group":"hexagon_tri","fractal_assignment":["../images/cyn_red.png","../images/org_blu.png","../images/blu_wht.png","../images/pnk_blu.png","../images/gry_blk.png","../images/ylw_slt.png"],"mutagen_generator_assignment":[0,1],"goal":4,"start":5,"action_noise":0.15,"location_history":"[5,0,5,4]","action_history":"[1,0,0]","mutagen_history":"[1,0,0]","location_rts":"[1353,721,687]","trial_type":"fractal-mutation","trial_index":68,"time_elapsed":1357617,"internal_node_id":"0.0-5.0-14.0"},{"group":"hexagon_tri","fractal_assignment":["../images/cyn_red.png","../images/org_blu.png","../images/blu_wht.png","../images/pnk_blu.png","../images/gry_blk.png","../images/ylw_slt.png"],"mutagen_generator_assignment":[0,1],"goal":0,"start":4,"action_noise":0.15,"location_history":"[4,2,3,4,2,1,3,4,2,1,5,4,2,1,5,4,0]","action_history":"[1,1,1,0,0,0,1,1,0,1,0,1,0,1,0,0]","mutagen_history":"[1,1,1,0,0,0,1,1,0,1,0,1,0,1,0,0]","location_rts":"[2116,1957,1764,994,606,1894,669,863,493,686,519,596,793,755,908,844]","trial_type":"fractal-mutation","trial_index":69,"time_elapsed":1395749,"internal_node_id":"0.0-5.0-15.0"},{"group":"hexagon_tri","fractal_assignment":["../images/cyn_red.png","../images/org_blu.png","../images/blu_wht.png","../images/pnk_blu.png","../images/gry_blk.png","../images/ylw_slt.png"],"mutagen_generator_assignment":[0,1],"goal":3,"start":0,"action_noise":0.15,"location_history":"[0,1,3]","action_history":"[1,0]","mutagen_history":"[1,0]","location_rts":"[16207,994]","trial_type":"fractal-mutation","trial_index":70,"time_elapsed":1418749,"internal_node_id":"0.0-5.0-16.0"},{"group":"hexagon_tri","fractal_assignment":["../images/cyn_red.png","../images/org_blu.png","../images/blu_wht.png","../images/pnk_blu.png","../images/gry_blk.png","../images/ylw_slt.png"],"mutagen_generator_assignment":[0,1],"goal":1,"start":3,"action_noise":0.15,"location_history":"[3,4,2,3,2,3,2,1]","action_history":"[1,1,1,0,1,0,0]","mutagen_history":"[1,1,1,0,1,0,0]","location_rts":"[2067,581,622,639,739,767,453]","trial_type":"fractal-mutation","trial_index":71,"time_elapsed":1436186,"internal_node_id":"0.0-5.0-17.0"},{"group":"hexagon_tri","fractal_assignment":["../images/cyn_red.png","../images/org_blu.png","../images/blu_wht.png","../images/pnk_blu.png","../images/gry_blk.png","../images/ylw_slt.png"],"mutagen_generator_assignment":[0,1],"goal":5,"start":1,"action_noise":0.15,"location_history":"[1,5]","action_history":"[1]","mutagen_history":"[1]","location_rts":"[1355]","trial_type":"fractal-mutation","trial_index":72,"time_elapsed":1442241,"internal_node_id":"0.0-5.0-18.0"},{"group":"hexagon_tri","fractal_assignment":["../images/cyn_red.png","../images/org_blu.png","../images/blu_wht.png","../images/pnk_blu.png","../images/gry_blk.png","../images/ylw_slt.png"],"mutagen_generator_assignment":[0,1],"goal":2,"start":5,"action_noise":0.15,"location_history":"[5,0,5,4,2]","action_history":"[1,0,0,1]","mutagen_history":"[1,0,0,1]","location_rts":"[1084,1177,891,1211]","trial_type":"fractal-mutation","trial_index":73,"time_elapsed":1454630,"internal_node_id":"0.0-5.0-19.0"},{"group":"hexagon_tri","fractal_assignment":["../images/cyn_red.png","../images/org_blu.png","../images/blu_wht.png","../images/pnk_blu.png","../images/gry_blk.png","../images/ylw_slt.png"],"mutagen_generator_assignment":[0,1],"goal":4,"start":2,"action_noise":0.15,"location_history":"[2,3,2,1,3,4]","action_history":"[1,0,0,0,1]","mutagen_history":"[1,0,0,0,1]","location_rts":"[1911,751,549,621,755]","trial_type":"fractal-mutation","trial_index":74,"time_elapsed":1468447,"internal_node_id":"0.0-5.0-20.0"},{"group":"hexagon_tri","fractal_assignment":["../images/cyn_red.png","../images/org_blu.png","../images/blu_wht.png","../images/pnk_blu.png","../images/gry_blk.png","../images/ylw_slt.png"],"mutagen_generator_assignment":[0,1],"goal":1,"start":4,"action_noise":0.15,"location_history":"[4,2,1]","action_history":"[1,0]","mutagen_history":"[1,0]","location_rts":"[1865,619]","trial_type":"fractal-mutation","trial_index":75,"time_elapsed":1476735,"internal_node_id":"0.0-5.0-21.0"},{"group":"hexagon_tri","fractal_assignment":["../images/cyn_red.png","../images/org_blu.png","../images/blu_wht.png","../images/pnk_blu.png","../images/gry_blk.png","../images/ylw_slt.png"],"mutagen_generator_assignment":[0,1],"goal":3,"start":1,"action_noise":0.15,"location_history":"[1,5,4,0,5,0,1,5,4,2,1,5,0,5,4,2,1,3]","action_history":"[1,0,0,0,1,1,0,0,0,0,1,1,0,0,1,0,0]","mutagen_history":"[1,0,0,0,1,1,0,0,0,0,1,1,0,0,1,0,0]","location_rts":"[2768,865,800,1402,879,919,747,627,762,834,751,641,860,911,927,1528,434]","trial_type":"fractal-mutation","trial_index":76,"time_elapsed":1516207,"internal_node_id":"0.0-5.0-22.0"},{"group":"hexagon_tri","fractal_assignment":["../images/cyn_red.png","../images/org_blu.png","../images/blu_wht.png","../images/pnk_blu.png","../images/gry_blk.png","../images/ylw_slt.png"],"mutagen_generator_assignment":[0,1],"goal":2,"start":3,"action_noise":0.15,"location_history":"[3,4,2]","action_history":"[0,1]","mutagen_history":"[0,1]","location_rts":"[3306,716]","trial_type":"fractal-mutation","trial_index":77,"time_elapsed":1526104,"internal_node_id":"0.0-5.0-23.0"},{"group":"hexagon_tri","fractal_assignment":["../images/cyn_red.png","../images/org_blu.png","../images/blu_wht.png","../images/pnk_blu.png","../images/gry_blk.png","../images/ylw_slt.png"],"mutagen_generator_assignment":[0,1],"goal":0,"start":2,"action_noise":0.15,"location_history":"[2,3,2,3,4,0]","action_history":"[1,0,1,1,1]","mutagen_history":"[1,0,1,1,1]","location_rts":"[1464,644,1177,659,713]","trial_type":"fractal-mutation","trial_index":78,"time_elapsed":1540050,"internal_node_id":"0.0-5.0-24.0"},{"group":"hexagon_tri","fractal_assignment":["../images/cyn_red.png","../images/org_blu.png","../images/blu_wht.png","../images/pnk_blu.png","../images/gry_blk.png","../images/ylw_slt.png"],"mutagen_generator_assignment":[0,1],"goal":5,"start":0,"action_noise":0.15,"location_history":"[0,1,5]","action_history":"[0,1]","mutagen_history":"[0,1]","location_rts":"[1545,587]","trial_type":"fractal-mutation","trial_index":79,"time_elapsed":1547997,"internal_node_id":"0.0-5.0-25.0"},{"group":"hexagon_tri","fractal_assignment":["../images/cyn_red.png","../images/org_blu.png","../images/blu_wht.png","../images/pnk_blu.png","../images/gry_blk.png","../images/ylw_slt.png"],"mutagen_generator_assignment":[0,1],"goal":2,"start":5,"action_noise":0.15,"location_history":"[5,4,2]","action_history":"[0,1]","mutagen_history":"[0,1]","location_rts":"[1435,689]","trial_type":"fractal-mutation","trial_index":80,"time_elapsed":1556030,"internal_node_id":"0.0-5.0-26.0"},{"group":"hexagon_tri","fractal_assignment":["../images/cyn_red.png","../images/org_blu.png","../images/blu_wht.png","../images/pnk_blu.png","../images/gry_blk.png","../images/ylw_slt.png"],"mutagen_generator_assignment":[0,1],"goal":3,"start":2,"action_noise":0.15,"location_history":"[2,3]","action_history":"[1]","mutagen_history":"[1]","location_rts":"[1999]","trial_type":"fractal-mutation","trial_index":81,"time_elapsed":1562699,"internal_node_id":"0.0-5.0-27.0"},{"group":"hexagon_tri","fractal_assignment":["../images/cyn_red.png","../images/org_blu.png","../images/blu_wht.png","../images/pnk_blu.png","../images/gry_blk.png","../images/ylw_slt.png"],"mutagen_generator_assignment":[0,1],"goal":0,"start":3,"action_noise":0.15,"location_history":"[3,4,2,3,4,0]","action_history":"[1,1,1,1,0]","mutagen_history":"[1,1,1,1,0]","location_rts":"[2541,605,436,515,668]","trial_type":"fractal-mutation","trial_index":82,"time_elapsed":1576843,"internal_node_id":"0.0-5.0-28.0"},{"group":"hexagon_tri","fractal_assignment":["../images/cyn_red.png","../images/org_blu.png","../images/blu_wht.png","../images/pnk_blu.png","../images/gry_blk.png","../images/ylw_slt.png"],"mutagen_generator_assignment":[0,1],"goal":1,"start":0,"action_noise":0.15,"location_history":"[0,1]","action_history":"[1]","mutagen_history":"[1]","location_rts":"[2181]","trial_type":"fractal-mutation","trial_index":83,"time_elapsed":1583704,"internal_node_id":"0.0-5.0-29.0"},{"group":"hexagon_tri","fractal_assignment":["../images/cyn_red.png","../images/org_blu.png","../images/blu_wht.png","../images/pnk_blu.png","../images/gry_blk.png","../images/ylw_slt.png"],"mutagen_generator_assignment":[0,1],"goal":4,"start":1,"action_noise":0.15,"location_history":"[1,5,0,5,0,5,4]","action_history":"[1,0,0,0,1,0]","mutagen_history":"[1,0,0,0,1,0]","location_rts":"[1303,994,804,827,592,702]","trial_type":"fractal-mutation","trial_index":84,"time_elapsed":1599272,"internal_node_id":"0.0-5.0-30.0"},{"group":"hexagon_tri","fractal_assignment":["../images/cyn_red.png","../images/org_blu.png","../images/blu_wht.png","../images/pnk_blu.png","../images/gry_blk.png","../images/ylw_slt.png"],"mutagen_generator_assignment":[0,1],"goal":5,"start":4,"action_noise":0.15,"location_history":"[4,2,1,5]","action_history":"[1,0,1]","mutagen_history":"[1,0,1]","location_rts":"[3347,1381,710]","trial_type":"fractal-mutation","trial_index":85,"time_elapsed":1611689,"internal_node_id":"0.0-5.0-31.0"},{"group":"hexagon_tri","fractal_assignment":["../images/cyn_red.png","../images/org_blu.png","../images/blu_wht.png","../images/pnk_blu.png","../images/gry_blk.png","../images/ylw_slt.png"],"mutagen_generator_assignment":[0,1],"goal":0,"start":5,"action_noise":0.15,"location_history":"[5,0]","action_history":"[1]","mutagen_history":"[1]","location_rts":"[676]","trial_type":"fractal-mutation","trial_index":86,"time_elapsed":1617045,"internal_node_id":"0.0-5.0-32.0"},{"group":"hexagon_tri","fractal_assignment":["../images/cyn_red.png","../images/org_blu.png","../images/blu_wht.png","../images/pnk_blu.png","../images/gry_blk.png","../images/ylw_slt.png"],"mutagen_generator_assignment":[0,1],"goal":3,"start":0,"action_noise":0.15,"location_history":"[0,1,3]","action_history":"[1,0]","mutagen_history":"[1,0]","location_rts":"[835,611]","trial_type":"fractal-mutation","trial_index":87,"time_elapsed":1624331,"internal_node_id":"0.0-5.0-33.0"},{"group":"hexagon_tri","fractal_assignment":["../images/cyn_red.png","../images/org_blu.png","../images/blu_wht.png","../images/pnk_blu.png","../images/gry_blk.png","../images/ylw_slt.png"],"mutagen_generator_assignment":[0,1],"goal":1,"start":3,"action_noise":0.15,"location_history":"[3,2,1]","action_history":"[1,0]","mutagen_history":"[1,0]","location_rts":"[1109,736]","trial_type":"fractal-mutation","trial_index":88,"time_elapsed":1631964,"internal_node_id":"0.0-5.0-34.0"},{"group":"hexagon_tri","fractal_assignment":["../images/cyn_red.png","../images/org_blu.png","../images/blu_wht.png","../images/pnk_blu.png","../images/gry_blk.png","../images/ylw_slt.png"],"mutagen_generator_assignment":[0,1],"goal":2,"start":1,"action_noise":0.15,"location_history":"[1,5,4,2]","action_history":"[1,0,1]","mutagen_history":"[1,0,1]","location_rts":"[1049,626,1018]","trial_type":"fractal-mutation","trial_index":89,"time_elapsed":1641607,"internal_node_id":"0.0-5.0-35.0"},{"group":"hexagon_tri","fractal_assignment":["../images/cyn_red.png","../images/org_blu.png","../images/blu_wht.png","../images/pnk_blu.png","../images/gry_blk.png","../images/ylw_slt.png"],"mutagen_generator_assignment":[0,1],"goal":4,"start":2,"action_noise":0.15,"location_history":"[2,3,2,3,2,1,5,0,5,4]","action_history":"[1,0,1,0,0,1,1,0,0]","mutagen_history":"[1,0,1,0,0,1,1,0,0]","location_rts":"[964,402,587,1207,448,939,567,775,530]","trial_type":"fractal-mutation","trial_index":90,"time_elapsed":1661749,"internal_node_id":"0.0-5.0-36.0"},{"group":"hexagon_tri","fractal_assignment":["../images/cyn_red.png","../images/org_blu.png","../images/blu_wht.png","../images/pnk_blu.png","../images/gry_blk.png","../images/ylw_slt.png"],"mutagen_generator_assignment":[0,1],"goal":5,"start":4,"action_noise":0.15,"location_history":"[4,2,3,4,0,5]","action_history":"[1,1,0,0,0]","mutagen_history":"[1,1,0,0,0]","location_rts":"[729,1137,686,494,447]","trial_type":"fractal-mutation","trial_index":91,"time_elapsed":1674288,"internal_node_id":"0.0-5.0-37.0"},{"group":"hexagon_tri","fractal_assignment":["../images/cyn_red.png","../images/org_blu.png","../images/blu_wht.png","../images/pnk_blu.png","../images/gry_blk.png","../images/ylw_slt.png"],"mutagen_generator_assignment":[0,1],"goal":1,"start":5,"action_noise":0.15,"location_history":"[5,0,5,0,1]","action_history":"[1,0,1,1]","mutagen_history":"[1,0,1,1]","location_rts":"[976,567,755,1322]","trial_type":"fractal-mutation","trial_index":92,"time_elapsed":1686044,"internal_node_id":"0.0-5.0-38.0"},{"group":"hexagon_tri","fractal_assignment":["../images/cyn_red.png","../images/org_blu.png","../images/blu_wht.png","../images/pnk_blu.png","../images/gry_blk.png","../images/ylw_slt.png"],"mutagen_generator_assignment":[0,1],"goal":4,"start":1,"action_noise":0.15,"location_history":"[1,3,2,1,3,4]","action_history":"[1,0,0,0,0]","mutagen_history":"[1,0,0,0,0]","location_rts":"[2345,483,465,527,734]","trial_type":"fractal-mutation","trial_index":93,"time_elapsed":1699806,"internal_node_id":"0.0-5.0-39.0"},{"group":"hexagon_tri","fractal_assignment":["../images/cyn_red.png","../images/org_blu.png","../images/blu_wht.png","../images/pnk_blu.png","../images/gry_blk.png","../images/ylw_slt.png"],"mutagen_generator_assignment":[0,1],"goal":3,"start":4,"action_noise":0.15,"location_history":"[4,2,1,3]","action_history":"[1,0,0]","mutagen_history":"[1,0,0]","location_rts":"[1871,572,584]","trial_type":"fractal-mutation","trial_index":94,"time_elapsed":1709742,"internal_node_id":"0.0-5.0-40.0"},{"group":"hexagon_tri","fractal_assignment":["../images/cyn_red.png","../images/org_blu.png","../images/blu_wht.png","../images/pnk_blu.png","../images/gry_blk.png","../images/ylw_slt.png"],"mutagen_generator_assignment":[0,1],"goal":2,"start":3,"action_noise":0.15,"location_history":"[3,4,0,1,3,2]","action_history":"[1,0,1,0,0]","mutagen_history":"[1,0,1,0,0]","location_rts":"[980,597,739,716,796]","trial_type":"fractal-mutation","trial_index":95,"time_elapsed":1722886,"internal_node_id":"0.0-5.0-41.0"},{"group":"hexagon_tri","fractal_assignment":["../images/cyn_red.png","../images/org_blu.png","../images/blu_wht.png","../images/pnk_blu.png","../images/gry_blk.png","../images/ylw_slt.png"],"mutagen_generator_assignment":[0,1],"goal":0,"start":2,"action_noise":0.15,"location_history":"[2,3,2,1,3,4,2,1,5,4,2,3,4,2,1,3,2,3,2,1,3,4,2,3,4,0]","action_history":"[1,0,0,0,0,1,0,1,0,1,1,1,1,0,0,0,1,0,0,0,1,1,1,1,1]","mutagen_history":"[1,0,0,0,0,1,0,1,0,1,1,1,1,0,0,0,1,0,0,0,1,1,1,1,1]","location_rts":"[632,580,479,696,475,907,781,987,751,656,533,463,543,487,601,576,1182,750,886,1866,943,550,428,470,513]","trial_type":"fractal-mutation","trial_index":96,"time_elapsed":1772985,"internal_node_id":"0.0-5.0-42.0"},{"group":"hexagon_tri","fractal_assignment":["../images/cyn_red.png","../images/org_blu.png","../images/blu_wht.png","../images/pnk_blu.png","../images/gry_blk.png","../images/ylw_slt.png"],"mutagen_generator_assignment":[0,1],"goal":5,"start":0,"action_noise":0.15,"location_history":"[0,5]","action_history":"[0]","mutagen_history":"[0]","location_rts":"[1324]","trial_type":"fractal-mutation","trial_index":97,"time_elapsed":1778930,"internal_node_id":"0.0-5.0-43.0"},{"group":"hexagon_tri","fractal_assignment":["../images/cyn_red.png","../images/org_blu.png","../images/blu_wht.png","../images/pnk_blu.png","../images/gry_blk.png","../images/ylw_slt.png"],"mutagen_generator_assignment":[0,1],"goal":0,"start":5,"action_noise":0.15,"location_history":"[5,0]","action_history":"[1]","mutagen_history":"[1]","location_rts":"[2864]","trial_type":"fractal-mutation","trial_index":98,"time_elapsed":1786492,"internal_node_id":"0.0-5.0-44.0"},{"group":"hexagon_tri","fractal_assignment":["../images/cyn_red.png","../images/org_blu.png","../images/blu_wht.png","../images/pnk_blu.png","../images/gry_blk.png","../images/ylw_slt.png"],"mutagen_generator_assignment":[0,1],"goal":2,"start":0,"action_noise":0.15,"location_history":"[0,5,4,2]","action_history":"[0,0,1]","mutagen_history":"[0,0,1]","location_rts":"[1928,718,628]","trial_type":"fractal-mutation","trial_index":99,"time_elapsed":1796735,"internal_node_id":"0.0-5.0-45.0"},{"group":"hexagon_tri","fractal_assignment":["../images/cyn_red.png","../images/org_blu.png","../images/blu_wht.png","../images/pnk_blu.png","../images/gry_blk.png","../images/ylw_slt.png"],"mutagen_generator_assignment":[0,1],"goal":4,"start":2,"action_noise":0.15,"location_history":"[2,1,5,4]","action_history":"[0,1,0]","mutagen_history":"[0,1,0]","location_rts":"[908,1836,542]","trial_type":"fractal-mutation","trial_index":100,"time_elapsed":1806931,"internal_node_id":"0.0-5.0-46.0"},{"group":"hexagon_tri","fractal_assignment":["../images/cyn_red.png","../images/org_blu.png","../images/blu_wht.png","../images/pnk_blu.png","../images/gry_blk.png","../images/ylw_slt.png"],"mutagen_generator_assignment":[0,1],"goal":1,"start":4,"action_noise":0.15,"location_history":"[4,0,5,4,2,3,4,0,5,4,0,5,0,5,0,1]","action_history":"[1,0,0,1,1,1,0,0,1,0,1,1,0,0,1]","mutagen_history":"[1,0,0,1,1,1,0,0,1,0,1,1,0,0,1]","location_rts":"[1060,844,533,557,602,703,674,1006,679,800,1173,559,815,668,1027]","trial_type":"fractal-mutation","trial_index":101,"time_elapsed":1839346,"internal_node_id":"0.0-5.0-47.0"},{"group":"hexagon_tri","fractal_assignment":["../images/cyn_red.png","../images/org_blu.png","../images/blu_wht.png","../images/pnk_blu.png","../images/gry_blk.png","../images/ylw_slt.png"],"mutagen_generator_assignment":[0,1],"goal":5,"start":1,"action_noise":0.15,"location_history":"[1,3,4,2,3,2,3,4,2,1,3,2,1,5]","action_history":"[0,1,1,0,0,1,1,1,0,0,0,0,1]","mutagen_history":"[0,1,1,0,0,1,1,1,0,0,0,0,1]","location_rts":"[1186,603,684,614,572,565,521,489,559,531,603,540,1059]","trial_type":"fractal-mutation","trial_index":102,"time_elapsed":1866152,"internal_node_id":"0.0-5.0-48.0"},{"group":"hexagon_tri","fractal_assignment":["../images/cyn_red.png","../images/org_blu.png","../images/blu_wht.png","../images/pnk_blu.png","../images/gry_blk.png","../images/ylw_slt.png"],"mutagen_generator_assignment":[0,1],"goal":3,"start":5,"action_noise":0.15,"location_history":"[5,4,2,1,3]","action_history":"[0,1,0,0]","mutagen_history":"[0,1,0,0]","location_rts":"[3198,736,792,1296]","trial_type":"fractal-mutation","trial_index":103,"time_elapsed":1880252,"internal_node_id":"0.0-5.0-49.0"},{"view_history":"[{\"page_index\":0,\"viewing_time\":17504}]","rt":17505,"trial_type":"instructions","trial_index":104,"time_elapsed":1898757,"internal_node_id":"0.0-6.0"},{"rt":14317,"responses":"{\"Q0\":\"Not today :)\"}","trial_type":"survey-text","trial_index":105,"time_elapsed":1914080,"internal_node_id":"0.0-7.0"}]