[{"view_history":"[{\"page_index\":0,\"viewing_time\":5612},{\"page_index\":1,\"viewing_time\":5474}]","rt":11086,"trial_type":"instructions","trial_index":0,"time_elapsed":11088,"internal_node_id":"0.0-0.0"},{"view_history":"[{\"page_index\":0,\"viewing_time\":5017},{\"page_index\":1,\"viewing_time\":8568}]","rt":13585,"trial_type":"instructions","trial_index":1,"time_elapsed":25674,"internal_node_id":"0.0-1.0"},{"group":"hexagon_bi","room_assignment":["green","red","yellow","blue","grey","purple"],"door_color_assignment":["white","black"],"door_generator_assignment":[0,1],"goal":3,"start":5,"action_noise":0.15,"location_history":"[5,0,1,2,1,0,1,2,1,0,1,2,3]","action_history":"[0,0,1,0,1,1,0,1,0,1,1,1]","door_history":"[0,0,1,0,1,1,0,1,0,1,1,1]","location_rts":"[1805,473,647,796,1146,330,1515,730,1719,840,435,627]","trial_type":"two-door-navigation","trial_index":2,"time_elapsed":52584,"internal_node_id":"0.0-2.0-0.0"},{"group":"hexagon_bi","room_assignment":["green","red","yellow","blue","grey","purple"],"door_color_assignment":["white","black"],"door_generator_assignment":[0,1],"goal":1,"start":3,"action_noise":0.15,"location_history":"[3,4,5,4,3,2,1]","action_history":"[0,0,1,0,1,0]","door_history":"[0,0,1,0,1,0]","location_rts":"[1243,1048,612,917,1146,931]","trial_type":"two-door-navigation","trial_index":3,"time_elapsed":68139,"internal_node_id":"0.0-2.0-1.0"},{"group":"hexagon_bi","room_assignment":["green","red","yellow","blue","grey","purple"],"door_color_assignment":["white","black"],"door_generator_assignment":[0,1],"goal":0,"start":1,"action_noise":0.15,"location_history":"[1,2,3,4,3,4,5,4,5,0]","action_history":"[1,1,0,0,0,1,1,1,0]","door_history":"[1,1,0,0,0,1,1,1,0]","location_rts":"[1885,1029,1032,303,429,1003,933,2272,434]","trial_type":"two-door-navigation","trial_index":4,"time_elapsed":90256,"internal_node_id":"0.0-2.0-2.0"},{"group":"hexagon_bi","room_assignment":["green","red","yellow","blue","grey","purple"],"door_color_assignment":["white","black"],"door_generator_assignment":[0,1],"goal":3,"start":0,"action_noise":0.15,"location_history":"[0,5,4,5,0,1,2,3]","action_history":"[0,1,0,1,1,0,1]","door_history":"[0,1,0,1,1,0,1]","location_rts":"[2628,647,1616,696,391,1141,669]","trial_type":"two-door-navigation","trial_index":5,"time_elapsed":109673,"internal_node_id":"0.0-2.0-3.0"},{"group":"hexagon_bi","room_assignment":["green","red","yellow","blue","grey","purple"],"door_color_assignment":["white","black"],"door_generator_assignment":[0,1],"goal":4,"start":3,"action_noise":0.15,"location_history":"[3,4]","action_history":"[0]","door_history":"[0]","location_rts":"[4630]","trial_type":"two-door-navigation","trial_index":6,"time_elapsed":118837,"internal_node_id":"0.0-2.0-4.0"},{"group":"hexagon_bi","room_assignment":["green","red","yellow","blue","grey","purple"],"door_color_assignment":["white","black"],"door_generator_assignment":[0,1],"goal":2,"start":4,"action_noise":0.15,"location_history":"[4,5,4,3,4,5,4,5,4,3,4,5,4,3,4,3,4,5,0,1,0,5,4,5,0,1,2]","action_history":"[1,1,0,1,0,1,1,1,0,0,0,1,1,1,0,0,1,1,1,1,1,1,1,0,0,0]","door_history":"[1,1,0,1,0,1,1,1,0,0,0,1,1,1,0,0,1,1,1,1,1,1,1,0,0,0]","location_rts":"[1259,1569,1238,1884,756,1291,569,666,602,822,1850,611,366,560,1739,2086,972,541,413,395,394,562,398,915,402,629]","trial_type":"two-door-navigation","trial_index":7,"time_elapsed":172518,"internal_node_id":"0.0-2.0-5.0"},{"group":"hexagon_bi","room_assignment":["green","red","yellow","blue","grey","purple"],"door_color_assignment":["white","black"],"door_generator_assignment":[0,1],"goal":1,"start":2,"action_noise":0.15,"location_history":"[2,3,2,1]","action_history":"[1,0,0]","door_history":"[1,0,0]","location_rts":"[1821,694,944]","trial_type":"two-door-navigation","trial_index":8,"time_elapsed":182556,"internal_node_id":"0.0-2.0-6.0"},{"group":"hexagon_bi","room_assignment":["green","red","yellow","blue","grey","purple"],"door_color_assignment":["white","black"],"door_generator_assignment":[0,1],"goal":5,"start":1,"action_noise":0.15,"location_history":"[1,0,1,0,1,0,1,0,1,0,1,2,3,4,5]","action_history":"[1,1,1,0,1,1,1,1,1,0,0,1,0,1]","door_history":"[1,1,1,0,1,1,1,1,1,0,0,1,0,1]","location_rts":"[999,577,839,401,854,414,352,375,509,566,770,2037,481,629]","trial_type":"two-door-navigation","trial_index":9,"time_elapsed":210274,"internal_node_id":"0.0-2.0-7.0"},{"group":"hexagon_bi","room_assignment":["green","red","yellow","blue","grey","purple"],"door_color_assignment":["white","black"],"door_generator_assignment":[0,1],"goal":4,"start":5,"action_noise":0.15,"location_history":"[5,0,1,0,1,0,5,4]","action_history":"[0,1,1,1,1,0,0]","door_history":"[0,1,1,1,1,0,0]","location_rts":"[1554,898,465,352,353,292,725]","trial_type":"two-door-navigation","trial_index":10,"time_elapsed":225624,"internal_node_id":"0.0-2.0-8.0"},{"group":"hexagon_bi","room_assignment":["green","red","yellow","blue","grey","purple"],"door_color_assignment":["white","black"],"door_generator_assignment":[0,1],"goal":2,"start":4,"action_noise":0.15,"location_history":"[4,5,4,5,0,1,2]","action_history":"[1,1,1,0,1,0]","door_history":"[1,1,1,0,1,0]","location_rts":"[1991,594,444,337,2108,708]","trial_type":"two-door-navigation","trial_index":11,"time_elapsed":241467,"internal_node_id":"0.0-2.0-9.0"},{"group":"hexagon_bi","room_assignment":["green","red","yellow","blue","grey","purple"],"door_color_assignment":["white","black"],"door_generator_assignment":[0,1],"goal":0,"start":2,"action_noise":0.15,"location_history":"[2,3,4,3,4,3,2,3,2,1,2,1,2,3,2,3,2,3,2,3,4,5,0]","action_history":"[1,0,1,0,0,1,1,1,0,1,0,0,1,1,1,1,1,1,1,0,1,0]","door_history":"[1,0,1,0,0,1,1,1,0,1,0,0,1,1,1,1,1,1,1,0,1,0]","location_rts":"[1471,1381,807,1680,1274,825,883,893,1410,930,884,491,873,387,299,359,393,348,518,559,705,1156]","trial_type":"two-door-navigation","trial_index":12,"time_elapsed":286077,"internal_node_id":"0.0-2.0-10.0"},{"group":"hexagon_bi","room_assignment":["green","red","yellow","blue","grey","purple"],"door_color_assignment":["white","black"],"door_generator_assignment":[0,1],"goal":1,"start":0,"action_noise":0.15,"location_history":"[0,1]","action_history":"[1]","door_history":"[1]","location_rts":"[1366]","trial_type":"two-door-navigation","trial_index":13,"time_elapsed":291992,"internal_node_id":"0.0-2.0-11.0"},{"group":"hexagon_bi","room_assignment":["green","red","yellow","blue","grey","purple"],"door_color_assignment":["white","black"],"door_generator_assignment":[0,1],"goal":3,"start":1,"action_noise":0.15,"location_history":"[1,2,3]","action_history":"[0,1]","door_history":"[0,1]","location_rts":"[1015,916]","trial_type":"two-door-navigation","trial_index":14,"time_elapsed":299483,"internal_node_id":"0.0-2.0-12.0"},{"group":"hexagon_bi","room_assignment":["green","red","yellow","blue","grey","purple"],"door_color_assignment":["white","black"],"door_generator_assignment":[0,1],"goal":5,"start":3,"action_noise":0.15,"location_history":"[3,4,5]","action_history":"[0,1]","door_history":"[0,1]","location_rts":"[2708,641]","trial_type":"two-door-navigation","trial_index":15,"time_elapsed":308399,"internal_node_id":"0.0-2.0-13.0"},{"group":"hexagon_bi","room_assignment":["green","red","yellow","blue","grey","purple"],"door_color_assignment":["white","black"],"door_generator_assignment":[0,1],"goal":4,"start":5,"action_noise":0.15,"location_history":"[5,0,1,0,1,2,3,4]","action_history":"[0,1,1,1,0,1,0]","door_history":"[0,1,1,1,0,1,0]","location_rts":"[1516,991,661,396,497,950,424]","trial_type":"two-door-navigation","trial_index":16,"time_elapsed":324505,"internal_node_id":"0.0-2.0-14.0"},{"group":"hexagon_bi","room_assignment":["green","red","yellow","blue","grey","purple"],"door_color_assignment":["white","black"],"door_generator_assignment":[0,1],"goal":0,"start":4,"action_noise":0.15,"location_history":"[4,5,0]","action_history":"[1,1]","door_history":"[1,1]","location_rts":"[1924,412]","trial_type":"two-door-navigation","trial_index":17,"time_elapsed":332399,"internal_node_id":"0.0-2.0-15.0"},{"group":"hexagon_bi","room_assignment":["green","red","yellow","blue","grey","purple"],"door_color_assignment":["white","black"],"door_generator_assignment":[0,1],"goal":3,"start":0,"action_noise":0.15,"location_history":"[0,5,0,1,0,5,4,3]","action_history":"[0,0,0,1,0,0,0]","door_history":"[0,0,0,1,0,0,0]","location_rts":"[1110,853,1603,353,768,555,957]","trial_type":"two-door-navigation","trial_index":18,"time_elapsed":349282,"internal_node_id":"0.0-2.0-16.0"},{"group":"hexagon_bi","room_assignment":["green","red","yellow","blue","grey","purple"],"door_color_assignment":["white","black"],"door_generator_assignment":[0,1],"goal":1,"start":3,"action_noise":0.15,"location_history":"[3,2,1]","action_history":"[1,0]","door_history":"[1,0]","location_rts":"[1884,902]","trial_type":"two-door-navigation","trial_index":19,"time_elapsed":357614,"internal_node_id":"0.0-2.0-17.0"},{"group":"hexagon_bi","room_assignment":["green","red","yellow","blue","grey","purple"],"door_color_assignment":["white","black"],"door_generator_assignment":[0,1],"goal":5,"start":1,"action_noise":0.15,"location_history":"[1,2,1,0,1,0,5]","action_history":"[0,1,1,1,1,0]","door_history":"[0,1,1,1,1,0]","location_rts":"[1102,396,1421,622,1083,360]","trial_type":"two-door-navigation","trial_index":20,"time_elapsed":372237,"internal_node_id":"0.0-2.0-18.0"},{"group":"hexagon_bi","room_assignment":["green","red","yellow","blue","grey","purple"],"door_color_assignment":["white","black"],"door_generator_assignment":[0,1],"goal":2,"start":5,"action_noise":0.15,"location_history":"[5,0,1,2]","action_history":"[0,1,0]","door_history":"[0,1,0]","location_rts":"[1664,925,1141]","trial_type":"two-door-navigation","trial_index":21,"time_elapsed":382547,"internal_node_id":"0.0-2.0-19.0"},{"group":"hexagon_bi","room_assignment":["green","red","yellow","blue","grey","purple"],"door_color_assignment":["white","black"],"door_generator_assignment":[0,1],"goal":4,"start":2,"action_noise":0.15,"location_history":"[2,3,2,3,4]","action_history":"[1,1,1,0]","door_history":"[1,1,1,0]","location_rts":"[1476,1549,684,73]","trial_type":"two-door-navigation","trial_index":22,"time_elapsed":393936,"internal_node_id":"0.0-2.0-20.0"},{"group":"hexagon_bi","room_assignment":["green","red","yellow","blue","grey","purple"],"door_color_assignment":["white","black"],"door_generator_assignment":[0,1],"goal":1,"start":4,"action_noise":0.15,"location_history":"[4,5,0,5,4,5,0,5,4,3,4,5,4,3,2,1]","action_history":"[1,0,0,1,1,1,0,1,1,0,1,1,0,1,1]","door_history":"[1,0,0,1,1,1,0,1,1,0,1,1,0,1,1]","location_rts":"[1893,772,1223,908,1395,718,276,697,1269,2001,2414,1052,1531,658,957]","trial_type":"two-door-navigation","trial_index":23,"time_elapsed":430597,"internal_node_id":"0.0-2.0-21.0"},{"group":"hexagon_bi","room_assignment":["green","red","yellow","blue","grey","purple"],"door_color_assignment":["white","black"],"door_generator_assignment":[0,1],"goal":3,"start":1,"action_noise":0.15,"location_history":"[1,2,1,2,3]","action_history":"[0,0,0,1]","door_history":"[0,0,0,1]","location_rts":"[1442,552,1103,305]","trial_type":"two-door-navigation","trial_index":24,"time_elapsed":441597,"internal_node_id":"0.0-2.0-22.0"},{"group":"hexagon_bi","room_assignment":["green","red","yellow","blue","grey","purple"],"door_color_assignment":["white","black"],"door_generator_assignment":[0,1],"goal":2,"start":3,"action_noise":0.15,"location_history":"[3,2]","action_history":"[0]","door_history":"[0]","location_rts":"[1160]","trial_type":"two-door-navigation","trial_index":25,"time_elapsed":447280,"internal_node_id":"0.0-2.0-23.0"},{"group":"hexagon_bi","room_assignment":["green","red","yellow","blue","grey","purple"],"door_color_assignment":["white","black"],"door_generator_assignment":[0,1],"goal":0,"start":2,"action_noise":0.15,"location_history":"[2,3,2,1,0]","action_history":"[1,1,0,1]","door_history":"[1,1,0,1]","location_rts":"[2388,882,1190,988]","trial_type":"two-door-navigation","trial_index":26,"time_elapsed":460341,"internal_node_id":"0.0-2.0-24.0"},{"group":"hexagon_bi","room_assignment":["green","red","yellow","blue","grey","purple"],"door_color_assignment":["white","black"],"door_generator_assignment":[0,1],"goal":5,"start":0,"action_noise":0.15,"location_history":"[0,1,0,5]","action_history":"[1,1,0]","door_history":"[1,1,0]","location_rts":"[2079,1351,387]","trial_type":"two-door-navigation","trial_index":27,"time_elapsed":470742,"internal_node_id":"0.0-2.0-25.0"},{"group":"hexagon_bi","room_assignment":["green","red","yellow","blue","grey","purple"],"door_color_assignment":["white","black"],"door_generator_assignment":[0,1],"goal":2,"start":5,"action_noise":0.15,"location_history":"[5,0,1,0,1,0,5,4,5,4,3,4,3,2]","action_history":"[0,1,0,1,1,0,1,1,1,0,0,0,1]","door_history":"[0,1,0,1,1,0,1,1,1,0,0,0,1]","location_rts":"[2977,1231,1017,1724,330,1745,782,520,435,284,904,1510,299]","trial_type":"two-door-navigation","trial_index":28,"time_elapsed":501331,"internal_node_id":"0.0-2.0-26.0"},{"group":"hexagon_bi","room_assignment":["green","red","yellow","blue","grey","purple"],"door_color_assignment":["white","black"],"door_generator_assignment":[0,1],"goal":3,"start":2,"action_noise":0.15,"location_history":"[2,3]","action_history":"[1]","door_history":"[1]","location_rts":"[1723]","trial_type":"two-door-navigation","trial_index":29,"time_elapsed":507594,"internal_node_id":"0.0-2.0-27.0"},{"group":"hexagon_bi","room_assignment":["green","red","yellow","blue","grey","purple"],"door_color_assignment":["white","black"],"door_generator_assignment":[0,1],"goal":0,"start":3,"action_noise":0.15,"location_history":"[3,2,3,4,3,2,1,0]","action_history":"[0,1,0,0,0,1,1]","door_history":"[0,1,0,0,0,1,1]","location_rts":"[1902,604,445,404,1027,283,1623]","trial_type":"two-door-navigation","trial_index":30,"time_elapsed":524558,"internal_node_id":"0.0-2.0-28.0"},{"group":"hexagon_bi","room_assignment":["green","red","yellow","blue","grey","purple"],"door_color_assignment":["white","black"],"door_generator_assignment":[0,1],"goal":1,"start":0,"action_noise":0.15,"location_history":"[0,5,4,5,4,5,0,1]","action_history":"[0,1,1,1,1,0,1]","door_history":"[0,1,1,1,1,0,1]","location_rts":"[1136,1326,459,382,725,391,709]","trial_type":"two-door-navigation","trial_index":31,"time_elapsed":540359,"internal_node_id":"0.0-2.0-29.0"},{"group":"hexagon_bi","room_assignment":["green","red","yellow","blue","grey","purple"],"door_color_assignment":["white","black"],"door_generator_assignment":[0,1],"goal":4,"start":1,"action_noise":0.15,"location_history":"[1,0,1,2,1,2,3,4]","action_history":"[1,1,0,0,0,1,0]","door_history":"[1,1,0,0,0,1,0]","location_rts":"[2188,17486,1027,762,630,583,306]","trial_type":"two-door-navigation","trial_index":32,"time_elapsed":574675,"internal_node_id":"0.0-2.0-30.0"},{"group":"hexagon_bi","room_assignment":["green","red","yellow","blue","grey","purple"],"door_color_assignment":["white","black"],"door_generator_assignment":[0,1],"goal":5,"start":4,"action_noise":0.15,"location_history":"[4,5]","action_history":"[1]","door_history":"[1]","location_rts":"[12297]","trial_type":"two-door-navigation","trial_index":33,"time_elapsed":592498,"internal_node_id":"0.0-2.0-31.0"},{"group":"hexagon_bi","room_assignment":["green","red","yellow","blue","grey","purple"],"door_color_assignment":["white","black"],"door_generator_assignment":[0,1],"goal":0,"start":5,"action_noise":0.15,"location_history":"[5,0]","action_history":"[0]","door_history":"[0]","location_rts":"[1434]","trial_type":"two-door-navigation","trial_index":34,"time_elapsed":598464,"internal_node_id":"0.0-2.0-32.0"},{"group":"hexagon_bi","room_assignment":["green","red","yellow","blue","grey","purple"],"door_color_assignment":["white","black"],"door_generator_assignment":[0,1],"goal":3,"start":0,"action_noise":0.15,"location_history":"[0,5,4,3]","action_history":"[0,1,0]","door_history":"[0,1,0]","location_rts":"[2204,758,1648]","trial_type":"two-door-navigation","trial_index":35,"time_elapsed":609652,"internal_node_id":"0.0-2.0-33.0"},{"group":"hexagon_bi","room_assignment":["green","red","yellow","blue","grey","purple"],"door_color_assignment":["white","black"],"door_generator_assignment":[0,1],"goal":1,"start":3,"action_noise":0.15,"location_history":"[3,4,3,4,5,4,5,4,3,4,3,4,5,0,5,0,5,0,1]","action_history":"[1,0,1,1,0,1,1,0,0,0,1,0,0,0,0,0,1,1]","door_history":"[1,0,1,1,0,1,1,0,0,0,1,0,0,0,0,0,1,1]","location_rts":"[3303,1350,1169,386,838,1340,542,1182,842,1109,305,974,686,504,404,434,679,1138]","trial_type":"two-door-navigation","trial_index":36,"time_elapsed":648768,"internal_node_id":"0.0-2.0-34.0"},{"group":"hexagon_bi","room_assignment":["green","red","yellow","blue","grey","purple"],"door_color_assignment":["white","black"],"door_generator_assignment":[0,1],"goal":2,"start":1,"action_noise":0.15,"location_history":"[1,2]","action_history":"[0]","door_history":"[0]","location_rts":"[1614]","trial_type":"two-door-navigation","trial_index":37,"time_elapsed":654911,"internal_node_id":"0.0-2.0-35.0"},{"group":"hexagon_bi","room_assignment":["green","red","yellow","blue","grey","purple"],"door_color_assignment":["white","black"],"door_generator_assignment":[0,1],"goal":4,"start":2,"action_noise":0.15,"location_history":"[2,3,2,3,4]","action_history":"[1,1,1,0]","door_history":"[1,1,1,0]","location_rts":"[989,1836,673,253]","trial_type":"two-door-navigation","trial_index":38,"time_elapsed":666345,"internal_node_id":"0.0-2.0-36.0"},{"group":"hexagon_bi","room_assignment":["green","red","yellow","blue","grey","purple"],"door_color_assignment":["white","black"],"door_generator_assignment":[0,1],"goal":5,"start":4,"action_noise":0.15,"location_history":"[4,5]","action_history":"[1]","door_history":"[1]","location_rts":"[1571]","trial_type":"two-door-navigation","trial_index":39,"time_elapsed":672445,"internal_node_id":"0.0-2.0-37.0"},{"group":"hexagon_bi","room_assignment":["green","red","yellow","blue","grey","purple"],"door_color_assignment":["white","black"],"door_generator_assignment":[0,1],"goal":1,"start":5,"action_noise":0.15,"location_history":"[5,0,5,0,1]","action_history":"[0,0,0,1]","door_history":"[0,0,0,1]","location_rts":"[1376,564,479,313]","trial_type":"two-door-navigation","trial_index":40,"time_elapsed":682781,"internal_node_id":"0.0-2.0-38.0"},{"group":"hexagon_bi","room_assignment":["green","red","yellow","blue","grey","purple"],"door_color_assignment":["white","black"],"door_generator_assignment":[0,1],"goal":4,"start":1,"action_noise":0.15,"location_history":"[1,2,1,0,5,0,1,2,3,4]","action_history":"[0,0,1,0,0,1,0,1,0]","door_history":"[0,0,1,0,0,1,0,1,0]","location_rts":"[1125,2239,642,1237,1575,687,651,632,594]","trial_type":"two-door-navigation","trial_index":41,"time_elapsed":704876,"internal_node_id":"0.0-2.0-39.0"},{"group":"hexagon_bi","room_assignment":["green","red","yellow","blue","grey","purple"],"door_color_assignment":["white","black"],"door_generator_assignment":[0,1],"goal":3,"start":4,"action_noise":0.15,"location_history":"[4,3]","action_history":"[1]","door_history":"[1]","location_rts":"[1472]","trial_type":"two-door-navigation","trial_index":42,"time_elapsed":710935,"internal_node_id":"0.0-2.0-40.0"},{"group":"hexagon_bi","room_assignment":["green","red","yellow","blue","grey","purple"],"door_color_assignment":["white","black"],"door_generator_assignment":[0,1],"goal":2,"start":3,"action_noise":0.15,"location_history":"[3,4,5,0,5,0,1,2]","action_history":"[0,1,0,0,0,1,0]","door_history":"[0,1,0,0,0,1,0]","location_rts":"[2417,1667,924,630,738,939,1366]","trial_type":"two-door-navigation","trial_index":43,"time_elapsed":730313,"internal_node_id":"0.0-2.0-41.0"},{"group":"hexagon_bi","room_assignment":["green","red","yellow","blue","grey","purple"],"door_color_assignment":["white","black"],"door_generator_assignment":[0,1],"goal":0,"start":2,"action_noise":0.15,"location_history":"[2,3,2,3,4,5,0]","action_history":"[1,1,1,0,1,0]","door_history":"[1,1,1,0,1,0]","location_rts":"[1161,839,372,303,723,1045]","trial_type":"two-door-navigation","trial_index":44,"time_elapsed":744425,"internal_node_id":"0.0-2.0-42.0"},{"group":"hexagon_bi","room_assignment":["green","red","yellow","blue","grey","purple"],"door_color_assignment":["white","black"],"door_generator_assignment":[0,1],"goal":5,"start":0,"action_noise":0.15,"location_history":"[0,1,2,3,2,3,2,3,4,5]","action_history":"[1,0,1,1,1,0,1,0,1]","door_history":"[1,0,1,1,1,0,1,0,1]","location_rts":"[8568,729,779,629,443,271,1127,1129,960]","trial_type":"two-door-navigation","trial_index":45,"time_elapsed":772076,"internal_node_id":"0.0-2.0-43.0"},{"group":"hexagon_bi","room_assignment":["green","red","yellow","blue","grey","purple"],"door_color_assignment":["white","black"],"door_generator_assignment":[0,1],"goal":0,"start":5,"action_noise":0.15,"location_history":"[5,0]","action_history":"[0]","door_history":"[0]","location_rts":"[1118]","trial_type":"two-door-navigation","trial_index":46,"time_elapsed":777734,"internal_node_id":"0.0-2.0-44.0"},{"group":"hexagon_bi","room_assignment":["green","red","yellow","blue","grey","purple"],"door_color_assignment":["white","black"],"door_generator_assignment":[0,1],"goal":2,"start":0,"action_noise":0.15,"location_history":"[0,1,2]","action_history":"[1,0]","door_history":"[1,0]","location_rts":"[1080,1101]","trial_type":"two-door-navigation","trial_index":47,"time_elapsed":785464,"internal_node_id":"0.0-2.0-45.0"},{"group":"hexagon_bi","room_assignment":["green","red","yellow","blue","grey","purple"],"door_color_assignment":["white","black"],"door_generator_assignment":[0,1],"goal":4,"start":2,"action_noise":0.15,"location_history":"[2,3,2,3,2,3,4]","action_history":"[1,1,1,0,1,0]","door_history":"[1,1,1,0,1,0]","location_rts":"[1390,1309,910,365,828,1147]","trial_type":"two-door-navigation","trial_index":48,"time_elapsed":801084,"internal_node_id":"0.0-2.0-46.0"},{"group":"hexagon_bi","room_assignment":["green","red","yellow","blue","grey","purple"],"door_color_assignment":["white","black"],"door_generator_assignment":[0,1],"goal":1,"start":4,"action_noise":0.15,"location_history":"[4,5,0,5,4,5,4,5,0,5,4,5,4,5,0,1]","action_history":"[1,0,1,0,0,1,1,0,0,1,1,1,1,1,1]","door_history":"[1,0,1,0,0,1,1,0,0,1,1,1,1,1,1]","location_rts":"[1029,1121,842,1115,522,1012,718,957,1242,1666,781,533,381,381,625]","trial_type":"two-door-navigation","trial_index":49,"time_elapsed":832937,"internal_node_id":"0.0-2.0-47.0"},{"group":"hexagon_bi","room_assignment":["green","red","yellow","blue","grey","purple"],"door_color_assignment":["white","black"],"door_generator_assignment":[0,1],"goal":5,"start":1,"action_noise":0.15,"location_history":"[1,0,1,0,1,0,1,0,1,2,3,4,5]","action_history":"[1,1,1,1,1,1,1,1,0,1,0,1]","door_history":"[1,1,1,1,1,1,1,1,0,1,0,1]","location_rts":"[920,270,248,204,270,220,286,227,199,468,355,439]","trial_type":"two-door-navigation","trial_index":50,"time_elapsed":853673,"internal_node_id":"0.0-2.0-48.0"},{"group":"hexagon_bi","room_assignment":["green","red","yellow","blue","grey","purple"],"door_color_assignment":["white","black"],"door_generator_assignment":[0,1],"goal":3,"start":5,"action_noise":0.15,"location_history":"[5,0,5,4,5,4,5,4,5,4,3]","action_history":"[1,0,1,0,1,1,1,1,1,0]","door_history":"[1,0,1,0,1,1,1,1,1,0]","location_rts":"[7775,3751,1007,1524,962,319,864,386,342,499]","trial_type":"two-door-navigation","trial_index":51,"time_elapsed":885828,"internal_node_id":"0.0-2.0-49.0"},{"view_history":"[{\"page_index\":0,\"viewing_time\":2443}]","rt":2443,"trial_type":"instructions","trial_index":52,"time_elapsed":889271,"internal_node_id":"0.0-3.0"},{"view_history":"[{\"page_index\":0,\"viewing_time\":2042},{\"page_index\":1,\"viewing_time\":4296}]","rt":6338,"trial_type":"instructions","trial_index":53,"time_elapsed":896610,"internal_node_id":"0.0-4.0"},{"group":"hexagon_bi","fractal_assignment":["../images/cyn_red.png","../images/ylw_slt.png","../images/org_blu.png","../images/pnk_blu.png","../images/blu_wht.png","../images/gry_blk.png"],"mutagen_generator_assignment":[0,1],"goal":3,"start":5,"action_noise":0.15,"location_history":"[5,0,5,0,1,0,1,0,5,0,5,4,5,0,5,0,1,2,1,2,1,2,3]","action_history":"[1,0,0,1,0,1,1,0,1,0,1,1,0,0,1,1,0,1,0,0,0,1]","mutagen_history":"[1,0,0,1,0,1,1,0,1,0,1,1,0,0,1,1,0,1,0,0,0,1]","location_rts":"[5121,742,768,1045,1650,1422,507,1115,947,1158,1113,2872,952,1758,836,582,1014,779,1799,726,950,479]","trial_type":"fractal-mutation","trial_index":54,"time_elapsed":951279,"internal_node_id":"0.0-5.0-0.0"},{"group":"hexagon_bi","fractal_assignment":["../images/cyn_red.png","../images/ylw_slt.png","../images/org_blu.png","../images/pnk_blu.png","../images/blu_wht.png","../images/gry_blk.png"],"mutagen_generator_assignment":[0,1],"goal":1,"start":3,"action_noise":0.15,"location_history":"[3,2,1]","action_history":"[1,0]","mutagen_history":"[1,0]","location_rts":"[2194,681]","trial_type":"fractal-mutation","trial_index":55,"time_elapsed":959778,"internal_node_id":"0.0-5.0-1.0"},{"group":"hexagon_bi","fractal_assignment":["../images/cyn_red.png","../images/ylw_slt.png","../images/org_blu.png","../images/pnk_blu.png","../images/blu_wht.png","../images/gry_blk.png"],"mutagen_generator_assignment":[0,1],"goal":0,"start":1,"action_noise":0.15,"location_history":"[1,0]","action_history":"[1]","mutagen_history":"[1]","location_rts":"[583]","trial_type":"fractal-mutation","trial_index":56,"time_elapsed":964900,"internal_node_id":"0.0-5.0-2.0"},{"group":"hexagon_bi","fractal_assignment":["../images/cyn_red.png","../images/ylw_slt.png","../images/org_blu.png","../images/pnk_blu.png","../images/blu_wht.png","../images/gry_blk.png"],"mutagen_generator_assignment":[0,1],"goal":3,"start":0,"action_noise":0.15,"location_history":"[0,1,0,5,0,1,0,1,2,3]","action_history":"[0,1,1,1,1,1,1,0,1]","mutagen_history":"[0,1,1,1,1,1,1,0,1]","location_rts":"[1464,608,908,724,473,1071,849,400,725]","trial_type":"fractal-mutation","trial_index":57,"time_elapsed":984975,"internal_node_id":"0.0-5.0-3.0"},{"group":"hexagon_bi","fractal_assignment":["../images/cyn_red.png","../images/ylw_slt.png","../images/org_blu.png","../images/pnk_blu.png","../images/blu_wht.png","../images/gry_blk.png"],"mutagen_generator_assignment":[0,1],"goal":4,"start":3,"action_noise":0.15,"location_history":"[3,4]","action_history":"[0]","mutagen_history":"[0]","location_rts":"[1220]","trial_type":"fractal-mutation","trial_index":58,"time_elapsed":990726,"internal_node_id":"0.0-5.0-4.0"},{"group":"hexagon_bi","fractal_assignment":["../images/cyn_red.png","../images/ylw_slt.png","../images/org_blu.png","../images/pnk_blu.png","../images/blu_wht.png","../images/gry_blk.png"],"mutagen_generator_assignment":[0,1],"goal":2,"start":4,"action_noise":0.15,"location_history":"[4,5,0,5,4,3,2]","action_history":"[1,0,1,1,1,1]","mutagen_history":"[1,0,1,1,1,1]","location_rts":"[930,1128,914,716,696,626]","trial_type":"fractal-mutation","trial_index":59,"time_elapsed":1005535,"internal_node_id":"0.0-5.0-5.0"},{"group":"hexagon_bi","fractal_assignment":["../images/cyn_red.png","../images/ylw_slt.png","../images/org_blu.png","../images/pnk_blu.png","../images/blu_wht.png","../images/gry_blk.png"],"mutagen_generator_assignment":[0,1],"goal":1,"start":2,"action_noise":0.15,"location_history":"[2,3,2,3,2,1]","action_history":"[0,1,1,1,0]","mutagen_history":"[0,1,1,1,0]","location_rts":"[1490,827,996,766,589]","trial_type":"fractal-mutation","trial_index":60,"time_elapsed":1018881,"internal_node_id":"0.0-5.0-6.0"},{"group":"hexagon_bi","fractal_assignment":["../images/cyn_red.png","../images/ylw_slt.png","../images/org_blu.png","../images/pnk_blu.png","../images/blu_wht.png","../images/gry_blk.png"],"mutagen_generator_assignment":[0,1],"goal":5,"start":1,"action_noise":0.15,"location_history":"[1,2,3,2,1,0,5]","action_history":"[0,1,1,0,1,0]","mutagen_history":"[0,1,1,0,1,0]","location_rts":"[1448,661,794,535,1088,1118]","trial_type":"fractal-mutation","trial_index":61,"time_elapsed":1034252,"internal_node_id":"0.0-5.0-7.0"},{"group":"hexagon_bi","fractal_assignment":["../images/cyn_red.png","../images/ylw_slt.png","../images/org_blu.png","../images/pnk_blu.png","../images/blu_wht.png","../images/gry_blk.png"],"mutagen_generator_assignment":[0,1],"goal":4,"start":5,"action_noise":0.15,"location_history":"[5,4]","action_history":"[1]","mutagen_history":"[1]","location_rts":"[1333]","trial_type":"fractal-mutation","trial_index":62,"time_elapsed":1040127,"internal_node_id":"0.0-5.0-8.0"},{"group":"hexagon_bi","fractal_assignment":["../images/cyn_red.png","../images/ylw_slt.png","../images/org_blu.png","../images/pnk_blu.png","../images/blu_wht.png","../images/gry_blk.png"],"mutagen_generator_assignment":[0,1],"goal":2,"start":4,"action_noise":0.15,"location_history":"[4,3,2]","action_history":"[0,1]","mutagen_history":"[0,1]","location_rts":"[1033,972]","trial_type":"fractal-mutation","trial_index":63,"time_elapsed":1047700,"internal_node_id":"0.0-5.0-9.0"},{"group":"hexagon_bi","fractal_assignment":["../images/cyn_red.png","../images/ylw_slt.png","../images/org_blu.png","../images/pnk_blu.png","../images/blu_wht.png","../images/gry_blk.png"],"mutagen_generator_assignment":[0,1],"goal":0,"start":2,"action_noise":0.15,"location_history":"[2,3,4,5,0]","action_history":"[1,0,1,0]","mutagen_history":"[1,0,1,0]","location_rts":"[828,921,834,1098]","trial_type":"fractal-mutation","trial_index":64,"time_elapsed":1059022,"internal_node_id":"0.0-5.0-10.0"},{"group":"hexagon_bi","fractal_assignment":["../images/cyn_red.png","../images/ylw_slt.png","../images/org_blu.png","../images/pnk_blu.png","../images/blu_wht.png","../images/gry_blk.png"],"mutagen_generator_assignment":[0,1],"goal":1,"start":0,"action_noise":0.15,"location_history":"[0,1]","action_history":"[1]","mutagen_history":"[1]","location_rts":"[843]","trial_type":"fractal-mutation","trial_index":65,"time_elapsed":1064402,"internal_node_id":"0.0-5.0-11.0"},{"group":"hexagon_bi","fractal_assignment":["../images/cyn_red.png","../images/ylw_slt.png","../images/org_blu.png","../images/pnk_blu.png","../images/blu_wht.png","../images/gry_blk.png"],"mutagen_generator_assignment":[0,1],"goal":3,"start":1,"action_noise":0.15,"location_history":"[1,2,3]","action_history":"[0,1]","mutagen_history":"[0,1]","location_rts":"[3671,847]","trial_type":"fractal-mutation","trial_index":66,"time_elapsed":1074491,"internal_node_id":"0.0-5.0-12.0"},{"group":"hexagon_bi","fractal_assignment":["../images/cyn_red.png","../images/ylw_slt.png","../images/org_blu.png","../images/pnk_blu.png","../images/blu_wht.png","../images/gry_blk.png"],"mutagen_generator_assignment":[0,1],"goal":5,"start":3,"action_noise":0.15,"location_history":"[3,2,1,0,5]","action_history":"[1,0,0,0]","mutagen_history":"[1,0,0,0]","location_rts":"[894,699,1059,756]","trial_type":"fractal-mutation","trial_index":67,"time_elapsed":1085522,"internal_node_id":"0.0-5.0-13.0"},{"group":"hexagon_bi","fractal_assignment":["../images/cyn_red.png","../images/ylw_slt.png","../images/org_blu.png","../images/pnk_blu.png","../images/blu_wht.png","../images/gry_blk.png"],"mutagen_generator_assignment":[0,1],"goal":4,"start":5,"action_noise":0.15,"location_history":"[5,4]","action_history":"[1]","mutagen_history":"[1]","location_rts":"[965]","trial_type":"fractal-mutation","trial_index":68,"time_elapsed":1091673,"internal_node_id":"0.0-5.0-14.0"},{"group":"hexagon_bi","fractal_assignment":["../images/cyn_red.png","../images/ylw_slt.png","../images/org_blu.png","../images/pnk_blu.png","../images/blu_wht.png","../images/gry_blk.png"],"mutagen_generator_assignment":[0,1],"goal":0,"start":4,"action_noise":0.15,"location_history":"[4,5,0]","action_history":"[1,0]","mutagen_history":"[1,0]","location_rts":"[4695,708]","trial_type":"fractal-mutation","trial_index":69,"time_elapsed":1103645,"internal_node_id":"0.0-5.0-15.0"},{"group":"hexagon_bi","fractal_assignment":["../images/cyn_red.png","../images/ylw_slt.png","../images/org_blu.png","../images/pnk_blu.png","../images/blu_wht.png","../images/gry_blk.png"],"mutagen_generator_assignment":[0,1],"goal":3,"start":0,"action_noise":0.15,"location_history":"[0,5,4,5,0,1,0,1,2,1,0,5,4,5,0,1,2,3]","action_history":"[0,1,1,0,0,1,0,0,1,0,0,1,1,1,1,1,0]","mutagen_history":"[0,1,1,0,0,1,0,0,1,0,0,1,1,1,1,1,0]","location_rts":"[2298,495,913,908,751,917,1064,1475,718,1356,774,524,764,615,505,976,967]","trial_type":"fractal-mutation","trial_index":70,"time_elapsed":1140895,"internal_node_id":"0.0-5.0-16.0"},{"group":"hexagon_bi","fractal_assignment":["../images/cyn_red.png","../images/ylw_slt.png","../images/org_blu.png","../images/pnk_blu.png","../images/blu_wht.png","../images/gry_blk.png"],"mutagen_generator_assignment":[0,1],"goal":1,"start":3,"action_noise":0.15,"location_history":"[3,2,3,4,3,4,5,0,1]","action_history":"[0,1,1,0,1,1,0,1]","mutagen_history":"[0,1,1,0,1,1,0,1]","location_rts":"[34352,798,776,1327,931,438,1160,605]","trial_type":"fractal-mutation","trial_index":71,"time_elapsed":1193053,"internal_node_id":"0.0-5.0-17.0"},{"group":"hexagon_bi","fractal_assignment":["../images/cyn_red.png","../images/ylw_slt.png","../images/org_blu.png","../images/pnk_blu.png","../images/blu_wht.png","../images/gry_blk.png"],"mutagen_generator_assignment":[0,1],"goal":5,"start":1,"action_noise":0.15,"location_history":"[1,2,3,2,1,0,5]","action_history":"[0,1,1,0,1,0]","mutagen_history":"[0,1,1,0,1,0]","location_rts":"[1448,495,1466,782,822,1182]","trial_type":"fractal-mutation","trial_index":72,"time_elapsed":1208966,"internal_node_id":"0.0-5.0-18.0"},{"group":"hexagon_bi","fractal_assignment":["../images/cyn_red.png","../images/ylw_slt.png","../images/org_blu.png","../images/pnk_blu.png","../images/blu_wht.png","../images/gry_blk.png"],"mutagen_generator_assignment":[0,1],"goal":2,"start":5,"action_noise":0.15,"location_history":"[5,4,3,2]","action_history":"[1,0,1]","mutagen_history":"[1,0,1]","location_rts":"[1472,1255,602]","trial_type":"fractal-mutation","trial_index":73,"time_elapsed":1218897,"internal_node_id":"0.0-5.0-19.0"},{"group":"hexagon_bi","fractal_assignment":["../images/cyn_red.png","../images/ylw_slt.png","../images/org_blu.png","../images/pnk_blu.png","../images/blu_wht.png","../images/gry_blk.png"],"mutagen_generator_assignment":[0,1],"goal":4,"start":2,"action_noise":0.15,"location_history":"[2,1,0,1,0,1,2,3,4]","action_history":"[0,1,1,1,0,0,1,0]","mutagen_history":"[0,1,1,1,0,0,1,0]","location_rts":"[1525,726,1426,450,226,1408,863,999]","trial_type":"fractal-mutation","trial_index":74,"time_elapsed":1238334,"internal_node_id":"0.0-5.0-20.0"},{"group":"hexagon_bi","fractal_assignment":["../images/cyn_red.png","../images/ylw_slt.png","../images/org_blu.png","../images/pnk_blu.png","../images/blu_wht.png","../images/gry_blk.png"],"mutagen_generator_assignment":[0,1],"goal":1,"start":4,"action_noise":0.15,"location_history":"[4,3,4,3,2,1]","action_history":"[1,0,0,1,0]","mutagen_history":"[1,0,0,1,0]","location_rts":"[1040,517,411,685,1006]","trial_type":"fractal-mutation","trial_index":75,"time_elapsed":1250674,"internal_node_id":"0.0-5.0-21.0"},{"group":"hexagon_bi","fractal_assignment":["../images/cyn_red.png","../images/ylw_slt.png","../images/org_blu.png","../images/pnk_blu.png","../images/blu_wht.png","../images/gry_blk.png"],"mutagen_generator_assignment":[0,1],"goal":3,"start":1,"action_noise":0.15,"location_history":"[1,0,5,4,5,0,1,2,3]","action_history":"[1,0,1,1,0,1,0,1]","mutagen_history":"[1,0,1,1,0,1,0,1]","location_rts":"[2403,1017,554,764,774,1054,1186,745]","trial_type":"fractal-mutation","trial_index":76,"time_elapsed":1270938,"internal_node_id":"0.0-5.0-22.0"},{"group":"hexagon_bi","fractal_assignment":["../images/cyn_red.png","../images/ylw_slt.png","../images/org_blu.png","../images/pnk_blu.png","../images/blu_wht.png","../images/gry_blk.png"],"mutagen_generator_assignment":[0,1],"goal":2,"start":3,"action_noise":0.15,"location_history":"[3,4,5,4,5,0,1,2]","action_history":"[0,1,1,1,0,1,0]","mutagen_history":"[0,1,1,1,0,1,0]","location_rts":"[2954,902,587,658,381,541,964]","trial_type":"fractal-mutation","trial_index":77,"time_elapsed":1288659,"internal_node_id":"0.0-5.0-23.0"},{"group":"hexagon_bi","fractal_assignment":["../images/cyn_red.png","../images/ylw_slt.png","../images/org_blu.png","../images/pnk_blu.png","../images/blu_wht.png","../images/gry_blk.png"],"mutagen_generator_assignment":[0,1],"goal":0,"start":2,"action_noise":0.15,"location_history":"[2,3,4,3,4,3,2,1,2,3,2,3,4,5,0]","action_history":"[1,0,1,0,0,0,1,1,1,1,1,0,1,0]","mutagen_history":"[1,0,1,0,0,0,1,1,1,1,1,0,1,0]","location_rts":"[1850,874,693,869,639,956,622,1438,1134,907,458,778,964,1064]","trial_type":"fractal-mutation","trial_index":78,"time_elapsed":1319900,"internal_node_id":"0.0-5.0-24.0"},{"group":"hexagon_bi","fractal_assignment":["../images/cyn_red.png","../images/ylw_slt.png","../images/org_blu.png","../images/pnk_blu.png","../images/blu_wht.png","../images/gry_blk.png"],"mutagen_generator_assignment":[0,1],"goal":5,"start":0,"action_noise":0.15,"location_history":"[0,5]","action_history":"[0]","mutagen_history":"[0]","location_rts":"[1169]","trial_type":"fractal-mutation","trial_index":79,"time_elapsed":1325620,"internal_node_id":"0.0-5.0-25.0"},{"group":"hexagon_bi","fractal_assignment":["../images/cyn_red.png","../images/ylw_slt.png","../images/org_blu.png","../images/pnk_blu.png","../images/blu_wht.png","../images/gry_blk.png"],"mutagen_generator_assignment":[0,1],"goal":2,"start":5,"action_noise":0.15,"location_history":"[5,4,3,2]","action_history":"[1,0,1]","mutagen_history":"[1,0,1]","location_rts":"[771,972,737]","trial_type":"fractal-mutation","trial_index":80,"time_elapsed":1334692,"internal_node_id":"0.0-5.0-26.0"},{"group":"hexagon_bi","fractal_assignment":["../images/cyn_red.png","../images/ylw_slt.png","../images/org_blu.png","../images/pnk_blu.png","../images/blu_wht.png","../images/gry_blk.png"],"mutagen_generator_assignment":[0,1],"goal":3,"start":2,"action_noise":0.15,"location_history":"[2,1,0,1,2,1,2,1,0,5,4,3]","action_history":"[0,1,1,1,0,0,0,1,0,1,0]","mutagen_history":"[0,1,1,1,0,0,0,1,0,1,0]","location_rts":"[1232,751,799,575,638,768,432,1147,955,709,756]","trial_type":"fractal-mutation","trial_index":81,"time_elapsed":1358477,"internal_node_id":"0.0-5.0-27.0"},{"group":"hexagon_bi","fractal_assignment":["../images/cyn_red.png","../images/ylw_slt.png","../images/org_blu.png","../images/pnk_blu.png","../images/blu_wht.png","../images/gry_blk.png"],"mutagen_generator_assignment":[0,1],"goal":0,"start":3,"action_noise":0.15,"location_history":"[3,2,1,0]","action_history":"[1,0,1]","mutagen_history":"[1,0,1]","location_rts":"[1417,720,645]","trial_type":"fractal-mutation","trial_index":82,"time_elapsed":1367853,"internal_node_id":"0.0-5.0-28.0"},{"group":"hexagon_bi","fractal_assignment":["../images/cyn_red.png","../images/ylw_slt.png","../images/org_blu.png","../images/pnk_blu.png","../images/blu_wht.png","../images/gry_blk.png"],"mutagen_generator_assignment":[0,1],"goal":1,"start":0,"action_noise":0.15,"location_history":"[0,1]","action_history":"[1]","mutagen_history":"[1]","location_rts":"[2028]","trial_type":"fractal-mutation","trial_index":83,"time_elapsed":1374421,"internal_node_id":"0.0-5.0-29.0"},{"group":"hexagon_bi","fractal_assignment":["../images/cyn_red.png","../images/ylw_slt.png","../images/org_blu.png","../images/pnk_blu.png","../images/blu_wht.png","../images/gry_blk.png"],"mutagen_generator_assignment":[0,1],"goal":4,"start":1,"action_noise":0.15,"location_history":"[1,2,3,2,3,2,3,4]","action_history":"[0,1,0,1,1,0,0]","mutagen_history":"[0,1,0,1,1,0,0]","location_rts":"[2421,539,723,607,811,640,701]","trial_type":"fractal-mutation","trial_index":84,"time_elapsed":1391633,"internal_node_id":"0.0-5.0-30.0"},{"group":"hexagon_bi","fractal_assignment":["../images/cyn_red.png","../images/ylw_slt.png","../images/org_blu.png","../images/pnk_blu.png","../images/blu_wht.png","../images/gry_blk.png"],"mutagen_generator_assignment":[0,1],"goal":5,"start":4,"action_noise":0.15,"location_history":"[4,5]","action_history":"[1]","mutagen_history":"[1]","location_rts":"[770]","trial_type":"fractal-mutation","trial_index":85,"time_elapsed":1396943,"internal_node_id":"0.0-5.0-31.0"},{"group":"hexagon_bi","fractal_assignment":["../images/cyn_red.png","../images/ylw_slt.png","../images/org_blu.png","../images/pnk_blu.png","../images/blu_wht.png","../images/gry_blk.png"],"mutagen_generator_assignment":[0,1],"goal":0,"start":5,"action_noise":0.15,"location_history":"[5,0]","action_history":"[0]","mutagen_history":"[0]","location_rts":"[1302]","trial_type":"fractal-mutation","trial_index":86,"time_elapsed":1402808,"internal_node_id":"0.0-5.0-32.0"},{"group":"hexagon_bi","fractal_assignment":["../images/cyn_red.png","../images/ylw_slt.png","../images/org_blu.png","../images/pnk_blu.png","../images/blu_wht.png","../images/gry_blk.png"],"mutagen_generator_assignment":[0,1],"goal":3,"start":0,"action_noise":0.15,"location_history":"[0,1,2,1,2,3]","action_history":"[1,0,0,0,1]","mutagen_history":"[1,0,0,0,1]","location_rts":"[13923,731,690,669,223]","trial_type":"fractal-mutation","trial_index":87,"time_elapsed":1427729,"internal_node_id":"0.0-5.0-33.0"},{"group":"hexagon_bi","fractal_assignment":["../images/cyn_red.png","../images/ylw_slt.png","../images/org_blu.png","../images/pnk_blu.png","../images/blu_wht.png","../images/gry_blk.png"],"mutagen_generator_assignment":[0,1],"goal":1,"start":3,"action_noise":0.15,"location_history":"[3,2,1]","action_history":"[1,0]","mutagen_history":"[1,0]","location_rts":"[1210,735]","trial_type":"fractal-mutation","trial_index":88,"time_elapsed":1435250,"internal_node_id":"0.0-5.0-34.0"},{"group":"hexagon_bi","fractal_assignment":["../images/cyn_red.png","../images/ylw_slt.png","../images/org_blu.png","../images/pnk_blu.png","../images/blu_wht.png","../images/gry_blk.png"],"mutagen_generator_assignment":[0,1],"goal":2,"start":1,"action_noise":0.15,"location_history":"[1,0,5,4,3,2]","action_history":"[1,0,1,0,1]","mutagen_history":"[1,0,1,0,1]","location_rts":"[1746,783,821,638,583]","trial_type":"fractal-mutation","trial_index":89,"time_elapsed":1448495,"internal_node_id":"0.0-5.0-35.0"},{"group":"hexagon_bi","fractal_assignment":["../images/cyn_red.png","../images/ylw_slt.png","../images/org_blu.png","../images/pnk_blu.png","../images/blu_wht.png","../images/gry_blk.png"],"mutagen_generator_assignment":[0,1],"goal":4,"start":2,"action_noise":0.15,"location_history":"[2,3,2,3,2,1,2,1,2,3,2,3,2,3,4]","action_history":"[0,1,1,1,0,0,0,1,0,1,0,0,1,0]","mutagen_history":"[0,1,1,1,0,0,0,1,0,1,0,0,1,0]","location_rts":"[868,450,668,732,341,626,394,267,628,611,550,485,844,1011]","trial_type":"fractal-mutation","trial_index":90,"time_elapsed":1474971,"internal_node_id":"0.0-5.0-36.0"},{"group":"hexagon_bi","fractal_assignment":["../images/cyn_red.png","../images/ylw_slt.png","../images/org_blu.png","../images/pnk_blu.png","../images/blu_wht.png","../images/gry_blk.png"],"mutagen_generator_assignment":[0,1],"goal":5,"start":4,"action_noise":0.15,"location_history":"[4,3,4,3,4,5]","action_history":"[1,0,0,0,1]","mutagen_history":"[1,0,0,0,1]","location_rts":"[1207,664,788,502,284]","trial_type":"fractal-mutation","trial_index":91,"time_elapsed":1487141,"internal_node_id":"0.0-5.0-37.0"},{"group":"hexagon_bi","fractal_assignment":["../images/cyn_red.png","../images/ylw_slt.png","../images/org_blu.png","../images/pnk_blu.png","../images/blu_wht.png","../images/gry_blk.png"],"mutagen_generator_assignment":[0,1],"goal":1,"start":5,"action_noise":0.15,"location_history":"[5,4,3,4,5,4,5,4,5,4,5,4,5,4,3,2,3,4,3,4,3,4,3,4,5,0,5,0,5,4,3,2,1]","action_history":"[1,0,0,1,1,1,1,1,1,1,1,1,1,0,0,1,0,0,0,0,0,1,0,1,0,1,0,0,1,0,0,0]","mutagen_history":"[1,0,0,1,1,1,1,1,1,1,1,1,1,0,0,1,0,0,0,0,0,1,0,1,0,1,0,0,1,0,0,0]","location_rts":"[1663,809,713,732,852,675,476,332,639,91,534,384,934,1644,703,800,605,705,837,1311,709,349,770,839,721,606,1058,494,1133,981,404,501]","trial_type":"fractal-mutation","trial_index":92,"time_elapsed":1547803,"internal_node_id":"0.0-5.0-38.0"},{"group":"hexagon_bi","fractal_assignment":["../images/cyn_red.png","../images/ylw_slt.png","../images/org_blu.png","../images/pnk_blu.png","../images/blu_wht.png","../images/gry_blk.png"],"mutagen_generator_assignment":[0,1],"goal":4,"start":1,"action_noise":0.15,"location_history":"[1,0,5,0,1,0,5,4]","action_history":"[1,0,0,1,1,0,1]","mutagen_history":"[1,0,0,1,1,0,1]","location_rts":"[893,796,922,547,640,1000,544]","trial_type":"fractal-mutation","trial_index":93,"time_elapsed":1563925,"internal_node_id":"0.0-5.0-39.0"},{"group":"hexagon_bi","fractal_assignment":["../images/cyn_red.png","../images/ylw_slt.png","../images/org_blu.png","../images/pnk_blu.png","../images/blu_wht.png","../images/gry_blk.png"],"mutagen_generator_assignment":[0,1],"goal":3,"start":4,"action_noise":0.15,"location_history":"[4,3]","action_history":"[0]","mutagen_history":"[0]","location_rts":"[1076]","trial_type":"fractal-mutation","trial_index":94,"time_elapsed":1569538,"internal_node_id":"0.0-5.0-40.0"},{"group":"hexagon_bi","fractal_assignment":["../images/cyn_red.png","../images/ylw_slt.png","../images/org_blu.png","../images/pnk_blu.png","../images/blu_wht.png","../images/gry_blk.png"],"mutagen_generator_assignment":[0,1],"goal":2,"start":3,"action_noise":0.15,"location_history":"[3,2]","action_history":"[1]","mutagen_history":"[1]","location_rts":"[544]","trial_type":"fractal-mutation","trial_index":95,"time_elapsed":1574620,"internal_node_id":"0.0-5.0-41.0"},{"group":"hexagon_bi","fractal_assignment":["../images/cyn_red.png","../images/ylw_slt.png","../images/org_blu.png","../images/pnk_blu.png","../images/blu_wht.png","../images/gry_blk.png"],"mutagen_generator_assignment":[0,1],"goal":0,"start":2,"action_noise":0.15,"location_history":"[2,1,0]","action_history":"[0,1]","mutagen_history":"[0,1]","location_rts":"[871,526]","trial_type":"fractal-mutation","trial_index":96,"time_elapsed":1581689,"internal_node_id":"0.0-5.0-42.0"},{"group":"hexagon_bi","fractal_assignment":["../images/cyn_red.png","../images/ylw_slt.png","../images/org_blu.png","../images/pnk_blu.png","../images/blu_wht.png","../images/gry_blk.png"],"mutagen_generator_assignment":[0,1],"goal":5,"start":0,"action_noise":0.15,"location_history":"[0,5]","action_history":"[0]","mutagen_history":"[0]","location_rts":"[992]","trial_type":"fractal-mutation","trial_index":97,"time_elapsed":1587216,"internal_node_id":"0.0-5.0-43.0"},{"group":"hexagon_bi","fractal_assignment":["../images/cyn_red.png","../images/ylw_slt.png","../images/org_blu.png","../images/pnk_blu.png","../images/blu_wht.png","../images/gry_blk.png"],"mutagen_generator_assignment":[0,1],"goal":0,"start":5,"action_noise":0.15,"location_history":"[5,4,3,2,3,4,5,4,3,2,1,2,1,0]","action_history":"[1,0,0,0,1,0,1,0,1,0,0,0,1]","mutagen_history":"[1,0,0,0,1,0,1,0,1,0,0,0,1]","location_rts":"[1433,1000,806,535,830,663,684,1155,1107,687,706,2118,394]","trial_type":"fractal-mutation","trial_index":98,"time_elapsed":1616283,"internal_node_id":"0.0-5.0-44.0"},{"group":"hexagon_bi","fractal_assignment":["../images/cyn_red.png","../images/ylw_slt.png","../images/org_blu.png","../images/pnk_blu.png","../images/blu_wht.png","../images/gry_blk.png"],"mutagen_generator_assignment":[0,1],"goal":2,"start":0,"action_noise":0.15,"location_history":"[0,1,2]","action_history":"[1,0]","mutagen_history":"[1,0]","location_rts":"[541,429]","trial_type":"fractal-mutation","trial_index":99,"time_elapsed":1622846,"internal_node_id":"0.0-5.0-45.0"},{"group":"hexagon_bi","fractal_assignment":["../images/cyn_red.png","../images/ylw_slt.png","../images/org_blu.png","../images/pnk_blu.png","../images/blu_wht.png","../images/gry_blk.png"],"mutagen_generator_assignment":[0,1],"goal":4,"start":2,"action_noise":0.15,"location_history":"[2,3,4]","action_history":"[1,0]","mutagen_history":"[1,0]","location_rts":"[1002,735]","trial_type":"fractal-mutation","trial_index":100,"time_elapsed":1630149,"internal_node_id":"0.0-5.0-46.0"},{"group":"hexagon_bi","fractal_assignment":["../images/cyn_red.png","../images/ylw_slt.png","../images/org_blu.png","../images/pnk_blu.png","../images/blu_wht.png","../images/gry_blk.png"],"mutagen_generator_assignment":[0,1],"goal":1,"start":4,"action_noise":0.15,"location_history":"[4,5,0,1]","action_history":"[1,0,1]","mutagen_history":"[1,0,1]","location_rts":"[1235,1250,663]","trial_type":"fractal-mutation","trial_index":101,"time_elapsed":1639908,"internal_node_id":"0.0-5.0-47.0"},{"group":"hexagon_bi","fractal_assignment":["../images/cyn_red.png","../images/ylw_slt.png","../images/org_blu.png","../images/pnk_blu.png","../images/blu_wht.png","../images/gry_blk.png"],"mutagen_generator_assignment":[0,1],"goal":5,"start":1,"action_noise":0.15,"location_history":"[1,2,1,2,1,0,5]","action_history":"[0,1,0,0,1,0]","mutagen_history":"[0,1,0,0,1,0]","location_rts":"[1297,696,1647,349,1515,1355]","trial_type":"fractal-mutation","trial_index":102,"time_elapsed":1656463,"internal_node_id":"0.0-5.0-48.0"},{"group":"hexagon_bi","fractal_assignment":["../images/cyn_red.png","../images/ylw_slt.png","../images/org_blu.png","../images/pnk_blu.png","../images/blu_wht.png","../images/gry_blk.png"],"mutagen_generator_assignment":[0,1],"goal":3,"start":5,"action_noise":0.15,"location_history":"[5,4,5,4,3]","action_history":"[1,0,1,0]","mutagen_history":"[1,0,1,0]","location_rts":"[772,926,532,1163]","trial_type":"fractal-mutation","trial_index":103,"time_elapsed":1667499,"internal_node_id":"0.0-5.0-49.0"},{"view_history":"[{\"page_index\":0,\"viewing_time\":2917}]","rt":2917,"trial_type":"instructions","trial_index":104,"time_elapsed":1671416,"internal_node_id":"0.0-6.0"},{"rt":1627,"responses":"{\"Q0\":\"\"}","trial_type":"survey-text","trial_index":105,"time_elapsed":1674052,"internal_node_id":"0.0-7.0"}]