[{"view_history":"[{\"page_index\":0,\"viewing_time\":1137},{\"page_index\":1,\"viewing_time\":2249}]","rt":3387,"trial_type":"instructions","trial_index":0,"time_elapsed":3389,"internal_node_id":"0.0-0.0"},{"view_history":"[{\"page_index\":0,\"viewing_time\":1282},{\"page_index\":1,\"viewing_time\":1804}]","rt":3086,"trial_type":"instructions","trial_index":1,"time_elapsed":7479,"internal_node_id":"0.0-1.0"},{"group":"hexagon_bi","room_assignment":["green","purple","blue","yellow","grey","red"],"door_color_assignment":["white","black"],"door_generator_assignment":[0,1],"goal":3,"start":5,"action_noise":0.15,"location_history":"[5,4,5,4,5,0,1,2,1,0,5,0,1,0,1,0,1,2,1,0,1,0,5,0,5,0,5,4,3]","action_history":"[0,1,1,1,0,1,0,0,0,0,0,1,0,1,1,0,0,1,1,1,1,0,0,0,0,0,1,0]","door_history":"[0,1,1,1,0,1,0,0,0,0,0,1,0,1,1,0,0,1,1,1,1,0,0,0,0,0,1,0]","location_rts":"[1963,1099,2249,474,525,464,509,197,494,592,1214,509,432,886,490,941,426,789,545,955,499,465,311,439,269,395,232,417]","trial_type":"two-door-navigation","trial_index":2,"time_elapsed":59227,"internal_node_id":"0.0-2.0-0.0"},{"group":"hexagon_bi","room_assignment":["green","purple","blue","yellow","grey","red"],"door_color_assignment":["white","black"],"door_generator_assignment":[0,1],"goal":1,"start":3,"action_noise":0.15,"location_history":"[3,2,1]","action_history":"[1,0]","door_history":"[1,0]","location_rts":"[4596,817]","trial_type":"two-door-navigation","trial_index":3,"time_elapsed":70253,"internal_node_id":"0.0-2.0-1.0"},{"group":"hexagon_bi","room_assignment":["green","purple","blue","yellow","grey","red"],"door_color_assignment":["white","black"],"door_generator_assignment":[0,1],"goal":0,"start":1,"action_noise":0.15,"location_history":"[1,0]","action_history":"[1]","door_history":"[1]","location_rts":"[2281]","trial_type":"two-door-navigation","trial_index":4,"time_elapsed":77103,"internal_node_id":"0.0-2.0-2.0"},{"group":"hexagon_bi","room_assignment":["green","purple","blue","yellow","grey","red"],"door_color_assignment":["white","black"],"door_generator_assignment":[0,1],"goal":3,"start":0,"action_noise":0.15,"location_history":"[0,1,0,1,2,3]","action_history":"[1,1,1,0,1]","door_history":"[1,1,1,0,1]","location_rts":"[3561,1585,804,70,434]","trial_type":"two-door-navigation","trial_index":5,"time_elapsed":92293,"internal_node_id":"0.0-2.0-3.0"},{"group":"hexagon_bi","room_assignment":["green","purple","blue","yellow","grey","red"],"door_color_assignment":["white","black"],"door_generator_assignment":[0,1],"goal":4,"start":3,"action_noise":0.15,"location_history":"[3,2,3,4]","action_history":"[1,1,1]","door_history":"[1,1,1]","location_rts":"[7529,2111,683]","trial_type":"two-door-navigation","trial_index":6,"time_elapsed":109287,"internal_node_id":"0.0-2.0-4.0"},{"group":"hexagon_bi","room_assignment":["green","purple","blue","yellow","grey","red"],"door_color_assignment":["white","black"],"door_generator_assignment":[0,1],"goal":2,"start":4,"action_noise":0.15,"location_history":"[4,5,4,3,4,5,4,3,4,3,2]","action_history":"[1,1,0,0,0,1,0,0,0,1]","door_history":"[1,1,0,0,0,1,0,0,0,1]","location_rts":"[1329,817,1369,233,423,223,779,55,207,408]","trial_type":"two-door-navigation","trial_index":7,"time_elapsed":129144,"internal_node_id":"0.0-2.0-5.0"},{"group":"hexagon_bi","room_assignment":["green","purple","blue","yellow","grey","red"],"door_color_assignment":["white","black"],"door_generator_assignment":[0,1],"goal":1,"start":2,"action_noise":0.15,"location_history":"[2,1]","action_history":"[0]","door_history":"[0]","location_rts":"[1785]","trial_type":"two-door-navigation","trial_index":8,"time_elapsed":135493,"internal_node_id":"0.0-2.0-6.0"},{"group":"hexagon_bi","room_assignment":["green","purple","blue","yellow","grey","red"],"door_color_assignment":["white","black"],"door_generator_assignment":[0,1],"goal":5,"start":1,"action_noise":0.15,"location_history":"[1,0,5]","action_history":"[1,0]","door_history":"[1,0]","location_rts":"[1644,463]","trial_type":"two-door-navigation","trial_index":9,"time_elapsed":143208,"internal_node_id":"0.0-2.0-7.0"},{"group":"hexagon_bi","room_assignment":["green","purple","blue","yellow","grey","red"],"door_color_assignment":["white","black"],"door_generator_assignment":[0,1],"goal":4,"start":5,"action_noise":0.15,"location_history":"[5,4]","action_history":"[1]","door_history":"[1]","location_rts":"[2199]","trial_type":"two-door-navigation","trial_index":10,"time_elapsed":149958,"internal_node_id":"0.0-2.0-8.0"},{"group":"hexagon_bi","room_assignment":["green","purple","blue","yellow","grey","red"],"door_color_assignment":["white","black"],"door_generator_assignment":[0,1],"goal":2,"start":4,"action_noise":0.15,"location_history":"[4,3,4,3,2]","action_history":"[0,0,0,1]","door_history":"[0,0,0,1]","location_rts":"[1881,404,420,1220]","trial_type":"two-door-navigation","trial_index":11,"time_elapsed":161606,"internal_node_id":"0.0-2.0-9.0"},{"group":"hexagon_bi","room_assignment":["green","purple","blue","yellow","grey","red"],"door_color_assignment":["white","black"],"door_generator_assignment":[0,1],"goal":0,"start":2,"action_noise":0.15,"location_history":"[2,3,4,3,4,5,0]","action_history":"[1,0,0,0,1,0]","door_history":"[1,0,0,0,1,0]","location_rts":"[1818,629,155,814,210,241]","trial_type":"two-door-navigation","trial_index":12,"time_elapsed":175345,"internal_node_id":"0.0-2.0-10.0"},{"group":"hexagon_bi","room_assignment":["green","purple","blue","yellow","grey","red"],"door_color_assignment":["white","black"],"door_generator_assignment":[0,1],"goal":1,"start":0,"action_noise":0.15,"location_history":"[0,1]","action_history":"[1]","door_history":"[1]","location_rts":"[2823]","trial_type":"two-door-navigation","trial_index":13,"time_elapsed":182740,"internal_node_id":"0.0-2.0-11.0"},{"group":"hexagon_bi","room_assignment":["green","purple","blue","yellow","grey","red"],"door_color_assignment":["white","black"],"door_generator_assignment":[0,1],"goal":3,"start":1,"action_noise":0.15,"location_history":"[1,0,1,0,1,2,3]","action_history":"[1,1,1,1,0,1]","door_history":"[1,1,1,1,0,1]","location_rts":"[1321,1462,614,430,394,762]","trial_type":"two-door-navigation","trial_index":14,"time_elapsed":197586,"internal_node_id":"0.0-2.0-12.0"},{"group":"hexagon_bi","room_assignment":["green","purple","blue","yellow","grey","red"],"door_color_assignment":["white","black"],"door_generator_assignment":[0,1],"goal":5,"start":3,"action_noise":0.15,"location_history":"[3,4,3,2,1,2,3,2,3,4,5]","action_history":"[0,1,1,0,0,1,1,1,0,1]","door_history":"[0,1,1,0,0,1,1,1,0,1]","location_rts":"[3321,269,1001,249,260,540,877,673,408,260]","trial_type":"two-door-navigation","trial_index":15,"time_elapsed":219503,"internal_node_id":"0.0-2.0-13.0"},{"group":"hexagon_bi","room_assignment":["green","purple","blue","yellow","grey","red"],"door_color_assignment":["white","black"],"door_generator_assignment":[0,1],"goal":4,"start":5,"action_noise":0.15,"location_history":"[5,4]","action_history":"[1]","door_history":"[1]","location_rts":"[2260]","trial_type":"two-door-navigation","trial_index":16,"time_elapsed":226334,"internal_node_id":"0.0-2.0-14.0"},{"group":"hexagon_bi","room_assignment":["green","purple","blue","yellow","grey","red"],"door_color_assignment":["white","black"],"door_generator_assignment":[0,1],"goal":0,"start":4,"action_noise":0.15,"location_history":"[4,5,0]","action_history":"[1,0]","door_history":"[1,0]","location_rts":"[4481,1011]","trial_type":"two-door-navigation","trial_index":17,"time_elapsed":237473,"internal_node_id":"0.0-2.0-15.0"},{"group":"hexagon_bi","room_assignment":["green","purple","blue","yellow","grey","red"],"door_color_assignment":["white","black"],"door_generator_assignment":[0,1],"goal":3,"start":0,"action_noise":0.15,"location_history":"[0,1,0,5,4,3]","action_history":"[1,1,0,1,0]","door_history":"[1,1,0,1,0]","location_rts":"[1481,837,1357,379,984]","trial_type":"two-door-navigation","trial_index":18,"time_elapsed":251293,"internal_node_id":"0.0-2.0-16.0"},{"group":"hexagon_bi","room_assignment":["green","purple","blue","yellow","grey","red"],"door_color_assignment":["white","black"],"door_generator_assignment":[0,1],"goal":1,"start":3,"action_noise":0.15,"location_history":"[3,2,3,4,3,4,5,0,5,4,5,4,3,4,3,2,1]","action_history":"[1,0,0,0,0,1,0,0,1,1,1,0,0,0,1,0]","door_history":"[1,0,0,0,0,1,0,0,1,1,1,0,0,0,1,0]","location_rts":"[4778,889,679,881,674,327,467,77,398,1362,566,153,509,1531,152,1059]","trial_type":"two-door-navigation","trial_index":19,"time_elapsed":286241,"internal_node_id":"0.0-2.0-17.0"},{"group":"hexagon_bi","room_assignment":["green","purple","blue","yellow","grey","red"],"door_color_assignment":["white","black"],"door_generator_assignment":[0,1],"goal":5,"start":1,"action_noise":0.15,"location_history":"[1,0,5]","action_history":"[1,0]","door_history":"[1,0]","location_rts":"[1668,1180]","trial_type":"two-door-navigation","trial_index":20,"time_elapsed":294720,"internal_node_id":"0.0-2.0-18.0"},{"group":"hexagon_bi","room_assignment":["green","purple","blue","yellow","grey","red"],"door_color_assignment":["white","black"],"door_generator_assignment":[0,1],"goal":2,"start":5,"action_noise":0.15,"location_history":"[5,4,3,4,3,2]","action_history":"[1,0,0,1,1]","door_history":"[1,0,0,1,1]","location_rts":"[4401,712,336,1611,659]","trial_type":"two-door-navigation","trial_index":21,"time_elapsed":311238,"internal_node_id":"0.0-2.0-19.0"},{"group":"hexagon_bi","room_assignment":["green","purple","blue","yellow","grey","red"],"door_color_assignment":["white","black"],"door_generator_assignment":[0,1],"goal":4,"start":2,"action_noise":0.15,"location_history":"[2,3,4]","action_history":"[1,0]","door_history":"[1,0]","location_rts":"[1713,1338]","trial_type":"two-door-navigation","trial_index":22,"time_elapsed":319934,"internal_node_id":"0.0-2.0-20.0"},{"group":"hexagon_bi","room_assignment":["green","purple","blue","yellow","grey","red"],"door_color_assignment":["white","black"],"door_generator_assignment":[0,1],"goal":1,"start":4,"action_noise":0.15,"location_history":"[4,3,2,1]","action_history":"[1,0,0]","door_history":"[1,0,0]","location_rts":"[2830,899,1700]","trial_type":"two-door-navigation","trial_index":23,"time_elapsed":332058,"internal_node_id":"0.0-2.0-21.0"},{"group":"hexagon_bi","room_assignment":["green","purple","blue","yellow","grey","red"],"door_color_assignment":["white","black"],"door_generator_assignment":[0,1],"goal":3,"start":1,"action_noise":0.15,"location_history":"[1,0,5,0,5,0,1,0,1,2,1,0,1,2,3]","action_history":"[1,1,0,0,0,1,1,1,0,0,1,1,0,1]","door_history":"[1,1,0,0,0,1,1,1,0,0,1,1,0,1]","location_rts":"[1676,1103,1958,1941,265,480,703,888,767,1185,816,1004,908,1542]","trial_type":"two-door-navigation","trial_index":24,"time_elapsed":365613,"internal_node_id":"0.0-2.0-22.0"},{"group":"hexagon_bi","room_assignment":["green","purple","blue","yellow","grey","red"],"door_color_assignment":["white","black"],"door_generator_assignment":[0,1],"goal":2,"start":3,"action_noise":0.15,"location_history":"[3,2]","action_history":"[1]","door_history":"[1]","location_rts":"[2637]","trial_type":"two-door-navigation","trial_index":25,"time_elapsed":372816,"internal_node_id":"0.0-2.0-23.0"},{"group":"hexagon_bi","room_assignment":["green","purple","blue","yellow","grey","red"],"door_color_assignment":["white","black"],"door_generator_assignment":[0,1],"goal":0,"start":2,"action_noise":0.15,"location_history":"[2,3,2,3,4,5,0]","action_history":"[1,1,1,0,1,0]","door_history":"[1,1,1,0,1,0]","location_rts":"[1791,1203,1078,308,1668,362]","trial_type":"two-door-navigation","trial_index":26,"time_elapsed":389038,"internal_node_id":"0.0-2.0-24.0"},{"group":"hexagon_bi","room_assignment":["green","purple","blue","yellow","grey","red"],"door_color_assignment":["white","black"],"door_generator_assignment":[0,1],"goal":5,"start":0,"action_noise":0.15,"location_history":"[0,5]","action_history":"[0]","door_history":"[0]","location_rts":"[1542]","trial_type":"two-door-navigation","trial_index":27,"time_elapsed":395138,"internal_node_id":"0.0-2.0-25.0"},{"group":"hexagon_bi","room_assignment":["green","purple","blue","yellow","grey","red"],"door_color_assignment":["white","black"],"door_generator_assignment":[0,1],"goal":2,"start":5,"action_noise":0.15,"location_history":"[5,4,5,4,3,2]","action_history":"[1,1,1,0,1]","door_history":"[1,1,1,0,1]","location_rts":"[1506,538,596,229,1055]","trial_type":"two-door-navigation","trial_index":28,"time_elapsed":407851,"internal_node_id":"0.0-2.0-26.0"},{"group":"hexagon_bi","room_assignment":["green","purple","blue","yellow","grey","red"],"door_color_assignment":["white","black"],"door_generator_assignment":[0,1],"goal":3,"start":2,"action_noise":0.15,"location_history":"[2,1,2,3]","action_history":"[0,0,1]","door_history":"[0,0,1]","location_rts":"[3862,84,387]","trial_type":"two-door-navigation","trial_index":29,"time_elapsed":418861,"internal_node_id":"0.0-2.0-27.0"},{"group":"hexagon_bi","room_assignment":["green","purple","blue","yellow","grey","red"],"door_color_assignment":["white","black"],"door_generator_assignment":[0,1],"goal":0,"start":3,"action_noise":0.15,"location_history":"[3,2,1,2,3,2,3,4,5,0]","action_history":"[1,1,0,1,1,1,0,1,0]","door_history":"[1,1,0,1,1,1,0,1,0]","location_rts":"[1317,1427,307,385,970,585,643,1721,374]","trial_type":"two-door-navigation","trial_index":30,"time_elapsed":439616,"internal_node_id":"0.0-2.0-28.0"},{"group":"hexagon_bi","room_assignment":["green","purple","blue","yellow","grey","red"],"door_color_assignment":["white","black"],"door_generator_assignment":[0,1],"goal":1,"start":0,"action_noise":0.15,"location_history":"[0,5,4,3,4,5,0,1]","action_history":"[1,1,0,0,1,0,1]","door_history":"[1,1,0,0,1,0,1]","location_rts":"[1990,920,991,438,931,1692,219]","trial_type":"two-door-navigation","trial_index":31,"time_elapsed":457655,"internal_node_id":"0.0-2.0-29.0"},{"group":"hexagon_bi","room_assignment":["green","purple","blue","yellow","grey","red"],"door_color_assignment":["white","black"],"door_generator_assignment":[0,1],"goal":4,"start":1,"action_noise":0.15,"location_history":"[1,0,1,2,3,4]","action_history":"[1,1,0,1,1]","door_history":"[1,1,0,1,1]","location_rts":"[2869,1653,358,1239,1797]","trial_type":"two-door-navigation","trial_index":32,"time_elapsed":474316,"internal_node_id":"0.0-2.0-30.0"},{"group":"hexagon_bi","room_assignment":["green","purple","blue","yellow","grey","red"],"door_color_assignment":["white","black"],"door_generator_assignment":[0,1],"goal":5,"start":4,"action_noise":0.15,"location_history":"[4,3,2,3,4,5]","action_history":"[0,0,1,0,1]","door_history":"[0,0,1,0,1]","location_rts":"[2281,458,1014,597,454]","trial_type":"two-door-navigation","trial_index":33,"time_elapsed":487878,"internal_node_id":"0.0-2.0-31.0"},{"group":"hexagon_bi","room_assignment":["green","purple","blue","yellow","grey","red"],"door_color_assignment":["white","black"],"door_generator_assignment":[0,1],"goal":0,"start":5,"action_noise":0.15,"location_history":"[5,4,3,2,3,4,5,0]","action_history":"[0,0,0,0,0,1,0]","door_history":"[0,0,0,0,0,1,0]","location_rts":"[2226,1131,580,834,409,995,264]","trial_type":"two-door-navigation","trial_index":34,"time_elapsed":505209,"internal_node_id":"0.0-2.0-32.0"},{"group":"hexagon_bi","room_assignment":["green","purple","blue","yellow","grey","red"],"door_color_assignment":["white","black"],"door_generator_assignment":[0,1],"goal":3,"start":0,"action_noise":0.15,"location_history":"[0,5,4,3]","action_history":"[1,1,0]","door_history":"[1,1,0]","location_rts":"[1425,1045,423]","trial_type":"two-door-navigation","trial_index":35,"time_elapsed":514782,"internal_node_id":"0.0-2.0-33.0"},{"group":"hexagon_bi","room_assignment":["green","purple","blue","yellow","grey","red"],"door_color_assignment":["white","black"],"door_generator_assignment":[0,1],"goal":1,"start":3,"action_noise":0.15,"location_history":"[3,2,1]","action_history":"[1,0]","door_history":"[1,0]","location_rts":"[2216,1003]","trial_type":"two-door-navigation","trial_index":36,"time_elapsed":523631,"internal_node_id":"0.0-2.0-34.0"},{"group":"hexagon_bi","room_assignment":["green","purple","blue","yellow","grey","red"],"door_color_assignment":["white","black"],"door_generator_assignment":[0,1],"goal":2,"start":1,"action_noise":0.15,"location_history":"[1,2]","action_history":"[0]","door_history":"[0]","location_rts":"[1173]","trial_type":"two-door-navigation","trial_index":37,"time_elapsed":529383,"internal_node_id":"0.0-2.0-35.0"},{"group":"hexagon_bi","room_assignment":["green","purple","blue","yellow","grey","red"],"door_color_assignment":["white","black"],"door_generator_assignment":[0,1],"goal":4,"start":2,"action_noise":0.15,"location_history":"[2,3,4]","action_history":"[1,0]","door_history":"[1,0]","location_rts":"[2557,1067]","trial_type":"two-door-navigation","trial_index":38,"time_elapsed":538606,"internal_node_id":"0.0-2.0-36.0"},{"group":"hexagon_bi","room_assignment":["green","purple","blue","yellow","grey","red"],"door_color_assignment":["white","black"],"door_generator_assignment":[0,1],"goal":5,"start":4,"action_noise":0.15,"location_history":"[4,3,2,3,2,3,2,3,2,1,2,1,0,5]","action_history":"[1,1,1,0,1,1,1,0,0,0,0,1,0]","door_history":"[1,1,1,0,1,1,1,0,0,0,0,1,0]","location_rts":"[1766,1266,1065,604,635,735,1831,132,469,409,360,1566,1200]","trial_type":"two-door-navigation","trial_index":39,"time_elapsed":567922,"internal_node_id":"0.0-2.0-37.0"},{"group":"hexagon_bi","room_assignment":["green","purple","blue","yellow","grey","red"],"door_color_assignment":["white","black"],"door_generator_assignment":[0,1],"goal":1,"start":5,"action_noise":0.15,"location_history":"[5,0,1]","action_history":"[1,1]","door_history":"[1,1]","location_rts":"[2403,4191]","trial_type":"two-door-navigation","trial_index":40,"time_elapsed":580158,"internal_node_id":"0.0-2.0-38.0"},{"group":"hexagon_bi","room_assignment":["green","purple","blue","yellow","grey","red"],"door_color_assignment":["white","black"],"door_generator_assignment":[0,1],"goal":4,"start":1,"action_noise":0.15,"location_history":"[1,2,1,2,1,0,1,0,5,4]","action_history":"[1,1,0,0,1,1,1,0,1]","door_history":"[1,1,0,0,1,1,1,0,1]","location_rts":"[1374,952,2864,355,843,961,895,348,260]","trial_type":"two-door-navigation","trial_index":41,"time_elapsed":602023,"internal_node_id":"0.0-2.0-39.0"},{"group":"hexagon_bi","room_assignment":["green","purple","blue","yellow","grey","red"],"door_color_assignment":["white","black"],"door_generator_assignment":[0,1],"goal":3,"start":4,"action_noise":0.15,"location_history":"[4,3]","action_history":"[0]","door_history":"[0]","location_rts":"[2780]","trial_type":"two-door-navigation","trial_index":42,"time_elapsed":609377,"internal_node_id":"0.0-2.0-40.0"},{"group":"hexagon_bi","room_assignment":["green","purple","blue","yellow","grey","red"],"door_color_assignment":["white","black"],"door_generator_assignment":[0,1],"goal":2,"start":3,"action_noise":0.15,"location_history":"[3,2]","action_history":"[1]","door_history":"[1]","location_rts":"[8239]","trial_type":"two-door-navigation","trial_index":43,"time_elapsed":622175,"internal_node_id":"0.0-2.0-41.0"},{"group":"hexagon_bi","room_assignment":["green","purple","blue","yellow","grey","red"],"door_color_assignment":["white","black"],"door_generator_assignment":[0,1],"goal":0,"start":2,"action_noise":0.15,"location_history":"[2,1,0]","action_history":"[0,1]","door_history":"[0,1]","location_rts":"[2419,124]","trial_type":"two-door-navigation","trial_index":44,"time_elapsed":630338,"internal_node_id":"0.0-2.0-42.0"},{"group":"hexagon_bi","room_assignment":["green","purple","blue","yellow","grey","red"],"door_color_assignment":["white","black"],"door_generator_assignment":[0,1],"goal":5,"start":0,"action_noise":0.15,"location_history":"[0,5]","action_history":"[0]","door_history":"[0]","location_rts":"[2551]","trial_type":"two-door-navigation","trial_index":45,"time_elapsed":637434,"internal_node_id":"0.0-2.0-43.0"},{"group":"hexagon_bi","room_assignment":["green","purple","blue","yellow","grey","red"],"door_color_assignment":["white","black"],"door_generator_assignment":[0,1],"goal":0,"start":5,"action_noise":0.15,"location_history":"[5,4,3,4,5,4,5,0]","action_history":"[0,0,0,1,0,1,0]","door_history":"[0,0,0,1,0,1,0]","location_rts":"[6932,1060,1345,582,523,1215,75]","trial_type":"two-door-navigation","trial_index":46,"time_elapsed":660041,"internal_node_id":"0.0-2.0-44.0"},{"group":"hexagon_bi","room_assignment":["green","purple","blue","yellow","grey","red"],"door_color_assignment":["white","black"],"door_generator_assignment":[0,1],"goal":2,"start":0,"action_noise":0.15,"location_history":"[0,1,2]","action_history":"[1,0]","door_history":"[1,0]","location_rts":"[2495,638]","trial_type":"two-door-navigation","trial_index":47,"time_elapsed":668805,"internal_node_id":"0.0-2.0-45.0"},{"group":"hexagon_bi","room_assignment":["green","purple","blue","yellow","grey","red"],"door_color_assignment":["white","black"],"door_generator_assignment":[0,1],"goal":4,"start":2,"action_noise":0.15,"location_history":"[2,1,2,3,4]","action_history":"[0,1,1,0]","door_history":"[0,1,1,0]","location_rts":"[3118,63,866,1363]","trial_type":"two-door-navigation","trial_index":48,"time_elapsed":681921,"internal_node_id":"0.0-2.0-46.0"},{"group":"hexagon_bi","room_assignment":["green","purple","blue","yellow","grey","red"],"door_color_assignment":["white","black"],"door_generator_assignment":[0,1],"goal":1,"start":4,"action_noise":0.15,"location_history":"[4,3,2,1]","action_history":"[1,1,0]","door_history":"[1,1,0]","location_rts":"[3216,2101,972]","trial_type":"two-door-navigation","trial_index":49,"time_elapsed":694872,"internal_node_id":"0.0-2.0-47.0"},{"group":"hexagon_bi","room_assignment":["green","purple","blue","yellow","grey","red"],"door_color_assignment":["white","black"],"door_generator_assignment":[0,1],"goal":5,"start":1,"action_noise":0.15,"location_history":"[1,0,5]","action_history":"[1,0]","door_history":"[1,0]","location_rts":"[2672,1175]","trial_type":"two-door-navigation","trial_index":50,"time_elapsed":704333,"internal_node_id":"0.0-2.0-48.0"},{"group":"hexagon_bi","room_assignment":["green","purple","blue","yellow","grey","red"],"door_color_assignment":["white","black"],"door_generator_assignment":[0,1],"goal":3,"start":5,"action_noise":0.15,"location_history":"[5,4,3]","action_history":"[1,0]","door_history":"[1,0]","location_rts":"[1817,1088]","trial_type":"two-door-navigation","trial_index":51,"time_elapsed":712865,"internal_node_id":"0.0-2.0-49.0"},{"view_history":"[{\"page_index\":0,\"viewing_time\":2731}]","rt":2731,"trial_type":"instructions","trial_index":52,"time_elapsed":716600,"internal_node_id":"0.0-3.0"},{"view_history":"[{\"page_index\":0,\"viewing_time\":1893},{\"page_index\":1,\"viewing_time\":4031}]","rt":5924,"trial_type":"instructions","trial_index":53,"time_elapsed":723525,"internal_node_id":"0.0-4.0"},{"group":"hexagon_tri","fractal_assignment":["../images/cyn_red.png","../images/gry_blk.png","../images/pnk_blu.png","../images/org_blu.png","../images/blu_wht.png","../images/ylw_slt.png"],"mutagen_generator_assignment":[1,0],"goal":3,"start":5,"action_noise":0.15,"location_history":"[5,0,5,0,1,3]","action_history":"[1,1,1,0,0]","mutagen_history":"[0,0,0,1,1]","location_rts":"[2069,539,371,820,489]","trial_type":"fractal-mutation","trial_index":54,"time_elapsed":737034,"internal_node_id":"0.0-5.0-0.0"},{"group":"hexagon_tri","fractal_assignment":["../images/cyn_red.png","../images/gry_blk.png","../images/pnk_blu.png","../images/org_blu.png","../images/blu_wht.png","../images/ylw_slt.png"],"mutagen_generator_assignment":[1,0],"goal":1,"start":3,"action_noise":0.15,"location_history":"[3,4,2,3,4,0,5,4,2,3,4,2,3,2,1]","action_history":"[1,1,0,0,0,0,0,1,1,1,1,1,0,0]","mutagen_history":"[0,0,1,1,1,1,1,0,0,0,0,0,1,1]","location_rts":"[683,485,203,112,379,23,422,1107,452,81,237,358,245,452]","trial_type":"fractal-mutation","trial_index":55,"time_elapsed":761876,"internal_node_id":"0.0-5.0-1.0"},{"group":"hexagon_tri","fractal_assignment":["../images/cyn_red.png","../images/gry_blk.png","../images/pnk_blu.png","../images/org_blu.png","../images/blu_wht.png","../images/ylw_slt.png"],"mutagen_generator_assignment":[1,0],"goal":0,"start":1,"action_noise":0.15,"location_history":"[1,5,4,2,1,5,0]","action_history":"[1,1,1,0,1,1]","mutagen_history":"[0,0,0,1,0,0]","location_rts":"[1383,414,426,708,728,468]","trial_type":"fractal-mutation","trial_index":56,"time_elapsed":776258,"internal_node_id":"0.0-5.0-2.0"},{"group":"hexagon_tri","fractal_assignment":["../images/cyn_red.png","../images/gry_blk.png","../images/pnk_blu.png","../images/org_blu.png","../images/blu_wht.png","../images/ylw_slt.png"],"mutagen_generator_assignment":[1,0],"goal":3,"start":0,"action_noise":0.15,"location_history":"[0,5,4,0,1,5,4,0,5,0,5,0,1,5,0,5,0,5,4,0,5,4,2,3]","action_history":"[0,0,0,1,1,0,0,0,1,0,0,0,1,1,1,0,0,0,0,0,0,1,1]","mutagen_history":"[1,1,1,0,0,1,1,1,0,1,1,1,0,0,0,1,1,1,1,1,1,0,0]","location_rts":"[4404,1023,444,916,451,622,486,210,167,674,459,410,1243,986,518,245,861,1598,477,495,401,1023,433]","trial_type":"fractal-mutation","trial_index":57,"time_elapsed":824874,"internal_node_id":"0.0-5.0-3.0"},{"group":"hexagon_tri","fractal_assignment":["../images/cyn_red.png","../images/gry_blk.png","../images/pnk_blu.png","../images/org_blu.png","../images/blu_wht.png","../images/ylw_slt.png"],"mutagen_generator_assignment":[1,0],"goal":4,"start":3,"action_noise":0.15,"location_history":"[3,2,1,3,2,3,4]","action_history":"[0,0,0,0,1,1]","mutagen_history":"[1,1,1,1,0,0]","location_rts":"[291,432,238,356,230,315]","trial_type":"fractal-mutation","trial_index":58,"time_elapsed":837185,"internal_node_id":"0.0-5.0-4.0"},{"group":"hexagon_tri","fractal_assignment":["../images/cyn_red.png","../images/gry_blk.png","../images/pnk_blu.png","../images/org_blu.png","../images/blu_wht.png","../images/ylw_slt.png"],"mutagen_generator_assignment":[1,0],"goal":2,"start":4,"action_noise":0.15,"location_history":"[4,2]","action_history":"[1]","mutagen_history":"[0]","location_rts":"[8182]","trial_type":"fractal-mutation","trial_index":59,"time_elapsed":849979,"internal_node_id":"0.0-5.0-5.0"},{"group":"hexagon_tri","fractal_assignment":["../images/cyn_red.png","../images/gry_blk.png","../images/pnk_blu.png","../images/org_blu.png","../images/blu_wht.png","../images/ylw_slt.png"],"mutagen_generator_assignment":[1,0],"goal":1,"start":2,"action_noise":0.15,"location_history":"[2,3,4,2,3,4,0,5,4,0,5,0,1]","action_history":"[1,1,1,1,1,0,0,0,0,0,1,1]","mutagen_history":"[0,0,0,0,0,1,1,1,1,1,0,0]","location_rts":"[3971,388,548,535,366,494,460,259,365,10,440,204]","trial_type":"fractal-mutation","trial_index":60,"time_elapsed":875160,"internal_node_id":"0.0-5.0-6.0"},{"group":"hexagon_tri","fractal_assignment":["../images/cyn_red.png","../images/gry_blk.png","../images/pnk_blu.png","../images/org_blu.png","../images/blu_wht.png","../images/ylw_slt.png"],"mutagen_generator_assignment":[1,0],"goal":5,"start":1,"action_noise":0.15,"location_history":"[1,5]","action_history":"[1]","mutagen_history":"[0]","location_rts":"[1424]","trial_type":"fractal-mutation","trial_index":61,"time_elapsed":881204,"internal_node_id":"0.0-5.0-7.0"},{"group":"hexagon_tri","fractal_assignment":["../images/cyn_red.png","../images/gry_blk.png","../images/pnk_blu.png","../images/org_blu.png","../images/blu_wht.png","../images/ylw_slt.png"],"mutagen_generator_assignment":[1,0],"goal":4,"start":5,"action_noise":0.15,"location_history":"[5,4]","action_history":"[1]","mutagen_history":"[0]","location_rts":"[1211]","trial_type":"fractal-mutation","trial_index":62,"time_elapsed":887045,"internal_node_id":"0.0-5.0-8.0"},{"group":"hexagon_tri","fractal_assignment":["../images/cyn_red.png","../images/gry_blk.png","../images/pnk_blu.png","../images/org_blu.png","../images/blu_wht.png","../images/ylw_slt.png"],"mutagen_generator_assignment":[1,0],"goal":2,"start":4,"action_noise":0.15,"location_history":"[4,2]","action_history":"[1]","mutagen_history":"[0]","location_rts":"[1289]","trial_type":"fractal-mutation","trial_index":63,"time_elapsed":892945,"internal_node_id":"0.0-5.0-9.0"},{"group":"hexagon_tri","fractal_assignment":["../images/cyn_red.png","../images/gry_blk.png","../images/pnk_blu.png","../images/org_blu.png","../images/blu_wht.png","../images/ylw_slt.png"],"mutagen_generator_assignment":[1,0],"goal":0,"start":2,"action_noise":0.15,"location_history":"[2,1,3,4,0]","action_history":"[0,0,0,0]","mutagen_history":"[1,1,1,1]","location_rts":"[1281,467,442,885]","trial_type":"fractal-mutation","trial_index":64,"time_elapsed":904241,"internal_node_id":"0.0-5.0-10.0"},{"group":"hexagon_tri","fractal_assignment":["../images/cyn_red.png","../images/gry_blk.png","../images/pnk_blu.png","../images/org_blu.png","../images/blu_wht.png","../images/ylw_slt.png"],"mutagen_generator_assignment":[1,0],"goal":1,"start":0,"action_noise":0.15,"location_history":"[0,1]","action_history":"[1]","mutagen_history":"[0]","location_rts":"[1280]","trial_type":"fractal-mutation","trial_index":65,"time_elapsed":910132,"internal_node_id":"0.0-5.0-11.0"},{"group":"hexagon_tri","fractal_assignment":["../images/cyn_red.png","../images/gry_blk.png","../images/pnk_blu.png","../images/org_blu.png","../images/blu_wht.png","../images/ylw_slt.png"],"mutagen_generator_assignment":[1,0],"goal":3,"start":1,"action_noise":0.15,"location_history":"[1,5,4,2,3]","action_history":"[1,1,1,1]","mutagen_history":"[0,0,0,0]","location_rts":"[1222,478,522,481]","trial_type":"fractal-mutation","trial_index":66,"time_elapsed":920783,"internal_node_id":"0.0-5.0-12.0"},{"group":"hexagon_tri","fractal_assignment":["../images/cyn_red.png","../images/gry_blk.png","../images/pnk_blu.png","../images/org_blu.png","../images/blu_wht.png","../images/ylw_slt.png"],"mutagen_generator_assignment":[1,0],"goal":5,"start":3,"action_noise":0.15,"location_history":"[3,2,1,5]","action_history":"[0,0,0]","mutagen_history":"[1,1,1]","location_rts":"[1487,472,411]","trial_type":"fractal-mutation","trial_index":67,"time_elapsed":930197,"internal_node_id":"0.0-5.0-13.0"},{"group":"hexagon_tri","fractal_assignment":["../images/cyn_red.png","../images/gry_blk.png","../images/pnk_blu.png","../images/org_blu.png","../images/blu_wht.png","../images/ylw_slt.png"],"mutagen_generator_assignment":[1,0],"goal":4,"start":5,"action_noise":0.15,"location_history":"[5,0,1,5,4]","action_history":"[1,1,1,1]","mutagen_history":"[0,0,0,0]","location_rts":"[1308,395,454,398]","trial_type":"fractal-mutation","trial_index":68,"time_elapsed":940685,"internal_node_id":"0.0-5.0-14.0"},{"group":"hexagon_tri","fractal_assignment":["../images/cyn_red.png","../images/gry_blk.png","../images/pnk_blu.png","../images/org_blu.png","../images/blu_wht.png","../images/ylw_slt.png"],"mutagen_generator_assignment":[1,0],"goal":0,"start":4,"action_noise":0.15,"location_history":"[4,0]","action_history":"[0]","mutagen_history":"[1]","location_rts":"[1072]","trial_type":"fractal-mutation","trial_index":69,"time_elapsed":946446,"internal_node_id":"0.0-5.0-15.0"},{"group":"hexagon_tri","fractal_assignment":["../images/cyn_red.png","../images/gry_blk.png","../images/pnk_blu.png","../images/org_blu.png","../images/blu_wht.png","../images/ylw_slt.png"],"mutagen_generator_assignment":[1,0],"goal":3,"start":0,"action_noise":0.15,"location_history":"[0,1,5,0,1,3]","action_history":"[1,1,1,1,0]","mutagen_history":"[0,0,0,0,1]","location_rts":"[1129,509,440,578,697]","trial_type":"fractal-mutation","trial_index":70,"time_elapsed":958899,"internal_node_id":"0.0-5.0-16.0"},{"group":"hexagon_tri","fractal_assignment":["../images/cyn_red.png","../images/gry_blk.png","../images/pnk_blu.png","../images/org_blu.png","../images/blu_wht.png","../images/ylw_slt.png"],"mutagen_generator_assignment":[1,0],"goal":1,"start":3,"action_noise":0.15,"location_history":"[3,4,2,3,2,3,2,1]","action_history":"[1,1,1,1,1,0,0]","mutagen_history":"[0,0,0,0,0,1,1]","location_rts":"[2364,468,439,391,430,843,358]","trial_type":"fractal-mutation","trial_index":71,"time_elapsed":975568,"internal_node_id":"0.0-5.0-17.0"},{"group":"hexagon_tri","fractal_assignment":["../images/cyn_red.png","../images/gry_blk.png","../images/pnk_blu.png","../images/org_blu.png","../images/blu_wht.png","../images/ylw_slt.png"],"mutagen_generator_assignment":[1,0],"goal":5,"start":1,"action_noise":0.15,"location_history":"[1,3,2,1,5]","action_history":"[0,0,0,1]","mutagen_history":"[1,1,1,0]","location_rts":"[1825,285,272,955]","trial_type":"fractal-mutation","trial_index":72,"time_elapsed":987055,"internal_node_id":"0.0-5.0-18.0"},{"group":"hexagon_tri","fractal_assignment":["../images/cyn_red.png","../images/gry_blk.png","../images/pnk_blu.png","../images/org_blu.png","../images/blu_wht.png","../images/ylw_slt.png"],"mutagen_generator_assignment":[1,0],"goal":2,"start":5,"action_noise":0.15,"location_history":"[5,4,0,1,3,2]","action_history":"[0,0,0,0,0]","mutagen_history":"[1,1,1,1,1]","location_rts":"[1397,263,460,354,715]","trial_type":"fractal-mutation","trial_index":73,"time_elapsed":999639,"internal_node_id":"0.0-5.0-19.0"},{"group":"hexagon_tri","fractal_assignment":["../images/cyn_red.png","../images/gry_blk.png","../images/pnk_blu.png","../images/org_blu.png","../images/blu_wht.png","../images/ylw_slt.png"],"mutagen_generator_assignment":[1,0],"goal":4,"start":2,"action_noise":0.15,"location_history":"[2,3,4]","action_history":"[1,1]","mutagen_history":"[0,0]","location_rts":"[1428,1421]","trial_type":"fractal-mutation","trial_index":74,"time_elapsed":1008223,"internal_node_id":"0.0-5.0-20.0"},{"group":"hexagon_tri","fractal_assignment":["../images/cyn_red.png","../images/gry_blk.png","../images/pnk_blu.png","../images/org_blu.png","../images/blu_wht.png","../images/ylw_slt.png"],"mutagen_generator_assignment":[1,0],"goal":1,"start":4,"action_noise":0.15,"location_history":"[4,2,3,4,2,1]","action_history":"[1,1,1,1,0]","mutagen_history":"[0,0,0,0,1]","location_rts":"[1563,392,271,446,457]","trial_type":"fractal-mutation","trial_index":75,"time_elapsed":1020479,"internal_node_id":"0.0-5.0-21.0"},{"group":"hexagon_tri","fractal_assignment":["../images/cyn_red.png","../images/gry_blk.png","../images/pnk_blu.png","../images/org_blu.png","../images/blu_wht.png","../images/ylw_slt.png"],"mutagen_generator_assignment":[1,0],"goal":3,"start":1,"action_noise":0.15,"location_history":"[1,5,0,1,5,0,5,4,0,1,5,4,2,1,3]","action_history":"[1,1,1,1,1,0,0,0,0,1,1,1,1,0]","mutagen_history":"[0,0,0,0,0,1,1,1,1,0,0,0,0,1]","location_rts":"[998,211,212,130,168,262,233,326,137,76,346,285,456,449]","trial_type":"fractal-mutation","trial_index":76,"time_elapsed":1044140,"internal_node_id":"0.0-5.0-22.0"},{"group":"hexagon_tri","fractal_assignment":["../images/cyn_red.png","../images/gry_blk.png","../images/pnk_blu.png","../images/org_blu.png","../images/blu_wht.png","../images/ylw_slt.png"],"mutagen_generator_assignment":[1,0],"goal":2,"start":3,"action_noise":0.15,"location_history":"[3,2]","action_history":"[0]","mutagen_history":"[1]","location_rts":"[1521]","trial_type":"fractal-mutation","trial_index":77,"time_elapsed":1050349,"internal_node_id":"0.0-5.0-23.0"},{"group":"hexagon_tri","fractal_assignment":["../images/cyn_red.png","../images/gry_blk.png","../images/pnk_blu.png","../images/org_blu.png","../images/blu_wht.png","../images/ylw_slt.png"],"mutagen_generator_assignment":[1,0],"goal":0,"start":2,"action_noise":0.15,"location_history":"[2,3,4,0]","action_history":"[1,1,0]","mutagen_history":"[0,0,1]","location_rts":"[969,435,472]","trial_type":"fractal-mutation","trial_index":78,"time_elapsed":1059128,"internal_node_id":"0.0-5.0-24.0"},{"group":"hexagon_tri","fractal_assignment":["../images/cyn_red.png","../images/gry_blk.png","../images/pnk_blu.png","../images/org_blu.png","../images/blu_wht.png","../images/ylw_slt.png"],"mutagen_generator_assignment":[1,0],"goal":5,"start":0,"action_noise":0.15,"location_history":"[0,5]","action_history":"[0]","mutagen_history":"[1]","location_rts":"[1215]","trial_type":"fractal-mutation","trial_index":79,"time_elapsed":1065022,"internal_node_id":"0.0-5.0-25.0"},{"group":"hexagon_tri","fractal_assignment":["../images/cyn_red.png","../images/gry_blk.png","../images/pnk_blu.png","../images/org_blu.png","../images/blu_wht.png","../images/ylw_slt.png"],"mutagen_generator_assignment":[1,0],"goal":2,"start":5,"action_noise":0.15,"location_history":"[5,0,1,5,4,0,5,0,5,0,1,5,0,1,3,2]","action_history":"[1,1,1,0,0,0,0,0,1,1,1,1,1,1,0]","mutagen_history":"[0,0,0,1,1,1,1,1,0,0,0,0,0,0,1]","location_rts":"[1257,597,326,912,247,169,89,393,1290,224,265,379,412,263,707]","trial_type":"fractal-mutation","trial_index":80,"time_elapsed":1093094,"internal_node_id":"0.0-5.0-26.0"},{"group":"hexagon_tri","fractal_assignment":["../images/cyn_red.png","../images/gry_blk.png","../images/pnk_blu.png","../images/org_blu.png","../images/blu_wht.png","../images/ylw_slt.png"],"mutagen_generator_assignment":[1,0],"goal":3,"start":2,"action_noise":0.15,"location_history":"[2,1,5,0,1,3]","action_history":"[1,1,1,1,0]","mutagen_history":"[0,0,0,0,1]","location_rts":"[4797,779,1502,408,100]","trial_type":"fractal-mutation","trial_index":81,"time_elapsed":1109785,"internal_node_id":"0.0-5.0-27.0"},{"group":"hexagon_tri","fractal_assignment":["../images/cyn_red.png","../images/gry_blk.png","../images/pnk_blu.png","../images/org_blu.png","../images/blu_wht.png","../images/ylw_slt.png"],"mutagen_generator_assignment":[1,0],"goal":0,"start":3,"action_noise":0.15,"location_history":"[3,4,0]","action_history":"[1,1]","mutagen_history":"[0,0]","location_rts":"[301,396]","trial_type":"fractal-mutation","trial_index":82,"time_elapsed":1116215,"internal_node_id":"0.0-5.0-28.0"},{"group":"hexagon_tri","fractal_assignment":["../images/cyn_red.png","../images/gry_blk.png","../images/pnk_blu.png","../images/org_blu.png","../images/blu_wht.png","../images/ylw_slt.png"],"mutagen_generator_assignment":[1,0],"goal":1,"start":0,"action_noise":0.15,"location_history":"[0,5,4,0,5,4,2,3,4,2,3,4,0,5,4,2,3,2,3,4,0,5,4,0,1]","action_history":"[0,0,0,0,0,0,1,1,1,1,1,0,1,1,1,1,0,0,0,0,0,0,0,0]","mutagen_history":"[1,1,1,1,1,1,0,0,0,0,0,1,0,0,0,0,1,1,1,1,1,1,1,1]","location_rts":"[690,153,277,481,47,128,130,356,200,1343,360,634,564,174,143,204,115,140,43,199,95,522,434,1416]","trial_type":"fractal-mutation","trial_index":83,"time_elapsed":1156171,"internal_node_id":"0.0-5.0-29.0"},{"group":"hexagon_tri","fractal_assignment":["../images/cyn_red.png","../images/gry_blk.png","../images/pnk_blu.png","../images/org_blu.png","../images/blu_wht.png","../images/ylw_slt.png"],"mutagen_generator_assignment":[1,0],"goal":4,"start":1,"action_noise":0.15,"location_history":"[1,5,0,1,5,4]","action_history":"[1,1,1,1,0]","mutagen_history":"[0,0,0,0,1]","location_rts":"[1008,433,392,397,501]","trial_type":"fractal-mutation","trial_index":84,"time_elapsed":1168018,"internal_node_id":"0.0-5.0-30.0"},{"group":"hexagon_tri","fractal_assignment":["../images/cyn_red.png","../images/gry_blk.png","../images/pnk_blu.png","../images/org_blu.png","../images/blu_wht.png","../images/ylw_slt.png"],"mutagen_generator_assignment":[1,0],"goal":5,"start":4,"action_noise":0.15,"location_history":"[4,2,3,2,1,3,2,1,5]","action_history":"[1,1,0,0,0,0,0,0]","mutagen_history":"[0,0,1,1,1,1,1,1]","location_rts":"[786,465,418,60,137,49,679,612]","trial_type":"fractal-mutation","trial_index":85,"time_elapsed":1184020,"internal_node_id":"0.0-5.0-31.0"},{"group":"hexagon_tri","fractal_assignment":["../images/cyn_red.png","../images/gry_blk.png","../images/pnk_blu.png","../images/org_blu.png","../images/blu_wht.png","../images/ylw_slt.png"],"mutagen_generator_assignment":[1,0],"goal":0,"start":5,"action_noise":0.15,"location_history":"[5,4,2,3,4,2,1,3,2,1,3,2,1,3,2,3,4,2,1,5,4,0]","action_history":"[1,1,1,1,1,0,0,0,0,0,0,0,1,0,1,1,1,0,0,0,0]","mutagen_history":"[0,0,0,0,0,1,1,1,1,1,1,1,0,1,0,0,0,1,1,1,1]","location_rts":"[990,502,107,439,431,415,243,1095,316,139,31,501,167,104,370,205,536,176,108,17,77]","trial_type":"fractal-mutation","trial_index":86,"time_elapsed":1218593,"internal_node_id":"0.0-5.0-32.0"},{"group":"hexagon_tri","fractal_assignment":["../images/cyn_red.png","../images/gry_blk.png","../images/pnk_blu.png","../images/org_blu.png","../images/blu_wht.png","../images/ylw_slt.png"],"mutagen_generator_assignment":[1,0],"goal":3,"start":0,"action_noise":0.15,"location_history":"[0,1,3]","action_history":"[1,1]","mutagen_history":"[0,0]","location_rts":"[1234,240]","trial_type":"fractal-mutation","trial_index":87,"time_elapsed":1225781,"internal_node_id":"0.0-5.0-33.0"},{"group":"hexagon_tri","fractal_assignment":["../images/cyn_red.png","../images/gry_blk.png","../images/pnk_blu.png","../images/org_blu.png","../images/blu_wht.png","../images/ylw_slt.png"],"mutagen_generator_assignment":[1,0],"goal":1,"start":3,"action_noise":0.15,"location_history":"[3,2,1]","action_history":"[0,0]","mutagen_history":"[1,1]","location_rts":"[1395,308]","trial_type":"fractal-mutation","trial_index":88,"time_elapsed":1233356,"internal_node_id":"0.0-5.0-34.0"},{"group":"hexagon_tri","fractal_assignment":["../images/cyn_red.png","../images/gry_blk.png","../images/pnk_blu.png","../images/org_blu.png","../images/blu_wht.png","../images/ylw_slt.png"],"mutagen_generator_assignment":[1,0],"goal":2,"start":1,"action_noise":0.15,"location_history":"[1,3,2]","action_history":"[0,0]","mutagen_history":"[1,1]","location_rts":"[1310,672]","trial_type":"fractal-mutation","trial_index":89,"time_elapsed":1241197,"internal_node_id":"0.0-5.0-35.0"},{"group":"hexagon_tri","fractal_assignment":["../images/cyn_red.png","../images/gry_blk.png","../images/pnk_blu.png","../images/org_blu.png","../images/blu_wht.png","../images/ylw_slt.png"],"mutagen_generator_assignment":[1,0],"goal":4,"start":2,"action_noise":0.15,"location_history":"[2,3,2,3,4]","action_history":"[1,1,1,1]","mutagen_history":"[0,0,0,0]","location_rts":"[1583,143,463,478]","trial_type":"fractal-mutation","trial_index":90,"time_elapsed":1251813,"internal_node_id":"0.0-5.0-36.0"},{"group":"hexagon_tri","fractal_assignment":["../images/cyn_red.png","../images/gry_blk.png","../images/pnk_blu.png","../images/org_blu.png","../images/blu_wht.png","../images/ylw_slt.png"],"mutagen_generator_assignment":[1,0],"goal":5,"start":4,"action_noise":0.15,"location_history":"[4,0,5]","action_history":"[0,0]","mutagen_history":"[1,1]","location_rts":"[1485,367]","trial_type":"fractal-mutation","trial_index":91,"time_elapsed":1259532,"internal_node_id":"0.0-5.0-37.0"},{"group":"hexagon_tri","fractal_assignment":["../images/cyn_red.png","../images/gry_blk.png","../images/pnk_blu.png","../images/org_blu.png","../images/blu_wht.png","../images/ylw_slt.png"],"mutagen_generator_assignment":[1,0],"goal":1,"start":5,"action_noise":0.15,"location_history":"[5,4,2,1]","action_history":"[0,0,0]","mutagen_history":"[1,1,1]","location_rts":"[1544,375,156]","trial_type":"fractal-mutation","trial_index":92,"time_elapsed":1268645,"internal_node_id":"0.0-5.0-38.0"},{"group":"hexagon_tri","fractal_assignment":["../images/cyn_red.png","../images/gry_blk.png","../images/pnk_blu.png","../images/org_blu.png","../images/blu_wht.png","../images/ylw_slt.png"],"mutagen_generator_assignment":[1,0],"goal":4,"start":1,"action_noise":0.15,"location_history":"[1,5,0,1,5,0,5,4]","action_history":"[1,1,1,1,1,1,0]","mutagen_history":"[0,0,0,0,0,0,1]","location_rts":"[1953,327,591,685,425,278,761]","trial_type":"fractal-mutation","trial_index":93,"time_elapsed":1284978,"internal_node_id":"0.0-5.0-39.0"},{"group":"hexagon_tri","fractal_assignment":["../images/cyn_red.png","../images/gry_blk.png","../images/pnk_blu.png","../images/org_blu.png","../images/blu_wht.png","../images/ylw_slt.png"],"mutagen_generator_assignment":[1,0],"goal":3,"start":4,"action_noise":0.15,"location_history":"[4,2,1,3]","action_history":"[1,0,0]","mutagen_history":"[0,1,1]","location_rts":"[1128,755,273]","trial_type":"fractal-mutation","trial_index":94,"time_elapsed":1294102,"internal_node_id":"0.0-5.0-40.0"},{"group":"hexagon_tri","fractal_assignment":["../images/cyn_red.png","../images/gry_blk.png","../images/pnk_blu.png","../images/org_blu.png","../images/blu_wht.png","../images/ylw_slt.png"],"mutagen_generator_assignment":[1,0],"goal":2,"start":3,"action_noise":0.15,"location_history":"[3,2]","action_history":"[0]","mutagen_history":"[1]","location_rts":"[997]","trial_type":"fractal-mutation","trial_index":95,"time_elapsed":1299784,"internal_node_id":"0.0-5.0-41.0"},{"group":"hexagon_tri","fractal_assignment":["../images/cyn_red.png","../images/gry_blk.png","../images/pnk_blu.png","../images/org_blu.png","../images/blu_wht.png","../images/ylw_slt.png"],"mutagen_generator_assignment":[1,0],"goal":0,"start":2,"action_noise":0.15,"location_history":"[2,3,4,0]","action_history":"[0,0,0]","mutagen_history":"[1,1,1]","location_rts":"[864,463,455]","trial_type":"fractal-mutation","trial_index":96,"time_elapsed":1308609,"internal_node_id":"0.0-5.0-42.0"},{"group":"hexagon_tri","fractal_assignment":["../images/cyn_red.png","../images/gry_blk.png","../images/pnk_blu.png","../images/org_blu.png","../images/blu_wht.png","../images/ylw_slt.png"],"mutagen_generator_assignment":[1,0],"goal":5,"start":0,"action_noise":0.15,"location_history":"[0,1,5]","action_history":"[1,1]","mutagen_history":"[0,0]","location_rts":"[1784,472]","trial_type":"fractal-mutation","trial_index":97,"time_elapsed":1316598,"internal_node_id":"0.0-5.0-43.0"},{"group":"hexagon_tri","fractal_assignment":["../images/cyn_red.png","../images/gry_blk.png","../images/pnk_blu.png","../images/org_blu.png","../images/blu_wht.png","../images/ylw_slt.png"],"mutagen_generator_assignment":[1,0],"goal":0,"start":5,"action_noise":0.15,"location_history":"[5,4,0]","action_history":"[0,0]","mutagen_history":"[1,1]","location_rts":"[768,296]","trial_type":"fractal-mutation","trial_index":98,"time_elapsed":1323517,"internal_node_id":"0.0-5.0-44.0"},{"group":"hexagon_tri","fractal_assignment":["../images/cyn_red.png","../images/gry_blk.png","../images/pnk_blu.png","../images/org_blu.png","../images/blu_wht.png","../images/ylw_slt.png"],"mutagen_generator_assignment":[1,0],"goal":2,"start":0,"action_noise":0.15,"location_history":"[0,5,4,2]","action_history":"[0,0,0]","mutagen_history":"[1,1,1]","location_rts":"[883,189,87]","trial_type":"fractal-mutation","trial_index":99,"time_elapsed":1331731,"internal_node_id":"0.0-5.0-45.0"},{"group":"hexagon_tri","fractal_assignment":["../images/cyn_red.png","../images/gry_blk.png","../images/pnk_blu.png","../images/org_blu.png","../images/blu_wht.png","../images/ylw_slt.png"],"mutagen_generator_assignment":[1,0],"goal":4,"start":2,"action_noise":0.15,"location_history":"[2,3,4]","action_history":"[1,1]","mutagen_history":"[0,0]","location_rts":"[1960,267]","trial_type":"fractal-mutation","trial_index":100,"time_elapsed":1339671,"internal_node_id":"0.0-5.0-46.0"},{"group":"hexagon_tri","fractal_assignment":["../images/cyn_red.png","../images/gry_blk.png","../images/pnk_blu.png","../images/org_blu.png","../images/blu_wht.png","../images/ylw_slt.png"],"mutagen_generator_assignment":[1,0],"goal":1,"start":4,"action_noise":0.15,"location_history":"[4,0,5,4,2,1]","action_history":"[0,0,0,1,1]","mutagen_history":"[1,1,1,0,0]","location_rts":"[940,398,360,1477,945]","trial_type":"fractal-mutation","trial_index":101,"time_elapsed":1353058,"internal_node_id":"0.0-5.0-47.0"},{"group":"hexagon_tri","fractal_assignment":["../images/cyn_red.png","../images/gry_blk.png","../images/pnk_blu.png","../images/org_blu.png","../images/blu_wht.png","../images/ylw_slt.png"],"mutagen_generator_assignment":[1,0],"goal":5,"start":1,"action_noise":0.15,"location_history":"[1,3,2,1,3,2,1,5]","action_history":"[0,0,0,0,0,0,1]","mutagen_history":"[1,1,1,1,1,1,0]","location_rts":"[1426,2397,589,230,193,410,102]","trial_type":"fractal-mutation","trial_index":102,"time_elapsed":1370085,"internal_node_id":"0.0-5.0-48.0"},{"group":"hexagon_tri","fractal_assignment":["../images/cyn_red.png","../images/gry_blk.png","../images/pnk_blu.png","../images/org_blu.png","../images/blu_wht.png","../images/ylw_slt.png"],"mutagen_generator_assignment":[1,0],"goal":3,"start":5,"action_noise":0.15,"location_history":"[5,0,1,5,0,5,0,1,5,4,0,1,5,0,1,5,4,0,5,4,2,3]","action_history":"[1,1,1,1,0,1,1,1,0,0,1,1,1,1,1,0,0,0,0,1,1]","mutagen_history":"[0,0,0,0,1,0,0,0,1,1,0,0,0,0,0,1,1,1,1,0,0]","location_rts":"[5453,168,100,542,2651,912,583,93,349,681,1202,148,397,552,861,428,736,230,1204,541,471]","trial_type":"fractal-mutation","trial_index":103,"time_elapsed":1415694,"internal_node_id":"0.0-5.0-49.0"},{"view_history":"[{\"page_index\":0,\"viewing_time\":12275}]","rt":12275,"trial_type":"instructions","trial_index":104,"time_elapsed":1428973,"internal_node_id":"0.0-6.0"},{"rt":4123,"responses":"{\"Q0\":\"None\"}","trial_type":"survey-text","trial_index":105,"time_elapsed":1434107,"internal_node_id":"0.0-7.0"}]