[{"view_history":"[{\"page_index\":0,\"viewing_time\":25246},{\"page_index\":1,\"viewing_time\":15152}]","rt":40398,"trial_type":"instructions","trial_index":0,"time_elapsed":40398,"internal_node_id":"0.0-0.0"},{"view_history":"[{\"page_index\":0,\"viewing_time\":1365},{\"page_index\":1,\"viewing_time\":11288}]","rt":12654,"trial_type":"instructions","trial_index":1,"time_elapsed":54054,"internal_node_id":"0.0-1.0"},{"group":"hexagon_tri","room_assignment":["blue","red","purple","grey","green","yellow"],"door_color_assignment":["white","black"],"door_generator_assignment":[1,0],"goal":3,"start":5,"action_noise":0.15,"location_history":"[5,0,1,3]","action_history":"[1,1,1]","door_history":"[0,0,0]","location_rts":"[2728,744,302]","trial_type":"two-door-navigation","trial_index":2,"time_elapsed":64647,"internal_node_id":"0.0-2.0-0.0"},{"group":"hexagon_tri","room_assignment":["blue","red","purple","grey","green","yellow"],"door_color_assignment":["white","black"],"door_generator_assignment":[1,0],"goal":1,"start":3,"action_noise":0.15,"location_history":"[3,2,3,2,3,4,2,3,4,2,1]","action_history":"[0,1,0,1,1,1,1,1,1,0]","door_history":"[1,0,1,0,0,0,0,0,0,1]","location_rts":"[1494,209,156,866,256,1003,232,248,1286,826]","trial_type":"two-door-navigation","trial_index":3,"time_elapsed":86647,"internal_node_id":"0.0-2.0-1.0"},{"group":"hexagon_tri","room_assignment":["blue","red","purple","grey","green","yellow"],"door_color_assignment":["white","black"],"door_generator_assignment":[1,0],"goal":0,"start":1,"action_noise":0.15,"location_history":"[1,5,4,2,1,5,0]","action_history":"[1,1,1,0,1,1]","door_history":"[0,0,0,1,0,0]","location_rts":"[30733,279,171,124,72,265]","trial_type":"two-door-navigation","trial_index":4,"time_elapsed":127983,"internal_node_id":"0.0-2.0-2.0"},{"group":"hexagon_tri","room_assignment":["blue","red","purple","grey","green","yellow"],"door_color_assignment":["white","black"],"door_generator_assignment":[1,0],"goal":3,"start":0,"action_noise":0.15,"location_history":"[0,1,3]","action_history":"[1,0]","door_history":"[0,1]","location_rts":"[2188,218]","trial_type":"two-door-navigation","trial_index":5,"time_elapsed":135938,"internal_node_id":"0.0-2.0-3.0"},{"group":"hexagon_tri","room_assignment":["blue","red","purple","grey","green","yellow"],"door_color_assignment":["white","black"],"door_generator_assignment":[1,0],"goal":4,"start":3,"action_noise":0.15,"location_history":"[3,4]","action_history":"[1]","door_history":"[0]","location_rts":"[24325]","trial_type":"two-door-navigation","trial_index":6,"time_elapsed":165647,"internal_node_id":"0.0-2.0-4.0"},{"group":"hexagon_tri","room_assignment":["blue","red","purple","grey","green","yellow"],"door_color_assignment":["white","black"],"door_generator_assignment":[1,0],"goal":2,"start":4,"action_noise":0.15,"location_history":"[4,0,1,5,4,2]","action_history":"[1,1,1,1,1]","door_history":"[0,0,0,0,0]","location_rts":"[1535,34,273,160,42]","trial_type":"two-door-navigation","trial_index":7,"time_elapsed":176304,"internal_node_id":"0.0-2.0-5.0"},{"group":"hexagon_tri","room_assignment":["blue","red","purple","grey","green","yellow"],"door_color_assignment":["white","black"],"door_generator_assignment":[1,0],"goal":1,"start":2,"action_noise":0.15,"location_history":"[2,3,4,2,1]","action_history":"[1,1,1,1]","door_history":"[0,0,0,0]","location_rts":"[2859,45,402,141]","trial_type":"two-door-navigation","trial_index":8,"time_elapsed":187341,"internal_node_id":"0.0-2.0-6.0"},{"group":"hexagon_tri","room_assignment":["blue","red","purple","grey","green","yellow"],"door_color_assignment":["white","black"],"door_generator_assignment":[1,0],"goal":5,"start":1,"action_noise":0.15,"location_history":"[1,5]","action_history":"[1]","door_history":"[0]","location_rts":"[211705]","trial_type":"two-door-navigation","trial_index":9,"time_elapsed":404022,"internal_node_id":"0.0-2.0-7.0"},{"group":"hexagon_tri","room_assignment":["blue","red","purple","grey","green","yellow"],"door_color_assignment":["white","black"],"door_generator_assignment":[1,0],"goal":4,"start":5,"action_noise":0.15,"location_history":"[5,0,1,3,4]","action_history":"[1,1,1,1]","door_history":"[0,0,0,0]","location_rts":"[902,68,217,87]","trial_type":"two-door-navigation","trial_index":10,"time_elapsed":412894,"internal_node_id":"0.0-2.0-8.0"},{"group":"hexagon_tri","room_assignment":["blue","red","purple","grey","green","yellow"],"door_color_assignment":["white","black"],"door_generator_assignment":[1,0],"goal":2,"start":4,"action_noise":0.15,"location_history":"[4,2]","action_history":"[1]","door_history":"[0]","location_rts":"[3524]","trial_type":"two-door-navigation","trial_index":11,"time_elapsed":420943,"internal_node_id":"0.0-2.0-9.0"},{"group":"hexagon_tri","room_assignment":["blue","red","purple","grey","green","yellow"],"door_color_assignment":["white","black"],"door_generator_assignment":[1,0],"goal":0,"start":2,"action_noise":0.15,"location_history":"[2,3,4,2,3,2,3,4,2,3,2,3,2,1,5,0]","action_history":"[1,1,1,1,0,1,1,1,1,0,1,0,0,1,1]","door_history":"[0,0,0,0,1,0,0,0,0,1,0,1,1,0,0]","location_rts":"[29301,107,82,411,556,262,2840,194,239,268,250,373,627,387,429]","trial_type":"two-door-navigation","trial_index":12,"time_elapsed":476088,"internal_node_id":"0.0-2.0-10.0"},{"group":"hexagon_tri","room_assignment":["blue","red","purple","grey","green","yellow"],"door_color_assignment":["white","black"],"door_generator_assignment":[1,0],"goal":1,"start":0,"action_noise":0.15,"location_history":"[0,1]","action_history":"[1]","door_history":"[0]","location_rts":"[5080]","trial_type":"two-door-navigation","trial_index":13,"time_elapsed":485692,"internal_node_id":"0.0-2.0-11.0"},{"group":"hexagon_tri","room_assignment":["blue","red","purple","grey","green","yellow"],"door_color_assignment":["white","black"],"door_generator_assignment":[1,0],"goal":3,"start":1,"action_noise":0.15,"location_history":"[1,5,0,1,3]","action_history":"[1,1,1,1]","door_history":"[0,0,0,0]","location_rts":"[295,187,3,53]","trial_type":"two-door-navigation","trial_index":14,"time_elapsed":493816,"internal_node_id":"0.0-2.0-12.0"},{"group":"hexagon_tri","room_assignment":["blue","red","purple","grey","green","yellow"],"door_color_assignment":["white","black"],"door_generator_assignment":[1,0],"goal":5,"start":3,"action_noise":0.15,"location_history":"[3,4,0,1,3,4,2,3,4,2,3,4,2,3,2,3,4,0,1,5]","action_history":"[1,1,1,0,1,1,1,1,0,1,1,1,1,0,1,0,1,1,1]","door_history":"[0,0,0,1,0,0,0,0,1,0,0,0,0,1,0,1,0,0,0]","location_rts":"[941,475,405,223,215,249,107,106,1170,665,306,403,1635,933,347,130,781,616,445]","trial_type":"two-door-navigation","trial_index":15,"time_elapsed":526881,"internal_node_id":"0.0-2.0-13.0"},{"group":"hexagon_tri","room_assignment":["blue","red","purple","grey","green","yellow"],"door_color_assignment":["white","black"],"door_generator_assignment":[1,0],"goal":4,"start":5,"action_noise":0.15,"location_history":"[5,0,1,5,4]","action_history":"[1,1,1,1]","door_history":"[0,0,0,0]","location_rts":"[365,319,153,110]","trial_type":"two-door-navigation","trial_index":16,"time_elapsed":535417,"internal_node_id":"0.0-2.0-14.0"},{"group":"hexagon_tri","room_assignment":["blue","red","purple","grey","green","yellow"],"door_color_assignment":["white","black"],"door_generator_assignment":[1,0],"goal":0,"start":4,"action_noise":0.15,"location_history":"[4,2,3,4,2,3,4,2,3,4,2,3,4,0]","action_history":"[1,1,1,1,1,1,1,1,1,1,1,1,0]","door_history":"[0,0,0,0,0,0,0,0,0,0,0,0,1]","location_rts":"[353,39,305,246,266,43,503,237,117,276,226,286,85]","trial_type":"two-door-navigation","trial_index":17,"time_elapsed":555168,"internal_node_id":"0.0-2.0-15.0"},{"group":"hexagon_tri","room_assignment":["blue","red","purple","grey","green","yellow"],"door_color_assignment":["white","black"],"door_generator_assignment":[1,0],"goal":3,"start":0,"action_noise":0.15,"location_history":"[0,1,5,0,5,0,1,5,4,0,1,5,0,1,5,4,2,1,3]","action_history":"[1,1,1,0,1,1,1,1,0,1,1,1,1,1,0,1,1,1]","door_history":"[0,0,0,1,0,0,0,0,1,0,0,0,0,0,1,0,0,0]","location_rts":"[253,313,396,34,267,218,268,227,2755,161,633,257,489,337,251,551,231,625]","trial_type":"two-door-navigation","trial_index":18,"time_elapsed":585322,"internal_node_id":"0.0-2.0-16.0"},{"group":"hexagon_tri","room_assignment":["blue","red","purple","grey","green","yellow"],"door_color_assignment":["white","black"],"door_generator_assignment":[1,0],"goal":1,"start":3,"action_noise":0.15,"location_history":"[3,4,2,3,2,1]","action_history":"[1,1,1,1,0]","door_history":"[0,0,0,0,1]","location_rts":"[1439,244,66,370,31798]","trial_type":"two-door-navigation","trial_index":19,"time_elapsed":627852,"internal_node_id":"0.0-2.0-17.0"},{"group":"hexagon_tri","room_assignment":["blue","red","purple","grey","green","yellow"],"door_color_assignment":["white","black"],"door_generator_assignment":[1,0],"goal":5,"start":1,"action_noise":0.15,"location_history":"[1,3,4,2,1,5]","action_history":"[1,1,1,0,1]","door_history":"[0,0,0,1,0]","location_rts":"[360,296,238,89,196]","trial_type":"two-door-navigation","trial_index":20,"time_elapsed":637640,"internal_node_id":"0.0-2.0-18.0"},{"group":"hexagon_tri","room_assignment":["blue","red","purple","grey","green","yellow"],"door_color_assignment":["white","black"],"door_generator_assignment":[1,0],"goal":2,"start":5,"action_noise":0.15,"location_history":"[5,4,2]","action_history":"[1,1]","door_history":"[0,0]","location_rts":"[139,452]","trial_type":"two-door-navigation","trial_index":21,"time_elapsed":643773,"internal_node_id":"0.0-2.0-19.0"},{"group":"hexagon_tri","room_assignment":["blue","red","purple","grey","green","yellow"],"door_color_assignment":["white","black"],"door_generator_assignment":[1,0],"goal":4,"start":2,"action_noise":0.15,"location_history":"[2,3,4]","action_history":"[1,1]","door_history":"[0,0]","location_rts":"[661,440]","trial_type":"two-door-navigation","trial_index":22,"time_elapsed":650424,"internal_node_id":"0.0-2.0-20.0"},{"group":"hexagon_tri","room_assignment":["blue","red","purple","grey","green","yellow"],"door_color_assignment":["white","black"],"door_generator_assignment":[1,0],"goal":1,"start":4,"action_noise":0.15,"location_history":"[4,2,3,4,2,3,4,2,3,4,0,1]","action_history":"[1,1,1,0,1,1,1,1,1,0,1]","door_history":"[0,0,0,1,0,0,0,0,0,1,0]","location_rts":"[661,29,537,26,171,258,111,4,101,241,252]","trial_type":"two-door-navigation","trial_index":23,"time_elapsed":667540,"internal_node_id":"0.0-2.0-21.0"},{"group":"hexagon_tri","room_assignment":["blue","red","purple","grey","green","yellow"],"door_color_assignment":["white","black"],"door_generator_assignment":[1,0],"goal":3,"start":1,"action_noise":0.15,"location_history":"[1,5,4,2,3]","action_history":"[1,1,1,1]","door_history":"[0,0,0,0]","location_rts":"[606,189,60,227]","trial_type":"two-door-navigation","trial_index":24,"time_elapsed":676236,"internal_node_id":"0.0-2.0-22.0"},{"group":"hexagon_tri","room_assignment":["blue","red","purple","grey","green","yellow"],"door_color_assignment":["white","black"],"door_generator_assignment":[1,0],"goal":2,"start":3,"action_noise":0.15,"location_history":"[3,4,0,1,5,0,1,5,0,5,4,0,5,4,2]","action_history":"[1,1,1,1,1,1,1,1,0,0,0,0,0,1]","door_history":"[0,0,0,0,0,0,0,0,1,1,1,1,1,0]","location_rts":"[984,336,433,379,507,537,354,478,2473,1201,378,569,585,214]","trial_type":"two-door-navigation","trial_index":25,"time_elapsed":704201,"internal_node_id":"0.0-2.0-23.0"},{"group":"hexagon_tri","room_assignment":["blue","red","purple","grey","green","yellow"],"door_color_assignment":["white","black"],"door_generator_assignment":[1,0],"goal":0,"start":2,"action_noise":0.15,"location_history":"[2,3,4,2,3,2,3,4,2,3,2,3,4,2,3,4,2,3,4,2,1,3,4,2,3,4,0]","action_history":"[1,1,1,1,1,1,1,1,1,0,1,1,1,1,1,1,0,1,1,0,1,1,1,1,1,0]","door_history":"[0,0,0,0,0,0,0,0,0,1,0,0,0,0,0,0,1,0,0,1,0,0,0,0,0,1]","location_rts":"[452,308,414,325,15554,114,35,79,43,230,86,145,159,204,116,101,332,100,86,189,93,36,10,1112,281,692]","trial_type":"two-door-navigation","trial_index":26,"time_elapsed":755530,"internal_node_id":"0.0-2.0-24.0"},{"group":"hexagon_tri","room_assignment":["blue","red","purple","grey","green","yellow"],"door_color_assignment":["white","black"],"door_generator_assignment":[1,0],"goal":5,"start":0,"action_noise":0.15,"location_history":"[0,5]","action_history":"[1]","door_history":"[0]","location_rts":"[400]","trial_type":"two-door-navigation","trial_index":27,"time_elapsed":760457,"internal_node_id":"0.0-2.0-25.0"},{"group":"hexagon_tri","room_assignment":["blue","red","purple","grey","green","yellow"],"door_color_assignment":["white","black"],"door_generator_assignment":[1,0],"goal":2,"start":5,"action_noise":0.15,"location_history":"[5,0,1,3,4,2]","action_history":"[1,1,0,1,1]","door_history":"[0,0,1,0,0]","location_rts":"[1028,279,425,212,1223]","trial_type":"two-door-navigation","trial_index":28,"time_elapsed":772230,"internal_node_id":"0.0-2.0-26.0"},{"group":"hexagon_tri","room_assignment":["blue","red","purple","grey","green","yellow"],"door_color_assignment":["white","black"],"door_generator_assignment":[1,0],"goal":3,"start":2,"action_noise":0.15,"location_history":"[2,3]","action_history":"[1]","door_history":"[0]","location_rts":"[19797]","trial_type":"two-door-navigation","trial_index":29,"time_elapsed":796551,"internal_node_id":"0.0-2.0-27.0"},{"group":"hexagon_tri","room_assignment":["blue","red","purple","grey","green","yellow"],"door_color_assignment":["white","black"],"door_generator_assignment":[1,0],"goal":0,"start":3,"action_noise":0.15,"location_history":"[3,4,2,1,5,0]","action_history":"[1,1,0,1,1]","door_history":"[0,0,1,0,0]","location_rts":"[317,125,21,130,70]","trial_type":"two-door-navigation","trial_index":30,"time_elapsed":805820,"internal_node_id":"0.0-2.0-28.0"},{"group":"hexagon_tri","room_assignment":["blue","red","purple","grey","green","yellow"],"door_color_assignment":["white","black"],"door_generator_assignment":[1,0],"goal":1,"start":0,"action_noise":0.15,"location_history":"[0,1]","action_history":"[1]","door_history":"[0]","location_rts":"[471]","trial_type":"two-door-navigation","trial_index":31,"time_elapsed":810818,"internal_node_id":"0.0-2.0-29.0"},{"group":"hexagon_tri","room_assignment":["blue","red","purple","grey","green","yellow"],"door_color_assignment":["white","black"],"door_generator_assignment":[1,0],"goal":4,"start":1,"action_noise":0.15,"location_history":"[1,5,0,1,3,2,3,4]","action_history":"[1,1,1,1,1,1,1]","door_history":"[0,0,0,0,0,0,0]","location_rts":"[354,21,161,14,41,56,50]","trial_type":"two-door-navigation","trial_index":32,"time_elapsed":822170,"internal_node_id":"0.0-2.0-30.0"},{"group":"hexagon_tri","room_assignment":["blue","red","purple","grey","green","yellow"],"door_color_assignment":["white","black"],"door_generator_assignment":[1,0],"goal":5,"start":4,"action_noise":0.15,"location_history":"[4,2,3,4,2,3,2,3,2,1,5]","action_history":"[1,1,1,1,1,0,1,0,0,1]","door_history":"[0,0,0,0,0,1,0,1,1,0]","location_rts":"[727,54,148,225,335,3848,176,78,300,650]","trial_type":"two-door-navigation","trial_index":33,"time_elapsed":842417,"internal_node_id":"0.0-2.0-31.0"},{"group":"hexagon_tri","room_assignment":["blue","red","purple","grey","green","yellow"],"door_color_assignment":["white","black"],"door_generator_assignment":[1,0],"goal":0,"start":5,"action_noise":0.15,"location_history":"[5,0]","action_history":"[1]","door_history":"[0]","location_rts":"[23593]","trial_type":"two-door-navigation","trial_index":34,"time_elapsed":870537,"internal_node_id":"0.0-2.0-32.0"},{"group":"hexagon_tri","room_assignment":["blue","red","purple","grey","green","yellow"],"door_color_assignment":["white","black"],"door_generator_assignment":[1,0],"goal":3,"start":0,"action_noise":0.15,"location_history":"[0,1,3]","action_history":"[1,0]","door_history":"[0,1]","location_rts":"[6974,312]","trial_type":"two-door-navigation","trial_index":35,"time_elapsed":883376,"internal_node_id":"0.0-2.0-33.0"},{"group":"hexagon_tri","room_assignment":["blue","red","purple","grey","green","yellow"],"door_color_assignment":["white","black"],"door_generator_assignment":[1,0],"goal":1,"start":3,"action_noise":0.15,"location_history":"[3,2,3,4,2,3,4,0,1]","action_history":"[1,1,1,1,0,1,0,1]","door_history":"[0,0,0,0,1,0,1,0]","location_rts":"[554,303,436,45,550,229,391,611]","trial_type":"two-door-navigation","trial_index":36,"time_elapsed":898169,"internal_node_id":"0.0-2.0-34.0"},{"group":"hexagon_tri","room_assignment":["blue","red","purple","grey","green","yellow"],"door_color_assignment":["white","black"],"door_generator_assignment":[1,0],"goal":2,"start":1,"action_noise":0.15,"location_history":"[1,5,4,2]","action_history":"[1,0,1]","door_history":"[0,1,0]","location_rts":"[403,84,79]","trial_type":"two-door-navigation","trial_index":37,"time_elapsed":905293,"internal_node_id":"0.0-2.0-35.0"},{"group":"hexagon_tri","room_assignment":["blue","red","purple","grey","green","yellow"],"door_color_assignment":["white","black"],"door_generator_assignment":[1,0],"goal":4,"start":2,"action_noise":0.15,"location_history":"[2,3,2,3,4]","action_history":"[1,0,1,1]","door_history":"[0,1,0,0]","location_rts":"[285,232,525,301]","trial_type":"two-door-navigation","trial_index":38,"time_elapsed":914212,"internal_node_id":"0.0-2.0-36.0"},{"group":"hexagon_tri","room_assignment":["blue","red","purple","grey","green","yellow"],"door_color_assignment":["white","black"],"door_generator_assignment":[1,0],"goal":5,"start":4,"action_noise":0.15,"location_history":"[4,0,1,3,4,2,1,5]","action_history":"[1,1,0,1,1,1,1]","door_history":"[0,0,1,0,0,0,0]","location_rts":"[464,203,25,129,386,209,335]","trial_type":"two-door-navigation","trial_index":39,"time_elapsed":926618,"internal_node_id":"0.0-2.0-37.0"},{"group":"hexagon_tri","room_assignment":["blue","red","purple","grey","green","yellow"],"door_color_assignment":["white","black"],"door_generator_assignment":[1,0],"goal":1,"start":5,"action_noise":0.15,"location_history":"[5,0,5,0,1]","action_history":"[1,0,1,1]","door_history":"[0,1,0,0]","location_rts":"[425,107,166,206]","trial_type":"two-door-navigation","trial_index":40,"time_elapsed":935114,"internal_node_id":"0.0-2.0-38.0"},{"group":"hexagon_tri","room_assignment":["blue","red","purple","grey","green","yellow"],"door_color_assignment":["white","black"],"door_generator_assignment":[1,0],"goal":4,"start":1,"action_noise":0.15,"location_history":"[1,5,0,5,0,1,5,0,1,3,4]","action_history":"[1,1,1,1,1,1,1,1,0,1]","door_history":"[0,0,0,0,0,0,0,0,1,0]","location_rts":"[458,656,280,272,44,428,224,257,332,596]","trial_type":"two-door-navigation","trial_index":41,"time_elapsed":952389,"internal_node_id":"0.0-2.0-39.0"},{"group":"hexagon_tri","room_assignment":["blue","red","purple","grey","green","yellow"],"door_color_assignment":["white","black"],"door_generator_assignment":[1,0],"goal":3,"start":4,"action_noise":0.15,"location_history":"[4,0,1,5,0,1,3]","action_history":"[1,1,1,1,1,0]","door_history":"[0,0,0,0,0,1]","location_rts":"[536,144,321,45,15,86]","trial_type":"two-door-navigation","trial_index":42,"time_elapsed":963177,"internal_node_id":"0.0-2.0-40.0"},{"group":"hexagon_tri","room_assignment":["blue","red","purple","grey","green","yellow"],"door_color_assignment":["white","black"],"door_generator_assignment":[1,0],"goal":2,"start":3,"action_noise":0.15,"location_history":"[3,4,0,1,5,0,5,0,1,5,0,5,0,5,0,1,5,0,5,4,0,5,4,0,1,5,0,5,0,5,0,1,5,0,1,3,4,2]","action_history":"[1,0,1,1,1,0,1,1,1,1,0,1,1,1,1,1,1,0,1,1,1,1,0,1,1,1,1,1,0,1,1,1,1,1,0,1,1]","door_history":"[0,1,0,0,0,1,0,0,0,0,1,0,0,0,0,0,0,1,0,0,0,0,1,0,0,0,0,0,1,0,0,0,0,0,1,0,0]","location_rts":"[501,124,784,243,93,246,230,809,251,66,278,368,625022,109,31867,63,695,206,17,23,475,60,349,158,74,136,92,104,38,91,63,22,317,293,297,464,179]","trial_type":"two-door-navigation","trial_index":43,"time_elapsed":1669643,"internal_node_id":"0.0-2.0-41.0"},{"group":"hexagon_tri","room_assignment":["blue","red","purple","grey","green","yellow"],"door_color_assignment":["white","black"],"door_generator_assignment":[1,0],"goal":0,"start":2,"action_noise":0.15,"location_history":"[2,3,2,3,4,2,1,3,4,0]","action_history":"[1,0,1,1,1,0,1,1,0]","door_history":"[0,1,0,0,0,1,0,0,1]","location_rts":"[737,481,80,66,331,341,120,190,92]","trial_type":"two-door-navigation","trial_index":44,"time_elapsed":1684777,"internal_node_id":"0.0-2.0-42.0"},{"group":"hexagon_tri","room_assignment":["blue","red","purple","grey","green","yellow"],"door_color_assignment":["white","black"],"door_generator_assignment":[1,0],"goal":5,"start":0,"action_noise":0.15,"location_history":"[0,1,5]","action_history":"[1,1]","door_history":"[0,0]","location_rts":"[362,160]","trial_type":"two-door-navigation","trial_index":45,"time_elapsed":1690850,"internal_node_id":"0.0-2.0-43.0"},{"group":"hexagon_tri","room_assignment":["blue","red","purple","grey","green","yellow"],"door_color_assignment":["white","black"],"door_generator_assignment":[1,0],"goal":0,"start":5,"action_noise":0.15,"location_history":"[5,0]","action_history":"[1]","door_history":"[0]","location_rts":"[593]","trial_type":"two-door-navigation","trial_index":46,"time_elapsed":1695967,"internal_node_id":"0.0-2.0-44.0"},{"group":"hexagon_tri","room_assignment":["blue","red","purple","grey","green","yellow"],"door_color_assignment":["white","black"],"door_generator_assignment":[1,0],"goal":2,"start":0,"action_noise":0.15,"location_history":"[0,5,0,5,4,2]","action_history":"[0,1,1,0,1]","door_history":"[1,0,0,1,0]","location_rts":"[5813,1812,1500,221,257]","trial_type":"two-door-navigation","trial_index":47,"time_elapsed":1714169,"internal_node_id":"0.0-2.0-45.0"},{"group":"hexagon_tri","room_assignment":["blue","red","purple","grey","green","yellow"],"door_color_assignment":["white","black"],"door_generator_assignment":[1,0],"goal":4,"start":2,"action_noise":0.15,"location_history":"[2,3,4]","action_history":"[1,1]","door_history":"[0,0]","location_rts":"[1553,64]","trial_type":"two-door-navigation","trial_index":48,"time_elapsed":1721323,"internal_node_id":"0.0-2.0-46.0"},{"group":"hexagon_tri","room_assignment":["blue","red","purple","grey","green","yellow"],"door_color_assignment":["white","black"],"door_generator_assignment":[1,0],"goal":1,"start":4,"action_noise":0.15,"location_history":"[4,2,3,4,2,3,4,2,3,2,3,2,3,4,2,3,2,3,2,3,4,2,3,2,3,4,2,1]","action_history":"[1,1,1,0,1,1,1,1,1,1,0,1,1,1,1,0,1,1,1,1,1,1,0,1,1,1,0]","door_history":"[0,0,0,1,0,0,0,0,0,0,1,0,0,0,0,1,0,0,0,0,0,0,1,0,0,0,1]","location_rts":"[1397,74,480,211,139,1,116,50,117094,79,94,126,87,105,133,98,43,3,84,3,90,84,222,278,92,516,203]","trial_type":"two-door-navigation","trial_index":49,"time_elapsed":1874285,"internal_node_id":"0.0-2.0-47.0"},{"group":"hexagon_tri","room_assignment":["blue","red","purple","grey","green","yellow"],"door_color_assignment":["white","black"],"door_generator_assignment":[1,0],"goal":5,"start":1,"action_noise":0.15,"location_history":"[1,3,4,2,3,4,2,1,5]","action_history":"[1,1,1,1,1,1,0,1]","door_history":"[0,0,0,0,0,0,1,0]","location_rts":"[8613,143,72,45332,190,8,92,206]","trial_type":"two-door-navigation","trial_index":50,"time_elapsed":1940607,"internal_node_id":"0.0-2.0-48.0"},{"group":"hexagon_tri","room_assignment":["blue","red","purple","grey","green","yellow"],"door_color_assignment":["white","black"],"door_generator_assignment":[1,0],"goal":3,"start":5,"action_noise":0.15,"location_history":"[5,0,1,5,4,0,5,0,1,5,0,1,5,0,1,3]","action_history":"[1,1,1,1,0,1,1,1,0,1,1,1,1,1,0]","door_history":"[0,0,0,0,1,0,0,0,1,0,0,0,0,0,1]","location_rts":"[27,67,284,52,579,228,156,220,85,150,69,47,1658,49,112]","trial_type":"two-door-navigation","trial_index":51,"time_elapsed":1963214,"internal_node_id":"0.0-2.0-49.0"},{"view_history":"[{\"page_index\":0,\"viewing_time\":1371}]","rt":1372,"trial_type":"instructions","trial_index":52,"time_elapsed":1965587,"internal_node_id":"0.0-3.0"},{"view_history":"[{\"page_index\":0,\"viewing_time\":751},{\"page_index\":1,\"viewing_time\":1520}]","rt":2271,"trial_type":"instructions","trial_index":53,"time_elapsed":1968858,"internal_node_id":"0.0-4.0"},{"group":"hexagon_tri","fractal_assignment":["../images/org_blu.png","../images/gry_blk.png","../images/ylw_slt.png","../images/cyn_red.png","../images/pnk_blu.png","../images/blu_wht.png"],"mutagen_generator_assignment":[1,0],"goal":3,"start":5,"action_noise":0.15,"location_history":"[5,4,0,1,3]","action_history":"[0,0,0,0]","mutagen_history":"[1,1,1,1]","location_rts":"[1511,269,82,113]","trial_type":"fractal-mutation","trial_index":54,"time_elapsed":1978575,"internal_node_id":"0.0-5.0-0.0"},{"group":"hexagon_tri","fractal_assignment":["../images/org_blu.png","../images/gry_blk.png","../images/ylw_slt.png","../images/cyn_red.png","../images/pnk_blu.png","../images/blu_wht.png"],"mutagen_generator_assignment":[1,0],"goal":1,"start":3,"action_noise":0.15,"location_history":"[3,2,3,2,1]","action_history":"[0,1,0,0]","mutagen_history":"[1,0,1,1]","location_rts":"[366,220,95,487]","trial_type":"fractal-mutation","trial_index":55,"time_elapsed":1987328,"internal_node_id":"0.0-5.0-1.0"},{"group":"hexagon_tri","fractal_assignment":["../images/org_blu.png","../images/gry_blk.png","../images/ylw_slt.png","../images/cyn_red.png","../images/pnk_blu.png","../images/blu_wht.png"],"mutagen_generator_assignment":[1,0],"goal":0,"start":1,"action_noise":0.15,"location_history":"[1,5,4,0]","action_history":"[0,0,1]","mutagen_history":"[1,1,0]","location_rts":"[212,223,180]","trial_type":"fractal-mutation","trial_index":56,"time_elapsed":1994494,"internal_node_id":"0.0-5.0-2.0"},{"group":"hexagon_tri","fractal_assignment":["../images/org_blu.png","../images/gry_blk.png","../images/ylw_slt.png","../images/cyn_red.png","../images/pnk_blu.png","../images/blu_wht.png"],"mutagen_generator_assignment":[1,0],"goal":3,"start":0,"action_noise":0.15,"location_history":"[0,1,3]","action_history":"[1,0]","mutagen_history":"[0,1]","location_rts":"[280,101]","trial_type":"fractal-mutation","trial_index":57,"time_elapsed":2000466,"internal_node_id":"0.0-5.0-3.0"},{"group":"hexagon_tri","fractal_assignment":["../images/org_blu.png","../images/gry_blk.png","../images/ylw_slt.png","../images/cyn_red.png","../images/pnk_blu.png","../images/blu_wht.png"],"mutagen_generator_assignment":[1,0],"goal":4,"start":3,"action_noise":0.15,"location_history":"[3,4]","action_history":"[1]","mutagen_history":"[0]","location_rts":"[17027]","trial_type":"fractal-mutation","trial_index":58,"time_elapsed":2022022,"internal_node_id":"0.0-5.0-4.0"},{"group":"hexagon_tri","fractal_assignment":["../images/org_blu.png","../images/gry_blk.png","../images/ylw_slt.png","../images/cyn_red.png","../images/pnk_blu.png","../images/blu_wht.png"],"mutagen_generator_assignment":[1,0],"goal":2,"start":4,"action_noise":0.15,"location_history":"[4,0,1,3,4,2]","action_history":"[0,1,0,0,0]","mutagen_history":"[1,0,1,1,1]","location_rts":"[609,90,75,119,278]","trial_type":"fractal-mutation","trial_index":59,"time_elapsed":2031923,"internal_node_id":"0.0-5.0-5.0"},{"group":"hexagon_tri","fractal_assignment":["../images/org_blu.png","../images/gry_blk.png","../images/ylw_slt.png","../images/cyn_red.png","../images/pnk_blu.png","../images/blu_wht.png"],"mutagen_generator_assignment":[1,0],"goal":1,"start":2,"action_noise":0.15,"location_history":"[2,1]","action_history":"[0]","mutagen_history":"[1]","location_rts":"[864]","trial_type":"fractal-mutation","trial_index":60,"time_elapsed":2037347,"internal_node_id":"0.0-5.0-6.0"},{"group":"hexagon_tri","fractal_assignment":["../images/org_blu.png","../images/gry_blk.png","../images/ylw_slt.png","../images/cyn_red.png","../images/pnk_blu.png","../images/blu_wht.png"],"mutagen_generator_assignment":[1,0],"goal":5,"start":1,"action_noise":0.15,"location_history":"[1,3,4,0,1,3,2,1,5]","action_history":"[0,0,0,1,0,0,0,0]","mutagen_history":"[1,1,1,0,1,1,1,1]","location_rts":"[902,367,250,275,198,133,365,155]","trial_type":"fractal-mutation","trial_index":61,"time_elapsed":2051914,"internal_node_id":"0.0-5.0-7.0"},{"group":"hexagon_tri","fractal_assignment":["../images/org_blu.png","../images/gry_blk.png","../images/ylw_slt.png","../images/cyn_red.png","../images/pnk_blu.png","../images/blu_wht.png"],"mutagen_generator_assignment":[1,0],"goal":4,"start":5,"action_noise":0.15,"location_history":"[5,4]","action_history":"[0]","mutagen_history":"[1]","location_rts":"[346]","trial_type":"fractal-mutation","trial_index":62,"time_elapsed":2056820,"internal_node_id":"0.0-5.0-8.0"},{"group":"hexagon_tri","fractal_assignment":["../images/org_blu.png","../images/gry_blk.png","../images/ylw_slt.png","../images/cyn_red.png","../images/pnk_blu.png","../images/blu_wht.png"],"mutagen_generator_assignment":[1,0],"goal":2,"start":4,"action_noise":0.15,"location_history":"[4,0,5,0,5,4,0,1,3,2]","action_history":"[0,1,0,0,0,0,1,0,0]","mutagen_history":"[1,0,1,1,1,1,0,1,1]","location_rts":"[479,219,137,112,92,220,290,177,143]","trial_type":"fractal-mutation","trial_index":63,"time_elapsed":2071630,"internal_node_id":"0.0-5.0-9.0"},{"group":"hexagon_tri","fractal_assignment":["../images/org_blu.png","../images/gry_blk.png","../images/ylw_slt.png","../images/cyn_red.png","../images/pnk_blu.png","../images/blu_wht.png"],"mutagen_generator_assignment":[1,0],"goal":0,"start":2,"action_noise":0.15,"location_history":"[2,3,2,1,5,4,0]","action_history":"[1,0,0,1,0,0]","mutagen_history":"[0,1,1,0,1,1]","location_rts":"[291,123,116,28,231,107]","trial_type":"fractal-mutation","trial_index":64,"time_elapsed":2082293,"internal_node_id":"0.0-5.0-10.0"},{"group":"hexagon_tri","fractal_assignment":["../images/org_blu.png","../images/gry_blk.png","../images/ylw_slt.png","../images/cyn_red.png","../images/pnk_blu.png","../images/blu_wht.png"],"mutagen_generator_assignment":[1,0],"goal":1,"start":0,"action_noise":0.15,"location_history":"[0,5,4,0,1]","action_history":"[0,0,0,1]","mutagen_history":"[1,1,1,0]","location_rts":"[776,162,403,226]","trial_type":"fractal-mutation","trial_index":65,"time_elapsed":2091563,"internal_node_id":"0.0-5.0-11.0"},{"group":"hexagon_tri","fractal_assignment":["../images/org_blu.png","../images/gry_blk.png","../images/ylw_slt.png","../images/cyn_red.png","../images/pnk_blu.png","../images/blu_wht.png"],"mutagen_generator_assignment":[1,0],"goal":3,"start":1,"action_noise":0.15,"location_history":"[1,3]","action_history":"[0]","mutagen_history":"[1]","location_rts":"[2924]","trial_type":"fractal-mutation","trial_index":66,"time_elapsed":2099038,"internal_node_id":"0.0-5.0-12.0"},{"group":"hexagon_tri","fractal_assignment":["../images/org_blu.png","../images/gry_blk.png","../images/ylw_slt.png","../images/cyn_red.png","../images/pnk_blu.png","../images/blu_wht.png"],"mutagen_generator_assignment":[1,0],"goal":5,"start":3,"action_noise":0.15,"location_history":"[3,2,1,5]","action_history":"[0,0,0]","mutagen_history":"[1,1,1]","location_rts":"[904,407,747]","trial_type":"fractal-mutation","trial_index":67,"time_elapsed":2107651,"internal_node_id":"0.0-5.0-13.0"},{"group":"hexagon_tri","fractal_assignment":["../images/org_blu.png","../images/gry_blk.png","../images/ylw_slt.png","../images/cyn_red.png","../images/pnk_blu.png","../images/blu_wht.png"],"mutagen_generator_assignment":[1,0],"goal":4,"start":5,"action_noise":0.15,"location_history":"[5,0,1,3,4]","action_history":"[1,1,0,1]","mutagen_history":"[0,0,1,0]","location_rts":"[298,275,385,147]","trial_type":"fractal-mutation","trial_index":68,"time_elapsed":2116336,"internal_node_id":"0.0-5.0-14.0"},{"group":"hexagon_tri","fractal_assignment":["../images/org_blu.png","../images/gry_blk.png","../images/ylw_slt.png","../images/cyn_red.png","../images/pnk_blu.png","../images/blu_wht.png"],"mutagen_generator_assignment":[1,0],"goal":0,"start":4,"action_noise":0.15,"location_history":"[4,2,3,2,3,4,2,1,5,0]","action_history":"[1,1,0,1,1,1,0,1,1]","mutagen_history":"[0,0,1,0,0,0,1,0,0]","location_rts":"[948,1345,621,218,323,291,164,206,232]","trial_type":"fractal-mutation","trial_index":69,"time_elapsed":2133540,"internal_node_id":"0.0-5.0-15.0"},{"group":"hexagon_tri","fractal_assignment":["../images/org_blu.png","../images/gry_blk.png","../images/ylw_slt.png","../images/cyn_red.png","../images/pnk_blu.png","../images/blu_wht.png"],"mutagen_generator_assignment":[1,0],"goal":3,"start":0,"action_noise":0.15,"location_history":"[0,5,0,5,0,5,4,0,5,4,0,1,3]","action_history":"[0,0,0,1,0,0,0,0,0,0,1,0]","mutagen_history":"[1,1,1,0,1,1,1,1,1,1,0,1]","location_rts":"[741,263,324,446,372,309,430,567,724,396,349,2559]","trial_type":"fractal-mutation","trial_index":70,"time_elapsed":2157069,"internal_node_id":"0.0-5.0-16.0"},{"group":"hexagon_tri","fractal_assignment":["../images/org_blu.png","../images/gry_blk.png","../images/ylw_slt.png","../images/cyn_red.png","../images/pnk_blu.png","../images/blu_wht.png"],"mutagen_generator_assignment":[1,0],"goal":1,"start":3,"action_noise":0.15,"location_history":"[3,2,1]","action_history":"[0,0]","mutagen_history":"[1,1]","location_rts":"[941,66]","trial_type":"fractal-mutation","trial_index":71,"time_elapsed":2163654,"internal_node_id":"0.0-5.0-17.0"},{"group":"hexagon_tri","fractal_assignment":["../images/org_blu.png","../images/gry_blk.png","../images/ylw_slt.png","../images/cyn_red.png","../images/pnk_blu.png","../images/blu_wht.png"],"mutagen_generator_assignment":[1,0],"goal":5,"start":1,"action_noise":0.15,"location_history":"[1,3,4,0,1,3,2,1,3,2,3,2,1,3,2,1,3,4,0,1,3,4,2,3,4,0,5]","action_history":"[0,0,0,1,0,0,0,0,0,1,0,0,0,0,0,0,0,0,1,0,0,0,0,1,0,0]","mutagen_history":"[1,1,1,0,1,1,1,1,1,0,1,1,1,1,1,1,1,1,0,1,1,1,1,0,1,1]","location_rts":"[730,285,332,408,163,235,135,176,280,410,60,144,178,310,331,94,348,303,505,212,368,387,545,377,126,377]","trial_type":"fractal-mutation","trial_index":72,"time_elapsed":2202162,"internal_node_id":"0.0-5.0-18.0"},{"group":"hexagon_tri","fractal_assignment":["../images/org_blu.png","../images/gry_blk.png","../images/ylw_slt.png","../images/cyn_red.png","../images/pnk_blu.png","../images/blu_wht.png"],"mutagen_generator_assignment":[1,0],"goal":2,"start":5,"action_noise":0.15,"location_history":"[5,4,2]","action_history":"[0,1]","mutagen_history":"[1,0]","location_rts":"[938,389]","trial_type":"fractal-mutation","trial_index":73,"time_elapsed":2209072,"internal_node_id":"0.0-5.0-19.0"},{"group":"hexagon_tri","fractal_assignment":["../images/org_blu.png","../images/gry_blk.png","../images/ylw_slt.png","../images/cyn_red.png","../images/pnk_blu.png","../images/blu_wht.png"],"mutagen_generator_assignment":[1,0],"goal":4,"start":2,"action_noise":0.15,"location_history":"[2,1,3,4]","action_history":"[1,0,1]","mutagen_history":"[0,1,0]","location_rts":"[623,396,388]","trial_type":"fractal-mutation","trial_index":74,"time_elapsed":2217108,"internal_node_id":"0.0-5.0-20.0"},{"group":"hexagon_tri","fractal_assignment":["../images/org_blu.png","../images/gry_blk.png","../images/ylw_slt.png","../images/cyn_red.png","../images/pnk_blu.png","../images/blu_wht.png"],"mutagen_generator_assignment":[1,0],"goal":1,"start":4,"action_noise":0.15,"location_history":"[4,0,5,4,0,5,4,0,5,4,0,1]","action_history":"[0,0,0,0,1,0,0,0,0,0,1]","mutagen_history":"[1,1,1,1,0,1,1,1,1,1,0]","location_rts":"[777,267,513,687,332,480,385,339,429,401,315]","trial_type":"fractal-mutation","trial_index":75,"time_elapsed":2236733,"internal_node_id":"0.0-5.0-21.0"},{"group":"hexagon_tri","fractal_assignment":["../images/org_blu.png","../images/gry_blk.png","../images/ylw_slt.png","../images/cyn_red.png","../images/pnk_blu.png","../images/blu_wht.png"],"mutagen_generator_assignment":[1,0],"goal":3,"start":1,"action_noise":0.15,"location_history":"[1,3]","action_history":"[0]","mutagen_history":"[1]","location_rts":"[638]","trial_type":"fractal-mutation","trial_index":76,"time_elapsed":2241931,"internal_node_id":"0.0-5.0-22.0"},{"group":"hexagon_tri","fractal_assignment":["../images/org_blu.png","../images/gry_blk.png","../images/ylw_slt.png","../images/cyn_red.png","../images/pnk_blu.png","../images/blu_wht.png"],"mutagen_generator_assignment":[1,0],"goal":2,"start":3,"action_noise":0.15,"location_history":"[3,2]","action_history":"[0]","mutagen_history":"[1]","location_rts":"[289]","trial_type":"fractal-mutation","trial_index":77,"time_elapsed":2246776,"internal_node_id":"0.0-5.0-23.0"},{"group":"hexagon_tri","fractal_assignment":["../images/org_blu.png","../images/gry_blk.png","../images/ylw_slt.png","../images/cyn_red.png","../images/pnk_blu.png","../images/blu_wht.png"],"mutagen_generator_assignment":[1,0],"goal":0,"start":2,"action_noise":0.15,"location_history":"[2,1,3,4,0]","action_history":"[0,1,1,0]","mutagen_history":"[1,0,0,1]","location_rts":"[408,258,396,452]","trial_type":"fractal-mutation","trial_index":78,"time_elapsed":2255977,"internal_node_id":"0.0-5.0-24.0"},{"group":"hexagon_tri","fractal_assignment":["../images/org_blu.png","../images/gry_blk.png","../images/ylw_slt.png","../images/cyn_red.png","../images/pnk_blu.png","../images/blu_wht.png"],"mutagen_generator_assignment":[1,0],"goal":5,"start":0,"action_noise":0.15,"location_history":"[0,1,3,2,1,3,4,0,5]","action_history":"[0,0,0,0,0,1,0,0]","mutagen_history":"[1,1,1,1,1,0,1,1]","location_rts":"[646,37,379,413,521,619,413,122]","trial_type":"fractal-mutation","trial_index":79,"time_elapsed":2270974,"internal_node_id":"0.0-5.0-25.0"},{"group":"hexagon_tri","fractal_assignment":["../images/org_blu.png","../images/gry_blk.png","../images/ylw_slt.png","../images/cyn_red.png","../images/pnk_blu.png","../images/blu_wht.png"],"mutagen_generator_assignment":[1,0],"goal":2,"start":5,"action_noise":0.15,"location_history":"[5,4,0,5,4,2]","action_history":"[0,0,0,0,1]","mutagen_history":"[1,1,1,1,0]","location_rts":"[999,325,677,746,421]","trial_type":"fractal-mutation","trial_index":80,"time_elapsed":2282873,"internal_node_id":"0.0-5.0-26.0"},{"group":"hexagon_tri","fractal_assignment":["../images/org_blu.png","../images/gry_blk.png","../images/ylw_slt.png","../images/cyn_red.png","../images/pnk_blu.png","../images/blu_wht.png"],"mutagen_generator_assignment":[1,0],"goal":3,"start":2,"action_noise":0.15,"location_history":"[2,1,3]","action_history":"[0,0]","mutagen_history":"[1,1]","location_rts":"[807,392]","trial_type":"fractal-mutation","trial_index":81,"time_elapsed":2289683,"internal_node_id":"0.0-5.0-27.0"},{"group":"hexagon_tri","fractal_assignment":["../images/org_blu.png","../images/gry_blk.png","../images/ylw_slt.png","../images/cyn_red.png","../images/pnk_blu.png","../images/blu_wht.png"],"mutagen_generator_assignment":[1,0],"goal":0,"start":3,"action_noise":0.15,"location_history":"[3,2,1,3,2,1,3,4,0]","action_history":"[1,0,0,0,0,0,1,0]","mutagen_history":"[0,1,1,1,1,1,0,1]","location_rts":"[1018,179,333,1428,305,475,472,217]","trial_type":"fractal-mutation","trial_index":82,"time_elapsed":2305979,"internal_node_id":"0.0-5.0-28.0"},{"group":"hexagon_tri","fractal_assignment":["../images/org_blu.png","../images/gry_blk.png","../images/ylw_slt.png","../images/cyn_red.png","../images/pnk_blu.png","../images/blu_wht.png"],"mutagen_generator_assignment":[1,0],"goal":1,"start":0,"action_noise":0.15,"location_history":"[0,5,4,0,1]","action_history":"[0,0,0,1]","mutagen_history":"[1,1,1,0]","location_rts":"[733,493,300,418]","trial_type":"fractal-mutation","trial_index":83,"time_elapsed":2315623,"internal_node_id":"0.0-5.0-29.0"},{"group":"hexagon_tri","fractal_assignment":["../images/org_blu.png","../images/gry_blk.png","../images/ylw_slt.png","../images/cyn_red.png","../images/pnk_blu.png","../images/blu_wht.png"],"mutagen_generator_assignment":[1,0],"goal":4,"start":1,"action_noise":0.15,"location_history":"[1,5,0,5,4]","action_history":"[0,1,0,0]","mutagen_history":"[1,0,1,1]","location_rts":"[590,116,412,276]","trial_type":"fractal-mutation","trial_index":84,"time_elapsed":2324704,"internal_node_id":"0.0-5.0-30.0"},{"group":"hexagon_tri","fractal_assignment":["../images/org_blu.png","../images/gry_blk.png","../images/ylw_slt.png","../images/cyn_red.png","../images/pnk_blu.png","../images/blu_wht.png"],"mutagen_generator_assignment":[1,0],"goal":5,"start":4,"action_noise":0.15,"location_history":"[4,0,5]","action_history":"[0,0]","mutagen_history":"[1,1]","location_rts":"[605,342]","trial_type":"fractal-mutation","trial_index":85,"time_elapsed":2331254,"internal_node_id":"0.0-5.0-31.0"},{"group":"hexagon_tri","fractal_assignment":["../images/org_blu.png","../images/gry_blk.png","../images/ylw_slt.png","../images/cyn_red.png","../images/pnk_blu.png","../images/blu_wht.png"],"mutagen_generator_assignment":[1,0],"goal":0,"start":5,"action_noise":0.15,"location_history":"[5,4,2,1,3,2,1,3,4,2,1,3,2,1,3,4,2,3,2,1,3,4,0]","action_history":"[0,1,0,0,0,0,0,0,1,0,0,0,0,0,0,0,1,0,0,0,1,0]","mutagen_history":"[1,0,1,1,1,1,1,1,0,1,1,1,1,1,1,1,0,1,1,1,0,1]","location_rts":"[575,308,348,343,221,106,220,348,253,242,180,367,288,206,496,428,516,257,5516,1109,425,188]","trial_type":"fractal-mutation","trial_index":86,"time_elapsed":2370356,"internal_node_id":"0.0-5.0-32.0"},{"group":"hexagon_tri","fractal_assignment":["../images/org_blu.png","../images/gry_blk.png","../images/ylw_slt.png","../images/cyn_red.png","../images/pnk_blu.png","../images/blu_wht.png"],"mutagen_generator_assignment":[1,0],"goal":3,"start":0,"action_noise":0.15,"location_history":"[0,1,3]","action_history":"[0,0]","mutagen_history":"[1,1]","location_rts":"[471,203]","trial_type":"fractal-mutation","trial_index":87,"time_elapsed":2376620,"internal_node_id":"0.0-5.0-33.0"},{"group":"hexagon_tri","fractal_assignment":["../images/org_blu.png","../images/gry_blk.png","../images/ylw_slt.png","../images/cyn_red.png","../images/pnk_blu.png","../images/blu_wht.png"],"mutagen_generator_assignment":[1,0],"goal":1,"start":3,"action_noise":0.15,"location_history":"[3,2,1]","action_history":"[0,0]","mutagen_history":"[1,1]","location_rts":"[677,212]","trial_type":"fractal-mutation","trial_index":88,"time_elapsed":2383099,"internal_node_id":"0.0-5.0-34.0"},{"group":"hexagon_tri","fractal_assignment":["../images/org_blu.png","../images/gry_blk.png","../images/ylw_slt.png","../images/cyn_red.png","../images/pnk_blu.png","../images/blu_wht.png"],"mutagen_generator_assignment":[1,0],"goal":2,"start":1,"action_noise":0.15,"location_history":"[1,5,4,0,1,5,4,0,5,4,0,1,3,2]","action_history":"[1,0,0,0,1,0,0,0,0,0,1,0,0]","mutagen_history":"[0,1,1,1,0,1,1,1,1,1,0,1,1]","location_rts":"[743,388,267,333,232,306,272,430,560,405,257,3154,137]","trial_type":"fractal-mutation","trial_index":89,"time_elapsed":2407684,"internal_node_id":"0.0-5.0-35.0"},{"group":"hexagon_tri","fractal_assignment":["../images/org_blu.png","../images/gry_blk.png","../images/ylw_slt.png","../images/cyn_red.png","../images/pnk_blu.png","../images/blu_wht.png"],"mutagen_generator_assignment":[1,0],"goal":4,"start":2,"action_noise":0.15,"location_history":"[2,3,2,1,3,4]","action_history":"[1,0,0,0,0]","mutagen_history":"[0,1,1,1,1]","location_rts":"[898,166,141,39,284]","trial_type":"fractal-mutation","trial_index":90,"time_elapsed":2417941,"internal_node_id":"0.0-5.0-36.0"},{"group":"hexagon_tri","fractal_assignment":["../images/org_blu.png","../images/gry_blk.png","../images/ylw_slt.png","../images/cyn_red.png","../images/pnk_blu.png","../images/blu_wht.png"],"mutagen_generator_assignment":[1,0],"goal":5,"start":4,"action_noise":0.15,"location_history":"[4,0,5]","action_history":"[0,0]","mutagen_history":"[1,1]","location_rts":"[15666,250]","trial_type":"fractal-mutation","trial_index":91,"time_elapsed":2439468,"internal_node_id":"0.0-5.0-37.0"},{"group":"hexagon_tri","fractal_assignment":["../images/org_blu.png","../images/gry_blk.png","../images/ylw_slt.png","../images/cyn_red.png","../images/pnk_blu.png","../images/blu_wht.png"],"mutagen_generator_assignment":[1,0],"goal":1,"start":5,"action_noise":0.15,"location_history":"[5,0,5,4,0,1]","action_history":"[1,0,0,0,1]","mutagen_history":"[0,1,1,1,0]","location_rts":"[716,231,266,564,194]","trial_type":"fractal-mutation","trial_index":92,"time_elapsed":2450155,"internal_node_id":"0.0-5.0-38.0"},{"group":"hexagon_tri","fractal_assignment":["../images/org_blu.png","../images/gry_blk.png","../images/ylw_slt.png","../images/cyn_red.png","../images/pnk_blu.png","../images/blu_wht.png"],"mutagen_generator_assignment":[1,0],"goal":4,"start":1,"action_noise":0.15,"location_history":"[1,3,2,3,2,1,3,2,1,3,2,3,2,1,3,4]","action_history":"[0,0,1,0,0,0,0,0,1,0,0,0,1,0,1]","mutagen_history":"[1,1,0,1,1,1,1,1,0,1,1,1,0,1,0]","location_rts":"[488,189,332,63,278,274,178,257,238,72,179,3648,299,378,139]","trial_type":"fractal-mutation","trial_index":93,"time_elapsed":2476097,"internal_node_id":"0.0-5.0-39.0"},{"group":"hexagon_tri","fractal_assignment":["../images/org_blu.png","../images/gry_blk.png","../images/ylw_slt.png","../images/cyn_red.png","../images/pnk_blu.png","../images/blu_wht.png"],"mutagen_generator_assignment":[1,0],"goal":3,"start":4,"action_noise":0.15,"location_history":"[4,2,1,5,4,0,1,3]","action_history":"[1,0,0,0,0,1,0]","mutagen_history":"[0,1,1,1,1,0,1]","location_rts":"[649,58,142,120,22,171,170]","trial_type":"fractal-mutation","trial_index":94,"time_elapsed":2488247,"internal_node_id":"0.0-5.0-40.0"},{"group":"hexagon_tri","fractal_assignment":["../images/org_blu.png","../images/gry_blk.png","../images/ylw_slt.png","../images/cyn_red.png","../images/pnk_blu.png","../images/blu_wht.png"],"mutagen_generator_assignment":[1,0],"goal":2,"start":3,"action_noise":0.15,"location_history":"[3,2]","action_history":"[0]","mutagen_history":"[1]","location_rts":"[118516]","trial_type":"fractal-mutation","trial_index":95,"time_elapsed":2611313,"internal_node_id":"0.0-5.0-41.0"},{"group":"hexagon_tri","fractal_assignment":["../images/org_blu.png","../images/gry_blk.png","../images/ylw_slt.png","../images/cyn_red.png","../images/pnk_blu.png","../images/blu_wht.png"],"mutagen_generator_assignment":[1,0],"goal":0,"start":2,"action_noise":0.15,"location_history":"[2,1,5,4,0]","action_history":"[0,1,0,0]","mutagen_history":"[1,0,1,1]","location_rts":"[341,241,140,339]","trial_type":"fractal-mutation","trial_index":96,"time_elapsed":2620051,"internal_node_id":"0.0-5.0-42.0"},{"group":"hexagon_tri","fractal_assignment":["../images/org_blu.png","../images/gry_blk.png","../images/ylw_slt.png","../images/cyn_red.png","../images/pnk_blu.png","../images/blu_wht.png"],"mutagen_generator_assignment":[1,0],"goal":5,"start":0,"action_noise":0.15,"location_history":"[0,5]","action_history":"[0]","mutagen_history":"[1]","location_rts":"[242]","trial_type":"fractal-mutation","trial_index":97,"time_elapsed":2624852,"internal_node_id":"0.0-5.0-43.0"},{"group":"hexagon_tri","fractal_assignment":["../images/org_blu.png","../images/gry_blk.png","../images/ylw_slt.png","../images/cyn_red.png","../images/pnk_blu.png","../images/blu_wht.png"],"mutagen_generator_assignment":[1,0],"goal":0,"start":5,"action_noise":0.15,"location_history":"[5,4,2,1,3,2,1,3,2,1,3,2,1,5,4,2,1,3,2,1,5,4,2,1,5,4,0]","action_history":"[0,1,0,0,0,1,0,0,0,0,0,0,1,0,0,0,1,0,0,1,0,0,0,1,0,0]","mutagen_history":"[1,0,1,1,1,0,1,1,1,1,1,1,0,1,1,1,0,1,1,0,1,1,1,0,1,1]","location_rts":"[185,212,288,146,833,235,249,138,267,300,241,182,161,108,604,319,580,420,291,235,435,417,381,452,397,360]","trial_type":"fractal-mutation","trial_index":98,"time_elapsed":2663966,"internal_node_id":"0.0-5.0-44.0"},{"group":"hexagon_tri","fractal_assignment":["../images/org_blu.png","../images/gry_blk.png","../images/ylw_slt.png","../images/cyn_red.png","../images/pnk_blu.png","../images/blu_wht.png"],"mutagen_generator_assignment":[1,0],"goal":2,"start":0,"action_noise":0.15,"location_history":"[0,5,4,2]","action_history":"[1,0,1]","mutagen_history":"[0,1,0]","location_rts":"[549,602,585]","trial_type":"fractal-mutation","trial_index":99,"time_elapsed":2672331,"internal_node_id":"0.0-5.0-45.0"},{"group":"hexagon_tri","fractal_assignment":["../images/org_blu.png","../images/gry_blk.png","../images/ylw_slt.png","../images/cyn_red.png","../images/pnk_blu.png","../images/blu_wht.png"],"mutagen_generator_assignment":[1,0],"goal":4,"start":2,"action_noise":0.15,"location_history":"[2,3,2,3,4]","action_history":"[1,0,1,0]","mutagen_history":"[0,1,0,1]","location_rts":"[269,282,241,23]","trial_type":"fractal-mutation","trial_index":100,"time_elapsed":2680833,"internal_node_id":"0.0-5.0-46.0"},{"group":"hexagon_tri","fractal_assignment":["../images/org_blu.png","../images/gry_blk.png","../images/ylw_slt.png","../images/cyn_red.png","../images/pnk_blu.png","../images/blu_wht.png"],"mutagen_generator_assignment":[1,0],"goal":1,"start":4,"action_noise":0.15,"location_history":"[4,0,5,0,5,4,0,5,4,0,1]","action_history":"[0,0,1,0,0,0,0,0,0,1]","mutagen_history":"[1,1,0,1,1,1,1,1,1,0]","location_rts":"[2237,184,127,49,279,297,304,639,349,256]","trial_type":"fractal-mutation","trial_index":101,"time_elapsed":2699484,"internal_node_id":"0.0-5.0-47.0"},{"group":"hexagon_tri","fractal_assignment":["../images/org_blu.png","../images/gry_blk.png","../images/ylw_slt.png","../images/cyn_red.png","../images/pnk_blu.png","../images/blu_wht.png"],"mutagen_generator_assignment":[1,0],"goal":5,"start":1,"action_noise":0.15,"location_history":"[1,3,2,3,2,3,4,0,5]","action_history":"[0,0,1,0,0,0,0,0]","mutagen_history":"[1,1,0,1,1,1,1,1]","location_rts":"[637,308,284,276,383,311,482,409]","trial_type":"fractal-mutation","trial_index":102,"time_elapsed":2714221,"internal_node_id":"0.0-5.0-48.0"},{"group":"hexagon_tri","fractal_assignment":["../images/org_blu.png","../images/gry_blk.png","../images/ylw_slt.png","../images/cyn_red.png","../images/pnk_blu.png","../images/blu_wht.png"],"mutagen_generator_assignment":[1,0],"goal":3,"start":5,"action_noise":0.15,"location_history":"[5,4,2,3]","action_history":"[0,0,1]","mutagen_history":"[1,1,0]","location_rts":"[593,298,430]","trial_type":"fractal-mutation","trial_index":103,"time_elapsed":2722171,"internal_node_id":"0.0-5.0-49.0"},{"view_history":"[{\"page_index\":0,\"viewing_time\":3702}]","rt":3702,"trial_type":"instructions","trial_index":104,"time_elapsed":2726874,"internal_node_id":"0.0-6.0"},{"rt":1345,"responses":"{\"Q0\":\"\"}","trial_type":"survey-text","trial_index":105,"time_elapsed":2729227,"internal_node_id":"0.0-7.0"}]