[{"view_history":"[{\"page_index\":0,\"viewing_time\":48373},{\"page_index\":1,\"viewing_time\":38741}]","rt":87114,"trial_type":"instructions","trial_index":0,"time_elapsed":87117,"internal_node_id":"0.0-0.0"},{"view_history":"[{\"page_index\":0,\"viewing_time\":2554},{\"page_index\":1,\"viewing_time\":51904}]","rt":54459,"trial_type":"instructions","trial_index":1,"time_elapsed":142577,"internal_node_id":"0.0-1.0"},{"group":"hexagon_bi","room_assignment":["red","yellow","green","purple","grey","blue"],"door_color_assignment":["black","white"],"door_generator_assignment":[1,0],"goal":3,"start":5,"action_noise":0.15,"location_history":"[5,0,1,0,5,0,1,2,3]","action_history":"[0,1,1,0,1,1,0,0]","door_history":"[1,0,0,1,0,0,1,1]","location_rts":"[2673,1858,3589,847,671,696,803,460]","trial_type":"two-door-navigation","trial_index":2,"time_elapsed":165714,"internal_node_id":"0.0-2.0-0.0"},{"group":"hexagon_bi","room_assignment":["red","yellow","green","purple","grey","blue"],"door_color_assignment":["black","white"],"door_generator_assignment":[1,0],"goal":1,"start":3,"action_noise":0.15,"location_history":"[3,2,1]","action_history":"[1,0]","door_history":"[0,1]","location_rts":"[8965,1015]","trial_type":"two-door-navigation","trial_index":3,"time_elapsed":181197,"internal_node_id":"0.0-2.0-1.0"},{"group":"hexagon_bi","room_assignment":["red","yellow","green","purple","grey","blue"],"door_color_assignment":["black","white"],"door_generator_assignment":[1,0],"goal":0,"start":1,"action_noise":0.15,"location_history":"[1,0]","action_history":"[1]","door_history":"[0]","location_rts":"[7083]","trial_type":"two-door-navigation","trial_index":4,"time_elapsed":192782,"internal_node_id":"0.0-2.0-2.0"},{"group":"hexagon_bi","room_assignment":["red","yellow","green","purple","grey","blue"],"door_color_assignment":["black","white"],"door_generator_assignment":[1,0],"goal":3,"start":0,"action_noise":0.15,"location_history":"[0,5,0,1,0,1,0,5,4,5,0,1,0,5,4,5,4,5,0,1,2,3]","action_history":"[1,1,1,0,1,1,0,1,1,0,1,1,0,0,1,1,1,0,1,1,0]","door_history":"[0,0,0,1,0,0,1,0,0,1,0,0,1,1,0,0,0,1,0,0,1]","location_rts":"[9586,677,4542,2960,5190,8590,5375,7115,10404,6563,12444,11809,1462,727,781,7239,7417,9579,4616,582,12650]","trial_type":"two-door-navigation","trial_index":5,"time_elapsed":347659,"internal_node_id":"0.0-2.0-3.0"},{"group":"hexagon_bi","room_assignment":["red","yellow","green","purple","grey","blue"],"door_color_assignment":["black","white"],"door_generator_assignment":[1,0],"goal":4,"start":3,"action_noise":0.15,"location_history":"[3,2,1,0,1,0,5,4]","action_history":"[1,0,0,1,1,0,1]","door_history":"[0,1,1,0,0,1,0]","location_rts":"[4580,1725,510,718,367,1718,1232]","trial_type":"two-door-navigation","trial_index":6,"time_elapsed":369529,"internal_node_id":"0.0-2.0-4.0"},{"group":"hexagon_bi","room_assignment":["red","yellow","green","purple","grey","blue"],"door_color_assignment":["black","white"],"door_generator_assignment":[1,0],"goal":2,"start":4,"action_noise":0.15,"location_history":"[4,3,4,5,4,5,0,1,2]","action_history":"[0,1,0,1,1,1,1,0]","door_history":"[1,0,1,0,0,0,0,1]","location_rts":"[8262,7601,4882,10520,1507,766,742,14289]","trial_type":"two-door-navigation","trial_index":7,"time_elapsed":429614,"internal_node_id":"0.0-2.0-5.0"},{"group":"hexagon_bi","room_assignment":["red","yellow","green","purple","grey","blue"],"door_color_assignment":["black","white"],"door_generator_assignment":[1,0],"goal":1,"start":2,"action_noise":0.15,"location_history":"[2,3,2,1]","action_history":"[1,1,0]","door_history":"[0,0,1]","location_rts":"[16074,1245,1340]","trial_type":"two-door-navigation","trial_index":8,"time_elapsed":454784,"internal_node_id":"0.0-2.0-6.0"},{"group":"hexagon_bi","room_assignment":["red","yellow","green","purple","grey","blue"],"door_color_assignment":["black","white"],"door_generator_assignment":[1,0],"goal":5,"start":1,"action_noise":0.15,"location_history":"[1,0,1,0,1,2,1,2,3,2,3,4,5]","action_history":"[1,1,1,0,1,0,0,0,1,1,0,1]","door_history":"[0,0,0,1,0,1,1,1,0,0,1,0]","location_rts":"[5560,4454,1125,759,2824,846,391,567,943,754,1102,3534]","trial_type":"two-door-navigation","trial_index":9,"time_elapsed":493158,"internal_node_id":"0.0-2.0-7.0"},{"group":"hexagon_bi","room_assignment":["red","yellow","green","purple","grey","blue"],"door_color_assignment":["black","white"],"door_generator_assignment":[1,0],"goal":4,"start":5,"action_noise":0.15,"location_history":"[5,4]","action_history":"[1]","door_history":"[0]","location_rts":"[4674]","trial_type":"two-door-navigation","trial_index":10,"time_elapsed":502334,"internal_node_id":"0.0-2.0-8.0"},{"group":"hexagon_bi","room_assignment":["red","yellow","green","purple","grey","blue"],"door_color_assignment":["black","white"],"door_generator_assignment":[1,0],"goal":2,"start":4,"action_noise":0.15,"location_history":"[4,3,4,5,4,3,4,5,0,1,0,5,4,3,4,5,4,3,4,3,2]","action_history":"[0,0,1,1,0,0,1,0,1,1,1,1,0,0,1,0,0,0,1,1]","door_history":"[1,1,0,0,1,1,0,1,0,0,0,0,1,1,0,1,1,1,0,0]","location_rts":"[2674,16908,2001,632,1199,631,1384,7008,733,354,430,816,977,3260,5049,575,343,824,1221,855]","trial_type":"two-door-navigation","trial_index":11,"time_elapsed":573735,"internal_node_id":"0.0-2.0-9.0"},{"group":"hexagon_bi","room_assignment":["red","yellow","green","purple","grey","blue"],"door_color_assignment":["black","white"],"door_generator_assignment":[1,0],"goal":0,"start":2,"action_noise":0.15,"location_history":"[2,1,2,3,4,3,4,3,2,1,2,1,2,3,4,3,4,5,4,5,4,5,0]","action_history":"[0,1,1,0,0,0,0,1,1,0,0,0,1,0,0,0,1,1,1,1,0,0]","door_history":"[1,0,0,1,1,1,1,0,0,1,1,1,0,1,1,1,0,0,0,0,1,1]","location_rts":"[5778,8519,8913,6262,334,418,500,416,696,168,303,279,698,1146,400,560,1424,1286,479,5806,854,442]","trial_type":"two-door-navigation","trial_index":12,"time_elapsed":644935,"internal_node_id":"0.0-2.0-10.0"},{"group":"hexagon_bi","room_assignment":["red","yellow","green","purple","grey","blue"],"door_color_assignment":["black","white"],"door_generator_assignment":[1,0],"goal":1,"start":0,"action_noise":0.15,"location_history":"[0,1]","action_history":"[0]","door_history":"[1]","location_rts":"[8578]","trial_type":"two-door-navigation","trial_index":13,"time_elapsed":658015,"internal_node_id":"0.0-2.0-11.0"},{"group":"hexagon_bi","room_assignment":["red","yellow","green","purple","grey","blue"],"door_color_assignment":["black","white"],"door_generator_assignment":[1,0],"goal":3,"start":1,"action_noise":0.15,"location_history":"[1,2,1,2,3]","action_history":"[1,0,1,1]","door_history":"[0,1,0,0]","location_rts":"[15618,4524,1383,542]","trial_type":"two-door-navigation","trial_index":14,"time_elapsed":687588,"internal_node_id":"0.0-2.0-12.0"},{"group":"hexagon_bi","room_assignment":["red","yellow","green","purple","grey","blue"],"door_color_assignment":["black","white"],"door_generator_assignment":[1,0],"goal":5,"start":3,"action_noise":0.15,"location_history":"[3,2,3,2,3,2,3,4,5]","action_history":"[1,0,1,1,1,1,0,1]","door_history":"[0,1,0,0,0,0,1,0]","location_rts":"[12996,1479,903,287,911,711,152,893]","trial_type":"two-door-navigation","trial_index":15,"time_elapsed":717430,"internal_node_id":"0.0-2.0-13.0"},{"group":"hexagon_bi","room_assignment":["red","yellow","green","purple","grey","blue"],"door_color_assignment":["black","white"],"door_generator_assignment":[1,0],"goal":4,"start":5,"action_noise":0.15,"location_history":"[5,4]","action_history":"[1]","door_history":"[0]","location_rts":"[4539]","trial_type":"two-door-navigation","trial_index":16,"time_elapsed":726492,"internal_node_id":"0.0-2.0-14.0"},{"group":"hexagon_bi","room_assignment":["red","yellow","green","purple","grey","blue"],"door_color_assignment":["black","white"],"door_generator_assignment":[1,0],"goal":0,"start":4,"action_noise":0.15,"location_history":"[4,5,0]","action_history":"[1,0]","door_history":"[0,1]","location_rts":"[5989,3263]","trial_type":"two-door-navigation","trial_index":17,"time_elapsed":741248,"internal_node_id":"0.0-2.0-15.0"},{"group":"hexagon_bi","room_assignment":["red","yellow","green","purple","grey","blue"],"door_color_assignment":["black","white"],"door_generator_assignment":[1,0],"goal":3,"start":0,"action_noise":0.15,"location_history":"[0,1,2,3]","action_history":"[1,0,1]","door_history":"[0,1,0]","location_rts":"[4553,1269,1010]","trial_type":"two-door-navigation","trial_index":18,"time_elapsed":754591,"internal_node_id":"0.0-2.0-16.0"},{"group":"hexagon_bi","room_assignment":["red","yellow","green","purple","grey","blue"],"door_color_assignment":["black","white"],"door_generator_assignment":[1,0],"goal":1,"start":3,"action_noise":0.15,"location_history":"[3,2,3,2,3,2,3,4,5,4,3,4,3,4,5,4,5,4,5,0,1]","action_history":"[0,1,1,1,1,1,0,1,1,0,0,0,0,1,0,1,1,1,0,1]","door_history":"[1,0,0,0,0,0,1,0,0,1,1,1,1,0,1,0,0,0,1,0]","location_rts":"[4418,1390,329,744,568,767,657,1119,1072,759,735,503,355,87,883,584,239,544,569,1001]","trial_type":"two-door-navigation","trial_index":19,"time_elapsed":795425,"internal_node_id":"0.0-2.0-17.0"},{"group":"hexagon_bi","room_assignment":["red","yellow","green","purple","grey","blue"],"door_color_assignment":["black","white"],"door_generator_assignment":[1,0],"goal":5,"start":1,"action_noise":0.15,"location_history":"[1,0,1,0,5]","action_history":"[1,1,1,0]","door_history":"[0,0,0,1]","location_rts":"[4654,2969,894,232]","trial_type":"two-door-navigation","trial_index":20,"time_elapsed":811676,"internal_node_id":"0.0-2.0-18.0"},{"group":"hexagon_bi","room_assignment":["red","yellow","green","purple","grey","blue"],"door_color_assignment":["black","white"],"door_generator_assignment":[1,0],"goal":2,"start":5,"action_noise":0.15,"location_history":"[5,4,5,4,3,4,5,4,5,0,5,4,3,4,3,2]","action_history":"[1,1,1,0,0,1,1,1,0,0,1,0,0,0,1]","door_history":"[0,0,0,1,1,0,0,0,1,1,0,1,1,1,0]","location_rts":"[1243,914,422,192,536,343,384,396,57,79,1125,495,172,402,312]","trial_type":"two-door-navigation","trial_index":21,"time_elapsed":837268,"internal_node_id":"0.0-2.0-19.0"},{"group":"hexagon_bi","room_assignment":["red","yellow","green","purple","grey","blue"],"door_color_assignment":["black","white"],"door_generator_assignment":[1,0],"goal":4,"start":2,"action_noise":0.15,"location_history":"[2,3,2,3,2,1,2,1,2,1,0,1,2,3,2,3,4]","action_history":"[1,0,1,1,1,0,1,0,0,1,1,0,1,1,1,0]","door_history":"[0,1,0,0,0,1,0,1,1,0,0,1,0,0,0,1]","location_rts":"[4468,1068,4776,432,456,728,383,255,94,216,121,151,94,245,7,150]","trial_type":"two-door-navigation","trial_index":22,"time_elapsed":870437,"internal_node_id":"0.0-2.0-20.0"},{"group":"hexagon_bi","room_assignment":["red","yellow","green","purple","grey","blue"],"door_color_assignment":["black","white"],"door_generator_assignment":[1,0],"goal":1,"start":4,"action_noise":0.15,"location_history":"[4,5,0,5,4,5,4,5,4,5,0,1]","action_history":"[1,0,0,0,1,1,0,1,1,0,1]","door_history":"[0,1,1,1,0,0,1,0,0,1,0]","location_rts":"[3373,721,7552,1680,569,695,1032,839,433,374,5008]","trial_type":"two-door-navigation","trial_index":23,"time_elapsed":907221,"internal_node_id":"0.0-2.0-21.0"},{"group":"hexagon_bi","room_assignment":["red","yellow","green","purple","grey","blue"],"door_color_assignment":["black","white"],"door_generator_assignment":[1,0],"goal":3,"start":1,"action_noise":0.15,"location_history":"[1,2,3]","action_history":"[0,1]","door_history":"[1,0]","location_rts":"[1420,694]","trial_type":"two-door-navigation","trial_index":24,"time_elapsed":914836,"internal_node_id":"0.0-2.0-22.0"},{"group":"hexagon_bi","room_assignment":["red","yellow","green","purple","grey","blue"],"door_color_assignment":["black","white"],"door_generator_assignment":[1,0],"goal":2,"start":3,"action_noise":0.15,"location_history":"[3,4,3,2]","action_history":"[0,0,1]","door_history":"[1,1,0]","location_rts":"[1179,1665,409]","trial_type":"two-door-navigation","trial_index":25,"time_elapsed":924600,"internal_node_id":"0.0-2.0-23.0"},{"group":"hexagon_bi","room_assignment":["red","yellow","green","purple","grey","blue"],"door_color_assignment":["black","white"],"door_generator_assignment":[1,0],"goal":0,"start":2,"action_noise":0.15,"location_history":"[2,3,4,3,2,1,2,3,4,5,4,5,0]","action_history":"[1,0,0,1,0,0,1,0,1,1,1,0]","door_history":"[0,1,1,0,1,1,0,1,0,0,0,1]","location_rts":"[1431,626,953,118,391,295,176,175,40,208,1464,335]","trial_type":"two-door-navigation","trial_index":26,"time_elapsed":946324,"internal_node_id":"0.0-2.0-24.0"},{"group":"hexagon_bi","room_assignment":["red","yellow","green","purple","grey","blue"],"door_color_assignment":["black","white"],"door_generator_assignment":[1,0],"goal":5,"start":0,"action_noise":0.15,"location_history":"[0,1,0,5]","action_history":"[1,1,0]","door_history":"[0,0,1]","location_rts":"[2322,920,294]","trial_type":"two-door-navigation","trial_index":27,"time_elapsed":956364,"internal_node_id":"0.0-2.0-25.0"},{"group":"hexagon_bi","room_assignment":["red","yellow","green","purple","grey","blue"],"door_color_assignment":["black","white"],"door_generator_assignment":[1,0],"goal":2,"start":5,"action_noise":0.15,"location_history":"[5,4,5,0,5,4,5,4,3,2]","action_history":"[0,1,0,0,0,1,1,0,1]","door_history":"[1,0,1,1,1,0,0,1,0]","location_rts":"[2603,280,968,911,520,106,526,414,4736]","trial_type":"two-door-navigation","trial_index":28,"time_elapsed":979935,"internal_node_id":"0.0-2.0-26.0"},{"group":"hexagon_bi","room_assignment":["red","yellow","green","purple","grey","blue"],"door_color_assignment":["black","white"],"door_generator_assignment":[1,0],"goal":3,"start":2,"action_noise":0.15,"location_history":"[2,3]","action_history":"[1]","door_history":"[0]","location_rts":"[17369]","trial_type":"two-door-navigation","trial_index":29,"time_elapsed":1001806,"internal_node_id":"0.0-2.0-27.0"},{"group":"hexagon_bi","room_assignment":["red","yellow","green","purple","grey","blue"],"door_color_assignment":["black","white"],"door_generator_assignment":[1,0],"goal":0,"start":3,"action_noise":0.15,"location_history":"[3,4,3,2,1,2,3,4,3,4,3,2,1,2,1,0]","action_history":"[0,0,1,0,0,1,0,0,1,0,0,0,0,0,1]","door_history":"[1,1,0,1,1,0,1,1,0,1,1,1,1,1,0]","location_rts":"[1367,728,226,704,526,10,390,287,535,309,167,102,214,335,639]","trial_type":"two-door-navigation","trial_index":30,"time_elapsed":1026876,"internal_node_id":"0.0-2.0-28.0"},{"group":"hexagon_bi","room_assignment":["red","yellow","green","purple","grey","blue"],"door_color_assignment":["black","white"],"door_generator_assignment":[1,0],"goal":1,"start":0,"action_noise":0.15,"location_history":"[0,5,4,5,4,3,2,1]","action_history":"[0,1,1,0,0,1,0]","door_history":"[1,0,0,1,1,0,1]","location_rts":"[1900,783,2446,1187,767,1155,4268]","trial_type":"two-door-navigation","trial_index":31,"time_elapsed":1049893,"internal_node_id":"0.0-2.0-29.0"},{"group":"hexagon_bi","room_assignment":["red","yellow","green","purple","grey","blue"],"door_color_assignment":["black","white"],"door_generator_assignment":[1,0],"goal":4,"start":1,"action_noise":0.15,"location_history":"[1,2,1,2,1,2,3,4]","action_history":"[1,0,0,0,0,1,0]","door_history":"[0,1,1,1,1,0,1]","location_rts":"[5659,605,336,377,976,159,6569]","trial_type":"two-door-navigation","trial_index":32,"time_elapsed":1075077,"internal_node_id":"0.0-2.0-30.0"},{"group":"hexagon_bi","room_assignment":["red","yellow","green","purple","grey","blue"],"door_color_assignment":["black","white"],"door_generator_assignment":[1,0],"goal":5,"start":4,"action_noise":0.15,"location_history":"[4,5]","action_history":"[1]","door_history":"[0]","location_rts":"[22963]","trial_type":"two-door-navigation","trial_index":33,"time_elapsed":1102545,"internal_node_id":"0.0-2.0-31.0"},{"group":"hexagon_bi","room_assignment":["red","yellow","green","purple","grey","blue"],"door_color_assignment":["black","white"],"door_generator_assignment":[1,0],"goal":0,"start":5,"action_noise":0.15,"location_history":"[5,0]","action_history":"[0]","door_history":"[1]","location_rts":"[7768]","trial_type":"two-door-navigation","trial_index":34,"time_elapsed":1114814,"internal_node_id":"0.0-2.0-32.0"},{"group":"hexagon_bi","room_assignment":["red","yellow","green","purple","grey","blue"],"door_color_assignment":["black","white"],"door_generator_assignment":[1,0],"goal":3,"start":0,"action_noise":0.15,"location_history":"[0,1,0,1,0,1,0,1,2,1,0,1,2,3]","action_history":"[1,0,0,1,1,1,1,0,0,1,1,0,0]","door_history":"[0,1,1,0,0,0,0,1,1,0,0,1,1]","location_rts":"[2331,6345,948,208,355,471,608,201,224,1527,424,248,158]","trial_type":"two-door-navigation","trial_index":35,"time_elapsed":1145375,"internal_node_id":"0.0-2.0-33.0"},{"group":"hexagon_bi","room_assignment":["red","yellow","green","purple","grey","blue"],"door_color_assignment":["black","white"],"door_generator_assignment":[1,0],"goal":1,"start":3,"action_noise":0.15,"location_history":"[3,2,1]","action_history":"[1,1]","door_history":"[0,0]","location_rts":"[3593,1181]","trial_type":"two-door-navigation","trial_index":36,"time_elapsed":1155653,"internal_node_id":"0.0-2.0-34.0"},{"group":"hexagon_bi","room_assignment":["red","yellow","green","purple","grey","blue"],"door_color_assignment":["black","white"],"door_generator_assignment":[1,0],"goal":2,"start":1,"action_noise":0.15,"location_history":"[1,2]","action_history":"[0]","door_history":"[1]","location_rts":"[1179]","trial_type":"two-door-navigation","trial_index":37,"time_elapsed":1161333,"internal_node_id":"0.0-2.0-35.0"},{"group":"hexagon_bi","room_assignment":["red","yellow","green","purple","grey","blue"],"door_color_assignment":["black","white"],"door_generator_assignment":[1,0],"goal":4,"start":2,"action_noise":0.15,"location_history":"[2,1,2,1,2,3,4]","action_history":"[1,1,0,0,1,0]","door_history":"[0,0,1,1,0,1]","location_rts":"[2627,3735,1433,1552,1871,1884]","trial_type":"two-door-navigation","trial_index":38,"time_elapsed":1183948,"internal_node_id":"0.0-2.0-36.0"},{"group":"hexagon_bi","room_assignment":["red","yellow","green","purple","grey","blue"],"door_color_assignment":["black","white"],"door_generator_assignment":[1,0],"goal":5,"start":4,"action_noise":0.15,"location_history":"[4,5]","action_history":"[1]","door_history":"[0]","location_rts":"[1604]","trial_type":"two-door-navigation","trial_index":39,"time_elapsed":1190053,"internal_node_id":"0.0-2.0-37.0"},{"group":"hexagon_bi","room_assignment":["red","yellow","green","purple","grey","blue"],"door_color_assignment":["black","white"],"door_generator_assignment":[1,0],"goal":1,"start":5,"action_noise":0.15,"location_history":"[5,0,1]","action_history":"[0,1]","door_history":"[1,0]","location_rts":"[5764,1316]","trial_type":"two-door-navigation","trial_index":40,"time_elapsed":1202637,"internal_node_id":"0.0-2.0-38.0"},{"group":"hexagon_bi","room_assignment":["red","yellow","green","purple","grey","blue"],"door_color_assignment":["black","white"],"door_generator_assignment":[1,0],"goal":4,"start":1,"action_noise":0.15,"location_history":"[1,2,3,2,1,2,3,2,3,4]","action_history":"[0,1,1,0,0,0,1,1,0]","door_history":"[1,0,0,1,1,1,0,0,1]","location_rts":"[1043,511,504,280,1024,350,279,1153,85]","trial_type":"two-door-navigation","trial_index":41,"time_elapsed":1220401,"internal_node_id":"0.0-2.0-39.0"},{"group":"hexagon_bi","room_assignment":["red","yellow","green","purple","grey","blue"],"door_color_assignment":["black","white"],"door_generator_assignment":[1,0],"goal":3,"start":4,"action_noise":0.15,"location_history":"[4,5,4,3]","action_history":"[1,1,0]","door_history":"[0,0,1]","location_rts":"[2358,351,375]","trial_type":"two-door-navigation","trial_index":42,"time_elapsed":1229989,"internal_node_id":"0.0-2.0-40.0"},{"group":"hexagon_bi","room_assignment":["red","yellow","green","purple","grey","blue"],"door_color_assignment":["black","white"],"door_generator_assignment":[1,0],"goal":2,"start":3,"action_noise":0.15,"location_history":"[3,2]","action_history":"[1]","door_history":"[0]","location_rts":"[4732]","trial_type":"two-door-navigation","trial_index":43,"time_elapsed":1239227,"internal_node_id":"0.0-2.0-41.0"},{"group":"hexagon_bi","room_assignment":["red","yellow","green","purple","grey","blue"],"door_color_assignment":["black","white"],"door_generator_assignment":[1,0],"goal":0,"start":2,"action_noise":0.15,"location_history":"[2,1,2,1,0]","action_history":"[1,0,0,1]","door_history":"[0,1,1,0]","location_rts":"[2605,3713,1196,862]","trial_type":"two-door-navigation","trial_index":44,"time_elapsed":1255109,"internal_node_id":"0.0-2.0-42.0"},{"group":"hexagon_bi","room_assignment":["red","yellow","green","purple","grey","blue"],"door_color_assignment":["black","white"],"door_generator_assignment":[1,0],"goal":5,"start":0,"action_noise":0.15,"location_history":"[0,5]","action_history":"[0]","door_history":"[1]","location_rts":"[12740]","trial_type":"two-door-navigation","trial_index":45,"time_elapsed":1272349,"internal_node_id":"0.0-2.0-43.0"},{"group":"hexagon_bi","room_assignment":["red","yellow","green","purple","grey","blue"],"door_color_assignment":["black","white"],"door_generator_assignment":[1,0],"goal":0,"start":5,"action_noise":0.15,"location_history":"[5,0]","action_history":"[0]","door_history":"[1]","location_rts":"[1810]","trial_type":"two-door-navigation","trial_index":46,"time_elapsed":1278662,"internal_node_id":"0.0-2.0-44.0"},{"group":"hexagon_bi","room_assignment":["red","yellow","green","purple","grey","blue"],"door_color_assignment":["black","white"],"door_generator_assignment":[1,0],"goal":2,"start":0,"action_noise":0.15,"location_history":"[0,5,4,5,4,3,4,5,4,5,0,1,0,5,4,5,4,3,2]","action_history":"[0,1,1,1,0,0,1,1,1,0,1,1,0,1,1,1,0,1]","door_history":"[1,0,0,0,1,1,0,0,0,1,0,0,1,0,0,0,1,0]","location_rts":"[5179,1158,1812,830,250,608,865,343,455,463,399,431,1103,162,238,120,525,332]","trial_type":"two-door-navigation","trial_index":47,"time_elapsed":1315462,"internal_node_id":"0.0-2.0-45.0"},{"group":"hexagon_bi","room_assignment":["red","yellow","green","purple","grey","blue"],"door_color_assignment":["black","white"],"door_generator_assignment":[1,0],"goal":4,"start":2,"action_noise":0.15,"location_history":"[2,3,2,1,2,3,4]","action_history":"[1,1,0,0,1,1]","door_history":"[0,0,1,1,0,0]","location_rts":"[1683,880,304,729,717,801]","trial_type":"two-door-navigation","trial_index":48,"time_elapsed":1330093,"internal_node_id":"0.0-2.0-46.0"},{"group":"hexagon_bi","room_assignment":["red","yellow","green","purple","grey","blue"],"door_color_assignment":["black","white"],"door_generator_assignment":[1,0],"goal":1,"start":4,"action_noise":0.15,"location_history":"[4,5,4,3,2,1]","action_history":"[1,1,0,1,0]","door_history":"[0,0,1,0,1]","location_rts":"[1323,391,911,399,336]","trial_type":"two-door-navigation","trial_index":49,"time_elapsed":1341964,"internal_node_id":"0.0-2.0-47.0"},{"group":"hexagon_bi","room_assignment":["red","yellow","green","purple","grey","blue"],"door_color_assignment":["black","white"],"door_generator_assignment":[1,0],"goal":5,"start":1,"action_noise":0.15,"location_history":"[1,0,1,0,5]","action_history":"[1,1,0,0]","door_history":"[0,0,1,1]","location_rts":"[1245,416,1009,863]","trial_type":"two-door-navigation","trial_index":50,"time_elapsed":1353002,"internal_node_id":"0.0-2.0-48.0"},{"group":"hexagon_bi","room_assignment":["red","yellow","green","purple","grey","blue"],"door_color_assignment":["black","white"],"door_generator_assignment":[1,0],"goal":3,"start":5,"action_noise":0.15,"location_history":"[5,4,3]","action_history":"[1,0]","door_history":"[0,1]","location_rts":"[1325,743]","trial_type":"two-door-navigation","trial_index":51,"time_elapsed":1360579,"internal_node_id":"0.0-2.0-49.0"},{"view_history":"[{\"page_index\":0,\"viewing_time\":1566}]","rt":1568,"trial_type":"instructions","trial_index":52,"time_elapsed":1363147,"internal_node_id":"0.0-3.0"},{"view_history":"[{\"page_index\":0,\"viewing_time\":1406},{\"page_index\":1,\"viewing_time\":32993}]","rt":34400,"trial_type":"instructions","trial_index":53,"time_elapsed":1398546,"internal_node_id":"0.0-4.0"},{"group":"hexagon_bi","fractal_assignment":["../images/ylw_slt.png","../images/pnk_blu.png","../images/cyn_red.png","../images/blu_wht.png","../images/org_blu.png","../images/gry_blk.png"],"mutagen_generator_assignment":[1,0],"goal":3,"start":5,"action_noise":0.15,"location_history":"[5,4,3]","action_history":"[0,1]","mutagen_history":"[1,0]","location_rts":"[12784,41]","trial_type":"fractal-mutation","trial_index":54,"time_elapsed":1416924,"internal_node_id":"0.0-5.0-0.0"},{"group":"hexagon_bi","fractal_assignment":["../images/ylw_slt.png","../images/pnk_blu.png","../images/cyn_red.png","../images/blu_wht.png","../images/org_blu.png","../images/gry_blk.png"],"mutagen_generator_assignment":[1,0],"goal":1,"start":3,"action_noise":0.15,"location_history":"[3,4,3,2,3,4,5,4,5,0,1]","action_history":"[0,0,1,0,0,1,1,0,0,1]","mutagen_history":"[1,1,0,1,1,0,0,1,1,0]","location_rts":"[1467,581,602,560,484,630,1306,221,484,991]","trial_type":"fractal-mutation","trial_index":55,"time_elapsed":1437962,"internal_node_id":"0.0-5.0-1.0"},{"group":"hexagon_bi","fractal_assignment":["../images/ylw_slt.png","../images/pnk_blu.png","../images/cyn_red.png","../images/blu_wht.png","../images/org_blu.png","../images/gry_blk.png"],"mutagen_generator_assignment":[1,0],"goal":0,"start":1,"action_noise":0.15,"location_history":"[1,0]","action_history":"[0]","mutagen_history":"[1]","location_rts":"[2299]","trial_type":"fractal-mutation","trial_index":56,"time_elapsed":1444790,"internal_node_id":"0.0-5.0-2.0"},{"group":"hexagon_bi","fractal_assignment":["../images/ylw_slt.png","../images/pnk_blu.png","../images/cyn_red.png","../images/blu_wht.png","../images/org_blu.png","../images/gry_blk.png"],"mutagen_generator_assignment":[1,0],"goal":3,"start":0,"action_noise":0.15,"location_history":"[0,1,0,1,2,1,0,5,0,1,0,1,0,5,0,5,4,3]","action_history":"[1,1,0,0,0,1,0,0,1,1,1,1,0,0,0,1,0]","mutagen_history":"[0,0,1,1,1,0,1,1,0,0,0,0,1,1,1,0,1]","location_rts":"[2545,770345,3256,434,529,640,265,534,585,441,841,539,518,624,711,679,1333]","trial_type":"fractal-mutation","trial_index":57,"time_elapsed":2250400,"internal_node_id":"0.0-5.0-3.0"},{"group":"hexagon_bi","fractal_assignment":["../images/ylw_slt.png","../images/pnk_blu.png","../images/cyn_red.png","../images/blu_wht.png","../images/org_blu.png","../images/gry_blk.png"],"mutagen_generator_assignment":[1,0],"goal":4,"start":3,"action_noise":0.15,"location_history":"[3,2,3,2,1,2,3,4]","action_history":"[0,1,1,0,0,1,0]","mutagen_history":"[1,0,0,1,1,0,1]","location_rts":"[2251,658,819,1769,4461,1036,3584]","trial_type":"fractal-mutation","trial_index":58,"time_elapsed":2275595,"internal_node_id":"0.0-5.0-4.0"},{"group":"hexagon_bi","fractal_assignment":["../images/ylw_slt.png","../images/pnk_blu.png","../images/cyn_red.png","../images/blu_wht.png","../images/org_blu.png","../images/gry_blk.png"],"mutagen_generator_assignment":[1,0],"goal":2,"start":4,"action_noise":0.15,"location_history":"[4,3,2]","action_history":"[1,0]","mutagen_history":"[0,1]","location_rts":"[1352,890]","trial_type":"fractal-mutation","trial_index":59,"time_elapsed":2283369,"internal_node_id":"0.0-5.0-5.0"},{"group":"hexagon_bi","fractal_assignment":["../images/ylw_slt.png","../images/pnk_blu.png","../images/cyn_red.png","../images/blu_wht.png","../images/org_blu.png","../images/gry_blk.png"],"mutagen_generator_assignment":[1,0],"goal":1,"start":2,"action_noise":0.15,"location_history":"[2,3,4,5,0,1]","action_history":"[1,0,1,0,1]","mutagen_history":"[0,1,0,1,0]","location_rts":"[3474,1348,933,1129,2704]","trial_type":"fractal-mutation","trial_index":60,"time_elapsed":2301537,"internal_node_id":"0.0-5.0-6.0"},{"group":"hexagon_bi","fractal_assignment":["../images/ylw_slt.png","../images/pnk_blu.png","../images/cyn_red.png","../images/blu_wht.png","../images/org_blu.png","../images/gry_blk.png"],"mutagen_generator_assignment":[1,0],"goal":5,"start":1,"action_noise":0.15,"location_history":"[1,0,5]","action_history":"[1,0]","mutagen_history":"[0,1]","location_rts":"[8430,6008]","trial_type":"fractal-mutation","trial_index":61,"time_elapsed":2321515,"internal_node_id":"0.0-5.0-7.0"},{"group":"hexagon_bi","fractal_assignment":["../images/ylw_slt.png","../images/pnk_blu.png","../images/cyn_red.png","../images/blu_wht.png","../images/org_blu.png","../images/gry_blk.png"],"mutagen_generator_assignment":[1,0],"goal":4,"start":5,"action_noise":0.15,"location_history":"[5,4]","action_history":"[1]","mutagen_history":"[0]","location_rts":"[725]","trial_type":"fractal-mutation","trial_index":62,"time_elapsed":2326748,"internal_node_id":"0.0-5.0-8.0"},{"group":"hexagon_bi","fractal_assignment":["../images/ylw_slt.png","../images/pnk_blu.png","../images/cyn_red.png","../images/blu_wht.png","../images/org_blu.png","../images/gry_blk.png"],"mutagen_generator_assignment":[1,0],"goal":2,"start":4,"action_noise":0.15,"location_history":"[4,3,4,5,4,3,4,3,2]","action_history":"[0,1,0,1,0,0,1,1]","mutagen_history":"[1,0,1,0,1,1,0,0]","location_rts":"[1477,913,3227,840,1442,660,505,427]","trial_type":"fractal-mutation","trial_index":63,"time_elapsed":2347862,"internal_node_id":"0.0-5.0-9.0"},{"group":"hexagon_bi","fractal_assignment":["../images/ylw_slt.png","../images/pnk_blu.png","../images/cyn_red.png","../images/blu_wht.png","../images/org_blu.png","../images/gry_blk.png"],"mutagen_generator_assignment":[1,0],"goal":0,"start":2,"action_noise":0.15,"location_history":"[2,1,0]","action_history":"[0,1]","mutagen_history":"[1,0]","location_rts":"[969,775]","trial_type":"fractal-mutation","trial_index":64,"time_elapsed":2355146,"internal_node_id":"0.0-5.0-10.0"},{"group":"hexagon_bi","fractal_assignment":["../images/ylw_slt.png","../images/pnk_blu.png","../images/cyn_red.png","../images/blu_wht.png","../images/org_blu.png","../images/gry_blk.png"],"mutagen_generator_assignment":[1,0],"goal":1,"start":0,"action_noise":0.15,"location_history":"[0,1]","action_history":"[0]","mutagen_history":"[1]","location_rts":"[1151]","trial_type":"fractal-mutation","trial_index":65,"time_elapsed":2360830,"internal_node_id":"0.0-5.0-11.0"},{"group":"hexagon_bi","fractal_assignment":["../images/ylw_slt.png","../images/pnk_blu.png","../images/cyn_red.png","../images/blu_wht.png","../images/org_blu.png","../images/gry_blk.png"],"mutagen_generator_assignment":[1,0],"goal":3,"start":1,"action_noise":0.15,"location_history":"[1,0,1,2,1,0,1,2,1,2,3]","action_history":"[1,1,0,0,1,1,0,0,0,1]","mutagen_history":"[0,0,1,1,0,0,1,1,1,0]","location_rts":"[1110,951,558,433,472,587,702,369,568,417]","trial_type":"fractal-mutation","trial_index":66,"time_elapsed":2380658,"internal_node_id":"0.0-5.0-12.0"},{"group":"hexagon_bi","fractal_assignment":["../images/ylw_slt.png","../images/pnk_blu.png","../images/cyn_red.png","../images/blu_wht.png","../images/org_blu.png","../images/gry_blk.png"],"mutagen_generator_assignment":[1,0],"goal":5,"start":3,"action_noise":0.15,"location_history":"[3,4,5]","action_history":"[0,0]","mutagen_history":"[1,1]","location_rts":"[970,424]","trial_type":"fractal-mutation","trial_index":67,"time_elapsed":2387609,"internal_node_id":"0.0-5.0-13.0"},{"group":"hexagon_bi","fractal_assignment":["../images/ylw_slt.png","../images/pnk_blu.png","../images/cyn_red.png","../images/blu_wht.png","../images/org_blu.png","../images/gry_blk.png"],"mutagen_generator_assignment":[1,0],"goal":4,"start":5,"action_noise":0.15,"location_history":"[5,0,1,0,5,0,5,4]","action_history":"[1,1,1,0,0,0,1]","mutagen_history":"[0,0,0,1,1,1,0]","location_rts":"[881,4164,468,747,447,568,409]","trial_type":"fractal-mutation","trial_index":68,"time_elapsed":2405903,"internal_node_id":"0.0-5.0-14.0"},{"group":"hexagon_bi","fractal_assignment":["../images/ylw_slt.png","../images/pnk_blu.png","../images/cyn_red.png","../images/blu_wht.png","../images/org_blu.png","../images/gry_blk.png"],"mutagen_generator_assignment":[1,0],"goal":0,"start":4,"action_noise":0.15,"location_history":"[4,5,0]","action_history":"[0,1]","mutagen_history":"[1,0]","location_rts":"[866,746]","trial_type":"fractal-mutation","trial_index":69,"time_elapsed":2413045,"internal_node_id":"0.0-5.0-15.0"},{"group":"hexagon_bi","fractal_assignment":["../images/ylw_slt.png","../images/pnk_blu.png","../images/cyn_red.png","../images/blu_wht.png","../images/org_blu.png","../images/gry_blk.png"],"mutagen_generator_assignment":[1,0],"goal":3,"start":0,"action_noise":0.15,"location_history":"[0,5,0,1,2,1,2,3]","action_history":"[0,1,1,1,0,0,0]","mutagen_history":"[1,0,0,0,1,1,1]","location_rts":"[967,815,987,588,807,599,725]","trial_type":"fractal-mutation","trial_index":70,"time_elapsed":2429158,"internal_node_id":"0.0-5.0-16.0"},{"group":"hexagon_bi","fractal_assignment":["../images/ylw_slt.png","../images/pnk_blu.png","../images/cyn_red.png","../images/blu_wht.png","../images/org_blu.png","../images/gry_blk.png"],"mutagen_generator_assignment":[1,0],"goal":1,"start":3,"action_noise":0.15,"location_history":"[3,2,1]","action_history":"[1,0]","mutagen_history":"[0,1]","location_rts":"[720,2985]","trial_type":"fractal-mutation","trial_index":71,"time_elapsed":2438396,"internal_node_id":"0.0-5.0-17.0"},{"group":"hexagon_bi","fractal_assignment":["../images/ylw_slt.png","../images/pnk_blu.png","../images/cyn_red.png","../images/blu_wht.png","../images/org_blu.png","../images/gry_blk.png"],"mutagen_generator_assignment":[1,0],"goal":5,"start":1,"action_noise":0.15,"location_history":"[1,0,1,0,1,2,1,0,1,0,1,0,5]","action_history":"[0,1,1,1,0,0,0,1,1,1,1,0]","mutagen_history":"[1,0,0,0,1,1,1,0,0,0,0,1]","location_rts":"[28725,909,810,858,1062,458,627,933,690,908,642,945]","trial_type":"fractal-mutation","trial_index":72,"time_elapsed":2491635,"internal_node_id":"0.0-5.0-18.0"},{"group":"hexagon_bi","fractal_assignment":["../images/ylw_slt.png","../images/pnk_blu.png","../images/cyn_red.png","../images/blu_wht.png","../images/org_blu.png","../images/gry_blk.png"],"mutagen_generator_assignment":[1,0],"goal":2,"start":5,"action_noise":0.15,"location_history":"[5,0,5,4,3,2]","action_history":"[0,0,1,0,0]","mutagen_history":"[1,1,0,1,1]","location_rts":"[4758,835,818,1410,871]","trial_type":"fractal-mutation","trial_index":73,"time_elapsed":2508928,"internal_node_id":"0.0-5.0-19.0"},{"group":"hexagon_bi","fractal_assignment":["../images/ylw_slt.png","../images/pnk_blu.png","../images/cyn_red.png","../images/blu_wht.png","../images/org_blu.png","../images/gry_blk.png"],"mutagen_generator_assignment":[1,0],"goal":4,"start":2,"action_noise":0.15,"location_history":"[2,3,4]","action_history":"[1,0]","mutagen_history":"[0,1]","location_rts":"[1423,543]","trial_type":"fractal-mutation","trial_index":74,"time_elapsed":2516432,"internal_node_id":"0.0-5.0-20.0"},{"group":"hexagon_bi","fractal_assignment":["../images/ylw_slt.png","../images/pnk_blu.png","../images/cyn_red.png","../images/blu_wht.png","../images/org_blu.png","../images/gry_blk.png"],"mutagen_generator_assignment":[1,0],"goal":1,"start":4,"action_noise":0.15,"location_history":"[4,3,2,3,4,3,2,3,4,5,0,5,0,5,4,3,2,3,4,3,2,1]","action_history":"[0,1,1,0,0,1,0,0,1,0,0,0,0,1,0,0,1,0,0,1,0]","mutagen_history":"[1,0,0,1,1,0,1,1,0,1,1,1,1,0,1,1,0,1,1,0,1]","location_rts":"[2574,3159,722,2487,449,577,903,818,631,887,514,549,2302,2457,831,680,5829,1198,888,1799,2302]","trial_type":"fractal-mutation","trial_index":75,"time_elapsed":2573876,"internal_node_id":"0.0-5.0-21.0"},{"group":"hexagon_bi","fractal_assignment":["../images/ylw_slt.png","../images/pnk_blu.png","../images/cyn_red.png","../images/blu_wht.png","../images/org_blu.png","../images/gry_blk.png"],"mutagen_generator_assignment":[1,0],"goal":3,"start":1,"action_noise":0.15,"location_history":"[1,0,5,0,5,4,5,0,5,0,1,0,5,0,5,4,5,0,5,0,1,0,5,0,5,0,5,4,5,0,5,0,5,0,5,4,3]","action_history":"[1,0,0,0,1,1,0,0,1,1,1,0,0,0,1,1,0,0,1,1,1,0,0,0,0,1,1,1,0,0,0,0,0,1,1,1]","mutagen_history":"[0,1,1,1,0,0,1,1,0,0,0,1,1,1,0,0,1,1,0,0,0,1,1,1,1,0,0,0,1,1,1,1,1,0,0,0]","location_rts":"[763,1083,709,682,728,1347,775,749,701,838,676,813,614,1093,586,517,719,733,975,700,1086,910,515,543,888,1026,552,523,601,1199,502,2817,636,832,498,530]","trial_type":"fractal-mutation","trial_index":76,"time_elapsed":2643422,"internal_node_id":"0.0-5.0-22.0"},{"group":"hexagon_bi","fractal_assignment":["../images/ylw_slt.png","../images/pnk_blu.png","../images/cyn_red.png","../images/blu_wht.png","../images/org_blu.png","../images/gry_blk.png"],"mutagen_generator_assignment":[1,0],"goal":2,"start":3,"action_noise":0.15,"location_history":"[3,4,5,4,5,4,5,0,5,4,3,2]","action_history":"[0,1,1,1,1,1,0,0,1,1,1]","mutagen_history":"[1,0,0,0,0,0,1,1,0,0,0]","location_rts":"[1177,819,449,954,631,822,429,805,454,602,415]","trial_type":"fractal-mutation","trial_index":77,"time_elapsed":2665610,"internal_node_id":"0.0-5.0-23.0"},{"group":"hexagon_bi","fractal_assignment":["../images/ylw_slt.png","../images/pnk_blu.png","../images/cyn_red.png","../images/blu_wht.png","../images/org_blu.png","../images/gry_blk.png"],"mutagen_generator_assignment":[1,0],"goal":0,"start":2,"action_noise":0.15,"location_history":"[2,1,2,3,2,1,2,1,2,1,2,1,2,1,0]","action_history":"[0,0,1,1,0,0,0,1,1,0,0,0,1,1]","mutagen_history":"[1,1,0,0,1,1,1,0,0,1,1,1,0,0]","location_rts":"[898,460,465,836,442,497,1638,564,453,1102,1027,531,426,547]","trial_type":"fractal-mutation","trial_index":78,"time_elapsed":2693239,"internal_node_id":"0.0-5.0-24.0"},{"group":"hexagon_bi","fractal_assignment":["../images/ylw_slt.png","../images/pnk_blu.png","../images/cyn_red.png","../images/blu_wht.png","../images/org_blu.png","../images/gry_blk.png"],"mutagen_generator_assignment":[1,0],"goal":5,"start":0,"action_noise":0.15,"location_history":"[0,1,2,3,2,3,4,3,2,3,4,3,4,5]","action_history":"[1,0,0,1,1,0,0,1,1,0,0,0,1]","mutagen_history":"[0,1,1,0,0,1,1,0,0,1,1,1,0]","location_rts":"[1091,687,505,656,601,760,1560,666,1367,957,898,686,521]","trial_type":"fractal-mutation","trial_index":79,"time_elapsed":2720909,"internal_node_id":"0.0-5.0-25.0"},{"group":"hexagon_bi","fractal_assignment":["../images/ylw_slt.png","../images/pnk_blu.png","../images/cyn_red.png","../images/blu_wht.png","../images/org_blu.png","../images/gry_blk.png"],"mutagen_generator_assignment":[1,0],"goal":2,"start":5,"action_noise":0.15,"location_history":"[5,0,5,0,5,0,5,0,5,0,1,0,1,0,5,0,1,2]","action_history":"[0,1,1,1,1,0,0,0,0,1,1,1,1,0,0,1,1]","mutagen_history":"[1,0,0,0,0,1,1,1,1,0,0,0,0,1,1,0,0]","location_rts":"[808,393,420,420,536,388,435,505,465,404,911,454,496,768,1332,966,432]","trial_type":"fractal-mutation","trial_index":80,"time_elapsed":2751783,"internal_node_id":"0.0-5.0-26.0"},{"group":"hexagon_bi","fractal_assignment":["../images/ylw_slt.png","../images/pnk_blu.png","../images/cyn_red.png","../images/blu_wht.png","../images/org_blu.png","../images/gry_blk.png"],"mutagen_generator_assignment":[1,0],"goal":3,"start":2,"action_noise":0.15,"location_history":"[2,1,2,3]","action_history":"[0,0,1]","mutagen_history":"[1,1,0]","location_rts":"[767,833,3350]","trial_type":"fractal-mutation","trial_index":81,"time_elapsed":2763289,"internal_node_id":"0.0-5.0-27.0"},{"group":"hexagon_bi","fractal_assignment":["../images/ylw_slt.png","../images/pnk_blu.png","../images/cyn_red.png","../images/blu_wht.png","../images/org_blu.png","../images/gry_blk.png"],"mutagen_generator_assignment":[1,0],"goal":0,"start":3,"action_noise":0.15,"location_history":"[3,2,3,2,3,2,3,2,3,4,3,4,5,0]","action_history":"[0,1,1,1,0,0,1,0,0,0,1,1,1]","mutagen_history":"[1,0,0,0,1,1,0,1,1,1,0,0,0]","location_rts":"[920,635,1287,609,813,602,2537,857,835,476,698,453,783]","trial_type":"fractal-mutation","trial_index":82,"time_elapsed":2791485,"internal_node_id":"0.0-5.0-28.0"},{"group":"hexagon_bi","fractal_assignment":["../images/ylw_slt.png","../images/pnk_blu.png","../images/cyn_red.png","../images/blu_wht.png","../images/org_blu.png","../images/gry_blk.png"],"mutagen_generator_assignment":[1,0],"goal":1,"start":0,"action_noise":0.15,"location_history":"[0,5,0,5,4,5,0,1]","action_history":"[1,0,0,1,1,0,1]","mutagen_history":"[0,1,1,0,0,1,0]","location_rts":"[792,601,797,1076,2038,1195,858]","trial_type":"fractal-mutation","trial_index":83,"time_elapsed":2809445,"internal_node_id":"0.0-5.0-29.0"},{"group":"hexagon_bi","fractal_assignment":["../images/ylw_slt.png","../images/pnk_blu.png","../images/cyn_red.png","../images/blu_wht.png","../images/org_blu.png","../images/gry_blk.png"],"mutagen_generator_assignment":[1,0],"goal":4,"start":1,"action_noise":0.15,"location_history":"[1,0,1,2,1,0,5,0,5,0,1,2,1,2,3,2,3,4]","action_history":"[1,1,0,0,1,1,0,0,1,1,1,0,0,1,1,1,0]","mutagen_history":"[0,0,1,1,0,0,1,1,0,0,0,1,1,0,0,0,1]","location_rts":"[14222,1054,1653,975,1084,698,743,527,700,458,586,1138,1021,809,1012,780,1128]","trial_type":"fractal-mutation","trial_index":84,"time_elapsed":2858765,"internal_node_id":"0.0-5.0-30.0"},{"group":"hexagon_bi","fractal_assignment":["../images/ylw_slt.png","../images/pnk_blu.png","../images/cyn_red.png","../images/blu_wht.png","../images/org_blu.png","../images/gry_blk.png"],"mutagen_generator_assignment":[1,0],"goal":5,"start":4,"action_noise":0.15,"location_history":"[4,5]","action_history":"[0]","mutagen_history":"[1]","location_rts":"[3741]","trial_type":"fractal-mutation","trial_index":85,"time_elapsed":2867033,"internal_node_id":"0.0-5.0-31.0"},{"group":"hexagon_bi","fractal_assignment":["../images/ylw_slt.png","../images/pnk_blu.png","../images/cyn_red.png","../images/blu_wht.png","../images/org_blu.png","../images/gry_blk.png"],"mutagen_generator_assignment":[1,0],"goal":0,"start":5,"action_noise":0.15,"location_history":"[5,4,5,0]","action_history":"[0,0,0]","mutagen_history":"[1,1,1]","location_rts":"[4098,1146,1153]","trial_type":"fractal-mutation","trial_index":86,"time_elapsed":2880005,"internal_node_id":"0.0-5.0-32.0"},{"group":"hexagon_bi","fractal_assignment":["../images/ylw_slt.png","../images/pnk_blu.png","../images/cyn_red.png","../images/blu_wht.png","../images/org_blu.png","../images/gry_blk.png"],"mutagen_generator_assignment":[1,0],"goal":3,"start":0,"action_noise":0.15,"location_history":"[0,1,0,1,0,5,4,3]","action_history":"[1,1,1,1,0,1,0]","mutagen_history":"[0,0,0,0,1,0,1]","location_rts":"[1179,656,947,715,688,639,745]","trial_type":"fractal-mutation","trial_index":87,"time_elapsed":2896189,"internal_node_id":"0.0-5.0-33.0"},{"group":"hexagon_bi","fractal_assignment":["../images/ylw_slt.png","../images/pnk_blu.png","../images/cyn_red.png","../images/blu_wht.png","../images/org_blu.png","../images/gry_blk.png"],"mutagen_generator_assignment":[1,0],"goal":1,"start":3,"action_noise":0.15,"location_history":"[3,4,3,4,3,2,3,2,1]","action_history":"[1,0,0,0,1,1,0,0]","mutagen_history":"[0,1,1,1,0,0,1,1]","location_rts":"[948,480,527,439,613,640,572,787]","trial_type":"fractal-mutation","trial_index":88,"time_elapsed":2912853,"internal_node_id":"0.0-5.0-34.0"},{"group":"hexagon_bi","fractal_assignment":["../images/ylw_slt.png","../images/pnk_blu.png","../images/cyn_red.png","../images/blu_wht.png","../images/org_blu.png","../images/gry_blk.png"],"mutagen_generator_assignment":[1,0],"goal":2,"start":1,"action_noise":0.15,"location_history":"[1,2]","action_history":"[1]","mutagen_history":"[0]","location_rts":"[1338]","trial_type":"fractal-mutation","trial_index":89,"time_elapsed":2918697,"internal_node_id":"0.0-5.0-35.0"},{"group":"hexagon_bi","fractal_assignment":["../images/ylw_slt.png","../images/pnk_blu.png","../images/cyn_red.png","../images/blu_wht.png","../images/org_blu.png","../images/gry_blk.png"],"mutagen_generator_assignment":[1,0],"goal":4,"start":2,"action_noise":0.15,"location_history":"[2,1,0,5,4]","action_history":"[0,1,0,1]","mutagen_history":"[1,0,1,0]","location_rts":"[2852,637,832,1755]","trial_type":"fractal-mutation","trial_index":90,"time_elapsed":2932344,"internal_node_id":"0.0-5.0-36.0"},{"group":"hexagon_bi","fractal_assignment":["../images/ylw_slt.png","../images/pnk_blu.png","../images/cyn_red.png","../images/blu_wht.png","../images/org_blu.png","../images/gry_blk.png"],"mutagen_generator_assignment":[1,0],"goal":5,"start":4,"action_noise":0.15,"location_history":"[4,3,2,1,2,1,0,5]","action_history":"[0,1,0,0,1,1,0]","mutagen_history":"[1,0,1,1,0,0,1]","location_rts":"[1016,829,937,1189,794,516,900]","trial_type":"fractal-mutation","trial_index":91,"time_elapsed":2949142,"internal_node_id":"0.0-5.0-37.0"},{"group":"hexagon_bi","fractal_assignment":["../images/ylw_slt.png","../images/pnk_blu.png","../images/cyn_red.png","../images/blu_wht.png","../images/org_blu.png","../images/gry_blk.png"],"mutagen_generator_assignment":[1,0],"goal":1,"start":5,"action_noise":0.15,"location_history":"[5,4,3,4,5,4,5,0,1]","action_history":"[1,0,0,1,1,0,0,1]","mutagen_history":"[0,1,1,0,0,1,1,0]","location_rts":"[746,935,2438,797,1097,1264,4367,867]","trial_type":"fractal-mutation","trial_index":92,"time_elapsed":2973277,"internal_node_id":"0.0-5.0-38.0"},{"group":"hexagon_bi","fractal_assignment":["../images/ylw_slt.png","../images/pnk_blu.png","../images/cyn_red.png","../images/blu_wht.png","../images/org_blu.png","../images/gry_blk.png"],"mutagen_generator_assignment":[1,0],"goal":4,"start":1,"action_noise":0.15,"location_history":"[1,2,3,4]","action_history":"[0,1,0]","mutagen_history":"[1,0,1]","location_rts":"[6224,781,860]","trial_type":"fractal-mutation","trial_index":93,"time_elapsed":2987701,"internal_node_id":"0.0-5.0-39.0"},{"group":"hexagon_bi","fractal_assignment":["../images/ylw_slt.png","../images/pnk_blu.png","../images/cyn_red.png","../images/blu_wht.png","../images/org_blu.png","../images/gry_blk.png"],"mutagen_generator_assignment":[1,0],"goal":3,"start":4,"action_noise":0.15,"location_history":"[4,3]","action_history":"[0]","mutagen_history":"[1]","location_rts":"[1486]","trial_type":"fractal-mutation","trial_index":94,"time_elapsed":2993713,"internal_node_id":"0.0-5.0-40.0"},{"group":"hexagon_bi","fractal_assignment":["../images/ylw_slt.png","../images/pnk_blu.png","../images/cyn_red.png","../images/blu_wht.png","../images/org_blu.png","../images/gry_blk.png"],"mutagen_generator_assignment":[1,0],"goal":2,"start":3,"action_noise":0.15,"location_history":"[3,2]","action_history":"[1]","mutagen_history":"[0]","location_rts":"[1086]","trial_type":"fractal-mutation","trial_index":95,"time_elapsed":2999305,"internal_node_id":"0.0-5.0-41.0"},{"group":"hexagon_bi","fractal_assignment":["../images/ylw_slt.png","../images/pnk_blu.png","../images/cyn_red.png","../images/blu_wht.png","../images/org_blu.png","../images/gry_blk.png"],"mutagen_generator_assignment":[1,0],"goal":0,"start":2,"action_noise":0.15,"location_history":"[2,1,2,3,2,3,2,3,4,3,2,3,2,1,0]","action_history":"[0,0,1,1,0,1,1,0,0,1,1,0,0,1]","mutagen_history":"[1,1,0,0,1,0,0,1,1,0,0,1,1,0]","location_rts":"[1415,477,417,1123,1153,4202,505,589,1001,1950,587,725,542,923]","trial_type":"fractal-mutation","trial_index":96,"time_elapsed":3032632,"internal_node_id":"0.0-5.0-42.0"},{"group":"hexagon_bi","fractal_assignment":["../images/ylw_slt.png","../images/pnk_blu.png","../images/cyn_red.png","../images/blu_wht.png","../images/org_blu.png","../images/gry_blk.png"],"mutagen_generator_assignment":[1,0],"goal":5,"start":0,"action_noise":0.15,"location_history":"[0,5]","action_history":"[0]","mutagen_history":"[1]","location_rts":"[961]","trial_type":"fractal-mutation","trial_index":97,"time_elapsed":3038118,"internal_node_id":"0.0-5.0-43.0"},{"group":"hexagon_bi","fractal_assignment":["../images/ylw_slt.png","../images/pnk_blu.png","../images/cyn_red.png","../images/blu_wht.png","../images/org_blu.png","../images/gry_blk.png"],"mutagen_generator_assignment":[1,0],"goal":0,"start":5,"action_noise":0.15,"location_history":"[5,4,3,2,1,0]","action_history":"[1,0,1,0,1]","mutagen_history":"[0,1,0,1,0]","location_rts":"[863,4233,632,2060,3538]","trial_type":"fractal-mutation","trial_index":98,"time_elapsed":3058013,"internal_node_id":"0.0-5.0-44.0"},{"group":"hexagon_bi","fractal_assignment":["../images/ylw_slt.png","../images/pnk_blu.png","../images/cyn_red.png","../images/blu_wht.png","../images/org_blu.png","../images/gry_blk.png"],"mutagen_generator_assignment":[1,0],"goal":2,"start":0,"action_noise":0.15,"location_history":"[0,5,4,3,2]","action_history":"[0,1,0,1]","mutagen_history":"[1,0,1,0]","location_rts":"[968,555,1111,484]","trial_type":"fractal-mutation","trial_index":99,"time_elapsed":3068689,"internal_node_id":"0.0-5.0-45.0"},{"group":"hexagon_bi","fractal_assignment":["../images/ylw_slt.png","../images/pnk_blu.png","../images/cyn_red.png","../images/blu_wht.png","../images/org_blu.png","../images/gry_blk.png"],"mutagen_generator_assignment":[1,0],"goal":4,"start":2,"action_noise":0.15,"location_history":"[2,1,2,3,2,1,0,5,4]","action_history":"[0,0,1,1,0,1,0,1]","mutagen_history":"[1,1,0,0,1,0,1,0]","location_rts":"[798,517,604,457,4529,586,802,5215]","trial_type":"fractal-mutation","trial_index":100,"time_elapsed":3093835,"internal_node_id":"0.0-5.0-46.0"},{"group":"hexagon_bi","fractal_assignment":["../images/ylw_slt.png","../images/pnk_blu.png","../images/cyn_red.png","../images/blu_wht.png","../images/org_blu.png","../images/gry_blk.png"],"mutagen_generator_assignment":[1,0],"goal":1,"start":4,"action_noise":0.15,"location_history":"[4,5,0,5,4,5,0,5,4,3,4,5,0,5,4,5,0,1]","action_history":"[1,0,1,0,1,0,0,1,0,0,1,0,0,1,1,0,0]","mutagen_history":"[0,1,0,1,0,1,1,0,1,1,0,1,1,0,0,1,1]","location_rts":"[2129,1358,2116,1693,3636,685,691,2084,560,2217,1807,702,734,647,567,805,470]","trial_type":"fractal-mutation","trial_index":101,"time_elapsed":3137550,"internal_node_id":"0.0-5.0-47.0"},{"group":"hexagon_bi","fractal_assignment":["../images/ylw_slt.png","../images/pnk_blu.png","../images/cyn_red.png","../images/blu_wht.png","../images/org_blu.png","../images/gry_blk.png"],"mutagen_generator_assignment":[1,0],"goal":5,"start":1,"action_noise":0.15,"location_history":"[1,0,5]","action_history":"[1,0]","mutagen_history":"[0,1]","location_rts":"[1180,809]","trial_type":"fractal-mutation","trial_index":102,"time_elapsed":3145073,"internal_node_id":"0.0-5.0-48.0"},{"group":"hexagon_bi","fractal_assignment":["../images/ylw_slt.png","../images/pnk_blu.png","../images/cyn_red.png","../images/blu_wht.png","../images/org_blu.png","../images/gry_blk.png"],"mutagen_generator_assignment":[1,0],"goal":3,"start":5,"action_noise":0.15,"location_history":"[5,4,5,0,1,2,1,0,5,4,5,0,1,0,1,2,1,0,1,0,5,0,5,4,5,0,5,4,5,0,5,4,3]","action_history":"[1,0,0,1,0,0,1,0,1,1,0,0,1,1,0,0,1,1,1,0,0,0,1,1,0,0,1,1,0,0,0,0]","mutagen_history":"[0,1,1,0,1,1,0,1,0,0,1,1,0,0,1,1,0,0,0,1,1,1,0,0,1,1,0,0,1,1,1,1]","location_rts":"[599,727,510,2452,567,538,626,1210,672,702,619,796,951,768,528,470,831,870,528,572,452,593,523,714,495,672,581,791,2550,1515,509,519]","trial_type":"fractal-mutation","trial_index":103,"time_elapsed":3206550,"internal_node_id":"0.0-5.0-49.0"},{"view_history":"[{\"page_index\":0,\"viewing_time\":18614}]","rt":18615,"trial_type":"instructions","trial_index":104,"time_elapsed":3226165,"internal_node_id":"0.0-6.0"},{"rt":26869,"responses":"{\"Q0\":\"nothing wrong\"}","trial_type":"survey-text","trial_index":105,"time_elapsed":3254044,"internal_node_id":"0.0-7.0"}]