[{"view_history":"[{\"page_index\":0,\"viewing_time\":5993},{\"page_index\":1,\"viewing_time\":33560}]","rt":39555,"trial_type":"instructions","trial_index":0,"time_elapsed":39556,"internal_node_id":"0.0-0.0"},{"view_history":"[{\"page_index\":0,\"viewing_time\":4852},{\"page_index\":1,\"viewing_time\":46488}]","rt":51342,"trial_type":"instructions","trial_index":1,"time_elapsed":91902,"internal_node_id":"0.0-1.0"},{"group":"hexagon_tri","room_assignment":["blue","purple","red","green","grey","yellow"],"door_color_assignment":["white","black"],"door_generator_assignment":[1,0],"goal":3,"start":5,"action_noise":0.15,"location_history":"[5,0,5,4,0,5,0,1,5,0,1,3]","action_history":"[1,0,0,0,1,1,1,1,1,1,0]","door_history":"[0,1,1,1,0,0,0,0,0,0,1]","location_rts":"[11212,4851,4259,2016,515,437,516,1032,1061,1020,1356]","trial_type":"two-door-navigation","trial_index":2,"time_elapsed":135294,"internal_node_id":"0.0-2.0-0.0"},{"group":"hexagon_tri","room_assignment":["blue","purple","red","green","grey","yellow"],"door_color_assignment":["white","black"],"door_generator_assignment":[1,0],"goal":1,"start":3,"action_noise":0.15,"location_history":"[3,4,2,3,2,1]","action_history":"[1,1,1,0,0]","door_history":"[0,0,0,1,1]","location_rts":"[4414,1277,645,362,923]","trial_type":"two-door-navigation","trial_index":3,"time_elapsed":151672,"internal_node_id":"0.0-2.0-1.0"},{"group":"hexagon_tri","room_assignment":["blue","purple","red","green","grey","yellow"],"door_color_assignment":["white","black"],"door_generator_assignment":[1,0],"goal":0,"start":1,"action_noise":0.15,"location_history":"[1,3,4,2,1,3,2,3,2,3,2,1,5,4,2,3,4,2,3,2,3,2,1,3,2,1,3,2,3,4,0]","action_history":"[0,1,1,1,0,0,0,0,1,0,0,0,1,1,1,1,1,1,0,0,0,0,0,0,0,0,1,1,1,1]","door_history":"[1,0,0,0,1,1,1,1,0,1,1,1,0,0,0,0,0,0,1,1,1,1,1,1,1,1,0,0,0,0]","location_rts":"[770,710,759,564,1413,572,543,1389,1013,986,961,1650,1101,404,359,346,2881,403,337,385,397,451,375,674,324,324,403,285,328,132]","trial_type":"two-door-navigation","trial_index":4,"time_elapsed":207673,"internal_node_id":"0.0-2.0-2.0"},{"group":"hexagon_tri","room_assignment":["blue","purple","red","green","grey","yellow"],"door_color_assignment":["white","black"],"door_generator_assignment":[1,0],"goal":3,"start":0,"action_noise":0.15,"location_history":"[0,1,5,0,5,4,0,5,0,5,0,1,5,4,0,5,4,0,5,0,5,4,2,1,3]","action_history":"[1,1,1,0,0,0,0,1,0,1,1,1,0,0,0,0,0,0,1,1,0,1,0,0]","door_history":"[0,0,0,1,1,1,1,0,1,0,0,0,1,1,1,1,1,1,0,0,1,0,1,1]","location_rts":"[5382,777,612,1498,2218,496,2548,414,1481,1970,439,439,1226,552,827,470,631,403,1230,358,311,580,270,314]","trial_type":"two-door-navigation","trial_index":5,"time_elapsed":261445,"internal_node_id":"0.0-2.0-3.0"},{"group":"hexagon_tri","room_assignment":["blue","purple","red","green","grey","yellow"],"door_color_assignment":["white","black"],"door_generator_assignment":[1,0],"goal":4,"start":3,"action_noise":0.15,"location_history":"[3,4]","action_history":"[0]","door_history":"[1]","location_rts":"[2706]","trial_type":"two-door-navigation","trial_index":6,"time_elapsed":268684,"internal_node_id":"0.0-2.0-4.0"},{"group":"hexagon_tri","room_assignment":["blue","purple","red","green","grey","yellow"],"door_color_assignment":["white","black"],"door_generator_assignment":[1,0],"goal":2,"start":4,"action_noise":0.15,"location_history":"[4,2]","action_history":"[1]","door_history":"[0]","location_rts":"[3057]","trial_type":"two-door-navigation","trial_index":7,"time_elapsed":276275,"internal_node_id":"0.0-2.0-5.0"},{"group":"hexagon_tri","room_assignment":["blue","purple","red","green","grey","yellow"],"door_color_assignment":["white","black"],"door_generator_assignment":[1,0],"goal":1,"start":2,"action_noise":0.15,"location_history":"[2,1]","action_history":"[0]","door_history":"[1]","location_rts":"[3586]","trial_type":"two-door-navigation","trial_index":8,"time_elapsed":284394,"internal_node_id":"0.0-2.0-6.0"},{"group":"hexagon_tri","room_assignment":["blue","purple","red","green","grey","yellow"],"door_color_assignment":["white","black"],"door_generator_assignment":[1,0],"goal":5,"start":1,"action_noise":0.15,"location_history":"[1,3,4,2,1,5]","action_history":"[0,1,1,0,0]","door_history":"[1,0,0,1,1]","location_rts":"[1409,2099,1211,785,768]","trial_type":"two-door-navigation","trial_index":9,"time_elapsed":299314,"internal_node_id":"0.0-2.0-7.0"},{"group":"hexagon_tri","room_assignment":["blue","purple","red","green","grey","yellow"],"door_color_assignment":["white","black"],"door_generator_assignment":[1,0],"goal":4,"start":5,"action_noise":0.15,"location_history":"[5,0,5,4]","action_history":"[1,0,0]","door_history":"[0,1,1]","location_rts":"[1308,1364,722]","trial_type":"two-door-navigation","trial_index":10,"time_elapsed":309300,"internal_node_id":"0.0-2.0-8.0"},{"group":"hexagon_tri","room_assignment":["blue","purple","red","green","grey","yellow"],"door_color_assignment":["white","black"],"door_generator_assignment":[1,0],"goal":2,"start":4,"action_noise":0.15,"location_history":"[4,2]","action_history":"[1]","door_history":"[0]","location_rts":"[2229]","trial_type":"two-door-navigation","trial_index":11,"time_elapsed":316058,"internal_node_id":"0.0-2.0-9.0"},{"group":"hexagon_tri","room_assignment":["blue","purple","red","green","grey","yellow"],"door_color_assignment":["white","black"],"door_generator_assignment":[1,0],"goal":0,"start":2,"action_noise":0.15,"location_history":"[2,1,3,4,2,3,2,1,3,4,2,3,2,1,5,0]","action_history":"[0,0,1,1,1,0,0,0,1,1,1,1,0,1,1]","door_history":"[1,1,0,0,0,1,1,1,0,0,0,0,1,0,0]","location_rts":"[1424,1542,832,734,407,603,389,583,584,416,431,334,383,1020,404]","trial_type":"two-door-navigation","trial_index":12,"time_elapsed":345156,"internal_node_id":"0.0-2.0-10.0"},{"group":"hexagon_tri","room_assignment":["blue","purple","red","green","grey","yellow"],"door_color_assignment":["white","black"],"door_generator_assignment":[1,0],"goal":1,"start":0,"action_noise":0.15,"location_history":"[0,1]","action_history":"[1]","door_history":"[0]","location_rts":"[3632]","trial_type":"two-door-navigation","trial_index":13,"time_elapsed":353327,"internal_node_id":"0.0-2.0-11.0"},{"group":"hexagon_tri","room_assignment":["blue","purple","red","green","grey","yellow"],"door_color_assignment":["white","black"],"door_generator_assignment":[1,0],"goal":3,"start":1,"action_noise":0.15,"location_history":"[1,3]","action_history":"[0]","door_history":"[1]","location_rts":"[2198]","trial_type":"two-door-navigation","trial_index":14,"time_elapsed":360060,"internal_node_id":"0.0-2.0-12.0"},{"group":"hexagon_tri","room_assignment":["blue","purple","red","green","grey","yellow"],"door_color_assignment":["white","black"],"door_generator_assignment":[1,0],"goal":5,"start":3,"action_noise":0.15,"location_history":"[3,2,1,5]","action_history":"[1,0,1]","door_history":"[0,1,0]","location_rts":"[624,581,1361]","trial_type":"two-door-navigation","trial_index":15,"time_elapsed":369218,"internal_node_id":"0.0-2.0-13.0"},{"group":"hexagon_tri","room_assignment":["blue","purple","red","green","grey","yellow"],"door_color_assignment":["white","black"],"door_generator_assignment":[1,0],"goal":4,"start":5,"action_noise":0.15,"location_history":"[5,4]","action_history":"[0]","door_history":"[1]","location_rts":"[1814]","trial_type":"two-door-navigation","trial_index":16,"time_elapsed":375560,"internal_node_id":"0.0-2.0-14.0"},{"group":"hexagon_tri","room_assignment":["blue","purple","red","green","grey","yellow"],"door_color_assignment":["white","black"],"door_generator_assignment":[1,0],"goal":0,"start":4,"action_noise":0.15,"location_history":"[4,0]","action_history":"[0]","door_history":"[1]","location_rts":"[2016]","trial_type":"two-door-navigation","trial_index":17,"time_elapsed":382102,"internal_node_id":"0.0-2.0-15.0"},{"group":"hexagon_tri","room_assignment":["blue","purple","red","green","grey","yellow"],"door_color_assignment":["white","black"],"door_generator_assignment":[1,0],"goal":3,"start":0,"action_noise":0.15,"location_history":"[0,1,5,0,5,4,0,1,5,0,1,3]","action_history":"[1,1,1,0,0,0,1,1,1,1,0]","door_history":"[0,0,0,1,1,1,0,0,0,0,1]","location_rts":"[1753,768,514,1404,673,600,426,374,804,2304,420]","trial_type":"two-door-navigation","trial_index":18,"time_elapsed":407135,"internal_node_id":"0.0-2.0-16.0"},{"group":"hexagon_tri","room_assignment":["blue","purple","red","green","grey","yellow"],"door_color_assignment":["white","black"],"door_generator_assignment":[1,0],"goal":1,"start":3,"action_noise":0.15,"location_history":"[3,4,0,1]","action_history":"[1,0,1]","door_history":"[0,1,0]","location_rts":"[2999,752,1302]","trial_type":"two-door-navigation","trial_index":19,"time_elapsed":418781,"internal_node_id":"0.0-2.0-17.0"},{"group":"hexagon_tri","room_assignment":["blue","purple","red","green","grey","yellow"],"door_color_assignment":["white","black"],"door_generator_assignment":[1,0],"goal":5,"start":1,"action_noise":0.15,"location_history":"[1,5]","action_history":"[1]","door_history":"[0]","location_rts":"[1346]","trial_type":"two-door-navigation","trial_index":20,"time_elapsed":424668,"internal_node_id":"0.0-2.0-18.0"},{"group":"hexagon_tri","room_assignment":["blue","purple","red","green","grey","yellow"],"door_color_assignment":["white","black"],"door_generator_assignment":[1,0],"goal":2,"start":5,"action_noise":0.15,"location_history":"[5,0,5,0,1,3,2]","action_history":"[0,0,1,1,0,1]","door_history":"[1,1,0,0,1,0]","location_rts":"[3915,1093,531,378,779,1086]","trial_type":"two-door-navigation","trial_index":21,"time_elapsed":442123,"internal_node_id":"0.0-2.0-19.0"},{"group":"hexagon_tri","room_assignment":["blue","purple","red","green","grey","yellow"],"door_color_assignment":["white","black"],"door_generator_assignment":[1,0],"goal":4,"start":2,"action_noise":0.15,"location_history":"[2,1,5,0,1,3,2,1,3,4]","action_history":"[0,1,1,1,0,0,0,0,1]","door_history":"[1,0,0,0,1,1,1,1,0]","location_rts":"[1501,1236,880,734,347,528,572,1024,439]","trial_type":"two-door-navigation","trial_index":22,"time_elapsed":462127,"internal_node_id":"0.0-2.0-20.0"},{"group":"hexagon_tri","room_assignment":["blue","purple","red","green","grey","yellow"],"door_color_assignment":["white","black"],"door_generator_assignment":[1,0],"goal":1,"start":4,"action_noise":0.15,"location_history":"[4,2,3,4,2,1]","action_history":"[0,1,1,1,0]","door_history":"[1,0,0,0,1]","location_rts":"[1631,660,553,566,618]","trial_type":"two-door-navigation","trial_index":23,"time_elapsed":474867,"internal_node_id":"0.0-2.0-21.0"},{"group":"hexagon_tri","room_assignment":["blue","purple","red","green","grey","yellow"],"door_color_assignment":["white","black"],"door_generator_assignment":[1,0],"goal":3,"start":1,"action_noise":0.15,"location_history":"[1,3]","action_history":"[1]","door_history":"[0]","location_rts":"[1310]","trial_type":"two-door-navigation","trial_index":24,"time_elapsed":480716,"internal_node_id":"0.0-2.0-22.0"},{"group":"hexagon_tri","room_assignment":["blue","purple","red","green","grey","yellow"],"door_color_assignment":["white","black"],"door_generator_assignment":[1,0],"goal":2,"start":3,"action_noise":0.15,"location_history":"[3,2]","action_history":"[0]","door_history":"[1]","location_rts":"[1007]","trial_type":"two-door-navigation","trial_index":25,"time_elapsed":486260,"internal_node_id":"0.0-2.0-23.0"},{"group":"hexagon_tri","room_assignment":["blue","purple","red","green","grey","yellow"],"door_color_assignment":["white","black"],"door_generator_assignment":[1,0],"goal":0,"start":2,"action_noise":0.15,"location_history":"[2,3,2,1,3,4,2,1,5,0]","action_history":"[1,0,0,1,1,1,0,1,1]","door_history":"[0,1,1,0,0,0,1,0,0]","location_rts":"[1176,550,491,690,638,410,657,975,547]","trial_type":"two-door-navigation","trial_index":26,"time_elapsed":505198,"internal_node_id":"0.0-2.0-24.0"},{"group":"hexagon_tri","room_assignment":["blue","purple","red","green","grey","yellow"],"door_color_assignment":["white","black"],"door_generator_assignment":[1,0],"goal":5,"start":0,"action_noise":0.15,"location_history":"[0,5]","action_history":"[0]","door_history":"[1]","location_rts":"[1728]","trial_type":"two-door-navigation","trial_index":27,"time_elapsed":511456,"internal_node_id":"0.0-2.0-25.0"},{"group":"hexagon_tri","room_assignment":["blue","purple","red","green","grey","yellow"],"door_color_assignment":["white","black"],"door_generator_assignment":[1,0],"goal":2,"start":5,"action_noise":0.15,"location_history":"[5,0,5,0,5,0,5,0,5,0,1,5,0,1,3,4,2]","action_history":"[1,0,1,0,1,0,0,0,1,1,1,1,1,0,1,1]","door_history":"[0,1,0,1,0,1,1,1,0,0,0,0,0,1,0,0]","location_rts":"[1723,1021,576,447,1656,2409,1228,642,1635,486,466,473,128,374,853,565]","trial_type":"two-door-navigation","trial_index":28,"time_elapsed":546104,"internal_node_id":"0.0-2.0-26.0"},{"group":"hexagon_tri","room_assignment":["blue","purple","red","green","grey","yellow"],"door_color_assignment":["white","black"],"door_generator_assignment":[1,0],"goal":3,"start":2,"action_noise":0.15,"location_history":"[2,1,5,0,5,4,2,3]","action_history":"[0,1,1,0,1,1,1]","door_history":"[1,0,0,1,0,0,0]","location_rts":"[2371,906,526,704,434,611,521]","trial_type":"two-door-navigation","trial_index":29,"time_elapsed":562880,"internal_node_id":"0.0-2.0-27.0"},{"group":"hexagon_tri","room_assignment":["blue","purple","red","green","grey","yellow"],"door_color_assignment":["white","black"],"door_generator_assignment":[1,0],"goal":0,"start":3,"action_noise":0.15,"location_history":"[3,2,1,3,2,3,4,0]","action_history":"[1,0,0,1,1,1,0]","door_history":"[0,1,1,0,0,0,1]","location_rts":"[5542,840,691,917,472,487,944]","trial_type":"two-door-navigation","trial_index":30,"time_elapsed":583460,"internal_node_id":"0.0-2.0-28.0"},{"group":"hexagon_tri","room_assignment":["blue","purple","red","green","grey","yellow"],"door_color_assignment":["white","black"],"door_generator_assignment":[1,0],"goal":1,"start":0,"action_noise":0.15,"location_history":"[0,5,4,2,1]","action_history":"[0,0,1,0]","door_history":"[1,1,0,1]","location_rts":"[1285,1361,944,1016]","trial_type":"two-door-navigation","trial_index":31,"time_elapsed":595779,"internal_node_id":"0.0-2.0-29.0"},{"group":"hexagon_tri","room_assignment":["blue","purple","red","green","grey","yellow"],"door_color_assignment":["white","black"],"door_generator_assignment":[1,0],"goal":4,"start":1,"action_noise":0.15,"location_history":"[1,5,0,1,3,4]","action_history":"[1,0,1,0,1]","door_history":"[0,1,0,1,0]","location_rts":"[938,745,597,373,346]","trial_type":"two-door-navigation","trial_index":32,"time_elapsed":607435,"internal_node_id":"0.0-2.0-30.0"},{"group":"hexagon_tri","room_assignment":["blue","purple","red","green","grey","yellow"],"door_color_assignment":["white","black"],"door_generator_assignment":[1,0],"goal":5,"start":4,"action_noise":0.15,"location_history":"[4,2,3,2,3,4,0,1,3,4,0,1,3,4,0,1,5]","action_history":"[1,1,0,1,1,0,0,0,1,0,1,0,1,0,1,1]","door_history":"[0,0,1,0,0,1,1,1,0,1,0,1,0,1,0,0]","location_rts":"[1526,471,622,1081,531,299,418,383,82,1109,2,242,252,326,356,347]","trial_type":"two-door-navigation","trial_index":33,"time_elapsed":635484,"internal_node_id":"0.0-2.0-31.0"},{"group":"hexagon_tri","room_assignment":["blue","purple","red","green","grey","yellow"],"door_color_assignment":["white","black"],"door_generator_assignment":[1,0],"goal":0,"start":5,"action_noise":0.15,"location_history":"[5,4,2,1,3,2,3,4,0]","action_history":"[0,1,0,0,0,1,1,0]","door_history":"[1,0,1,1,1,0,0,1]","location_rts":"[8622,841,155,81,779,337,399,264]","trial_type":"two-door-navigation","trial_index":34,"time_elapsed":658718,"internal_node_id":"0.0-2.0-32.0"},{"group":"hexagon_tri","room_assignment":["blue","purple","red","green","grey","yellow"],"door_color_assignment":["white","black"],"door_generator_assignment":[1,0],"goal":3,"start":0,"action_noise":0.15,"location_history":"[0,1,3]","action_history":"[1,0]","door_history":"[0,1]","location_rts":"[623,582]","trial_type":"two-door-navigation","trial_index":35,"time_elapsed":665477,"internal_node_id":"0.0-2.0-33.0"},{"group":"hexagon_tri","room_assignment":["blue","purple","red","green","grey","yellow"],"door_color_assignment":["white","black"],"door_generator_assignment":[1,0],"goal":1,"start":3,"action_noise":0.15,"location_history":"[3,4,0,1]","action_history":"[0,1,1]","door_history":"[1,0,0]","location_rts":"[706,291,307]","trial_type":"two-door-navigation","trial_index":36,"time_elapsed":673375,"internal_node_id":"0.0-2.0-34.0"},{"group":"hexagon_tri","room_assignment":["blue","purple","red","green","grey","yellow"],"door_color_assignment":["white","black"],"door_generator_assignment":[1,0],"goal":2,"start":1,"action_noise":0.15,"location_history":"[1,3,2]","action_history":"[0,0]","door_history":"[1,1]","location_rts":"[11442,5109]","trial_type":"two-door-navigation","trial_index":37,"time_elapsed":695487,"internal_node_id":"0.0-2.0-35.0"},{"group":"hexagon_tri","room_assignment":["blue","purple","red","green","grey","yellow"],"door_color_assignment":["white","black"],"door_generator_assignment":[1,0],"goal":4,"start":2,"action_noise":0.15,"location_history":"[2,3,4]","action_history":"[1,0]","door_history":"[0,1]","location_rts":"[1284,798]","trial_type":"two-door-navigation","trial_index":38,"time_elapsed":703122,"internal_node_id":"0.0-2.0-36.0"},{"group":"hexagon_tri","room_assignment":["blue","purple","red","green","grey","yellow"],"door_color_assignment":["white","black"],"door_generator_assignment":[1,0],"goal":5,"start":4,"action_noise":0.15,"location_history":"[4,2,3,4,0,1,5]","action_history":"[1,0,1,0,0,1]","door_history":"[0,1,0,1,1,0]","location_rts":"[1200,429,429,304,330,478]","trial_type":"two-door-navigation","trial_index":39,"time_elapsed":716099,"internal_node_id":"0.0-2.0-37.0"},{"group":"hexagon_tri","room_assignment":["blue","purple","red","green","grey","yellow"],"door_color_assignment":["white","black"],"door_generator_assignment":[1,0],"goal":1,"start":5,"action_noise":0.15,"location_history":"[5,4,0,5,0,5,0,1]","action_history":"[0,0,0,1,0,1,1]","door_history":"[1,1,1,0,1,0,0]","location_rts":"[1447,442,587,285,199,387,95]","trial_type":"two-door-navigation","trial_index":40,"time_elapsed":730234,"internal_node_id":"0.0-2.0-38.0"},{"group":"hexagon_tri","room_assignment":["blue","purple","red","green","grey","yellow"],"door_color_assignment":["white","black"],"door_generator_assignment":[1,0],"goal":4,"start":1,"action_noise":0.15,"location_history":"[1,3,4]","action_history":"[0,1]","door_history":"[1,0]","location_rts":"[1344,341]","trial_type":"two-door-navigation","trial_index":41,"time_elapsed":737474,"internal_node_id":"0.0-2.0-39.0"},{"group":"hexagon_tri","room_assignment":["blue","purple","red","green","grey","yellow"],"door_color_assignment":["white","black"],"door_generator_assignment":[1,0],"goal":3,"start":4,"action_noise":0.15,"location_history":"[4,0,1,3]","action_history":"[0,1,0]","door_history":"[1,0,1]","location_rts":"[681,360,187]","trial_type":"two-door-navigation","trial_index":42,"time_elapsed":745294,"internal_node_id":"0.0-2.0-40.0"},{"group":"hexagon_tri","room_assignment":["blue","purple","red","green","grey","yellow"],"door_color_assignment":["white","black"],"door_generator_assignment":[1,0],"goal":2,"start":3,"action_noise":0.15,"location_history":"[3,4,0,5,4,2]","action_history":"[1,0,0,0,1]","door_history":"[0,1,1,1,0]","location_rts":"[904,550,425,584,669]","trial_type":"two-door-navigation","trial_index":43,"time_elapsed":757076,"internal_node_id":"0.0-2.0-41.0"},{"group":"hexagon_tri","room_assignment":["blue","purple","red","green","grey","yellow"],"door_color_assignment":["white","black"],"door_generator_assignment":[1,0],"goal":0,"start":2,"action_noise":0.15,"location_history":"[2,1,5,0]","action_history":"[0,1,1]","door_history":"[1,0,0]","location_rts":"[1339,672,529]","trial_type":"two-door-navigation","trial_index":44,"time_elapsed":766205,"internal_node_id":"0.0-2.0-42.0"},{"group":"hexagon_tri","room_assignment":["blue","purple","red","green","grey","yellow"],"door_color_assignment":["white","black"],"door_generator_assignment":[1,0],"goal":5,"start":0,"action_noise":0.15,"location_history":"[0,5]","action_history":"[0]","door_history":"[1]","location_rts":"[1103]","trial_type":"two-door-navigation","trial_index":45,"time_elapsed":771848,"internal_node_id":"0.0-2.0-43.0"},{"group":"hexagon_tri","room_assignment":["blue","purple","red","green","grey","yellow"],"door_color_assignment":["white","black"],"door_generator_assignment":[1,0],"goal":0,"start":5,"action_noise":0.15,"location_history":"[5,0]","action_history":"[1]","door_history":"[0]","location_rts":"[571]","trial_type":"two-door-navigation","trial_index":46,"time_elapsed":776958,"internal_node_id":"0.0-2.0-44.0"},{"group":"hexagon_tri","room_assignment":["blue","purple","red","green","grey","yellow"],"door_color_assignment":["white","black"],"door_generator_assignment":[1,0],"goal":2,"start":0,"action_noise":0.15,"location_history":"[0,5,0,5,4,0,1,5,0,1,3,4,2]","action_history":"[0,1,0,0,1,1,1,1,1,0,1,1]","door_history":"[1,0,1,1,0,0,0,0,0,1,0,0]","location_rts":"[2341,759,880,770,673,371,1126,773,1211,211,326,628]","trial_type":"two-door-navigation","trial_index":47,"time_elapsed":802892,"internal_node_id":"0.0-2.0-45.0"},{"group":"hexagon_tri","room_assignment":["blue","purple","red","green","grey","yellow"],"door_color_assignment":["white","black"],"door_generator_assignment":[1,0],"goal":4,"start":2,"action_noise":0.15,"location_history":"[2,1,5,0,5,0,1,5,4]","action_history":"[0,1,1,0,1,1,1,0]","door_history":"[1,0,0,1,0,0,0,1]","location_rts":"[4316,559,386,499,637,566,894,2643]","trial_type":"two-door-navigation","trial_index":48,"time_elapsed":825126,"internal_node_id":"0.0-2.0-46.0"},{"group":"hexagon_tri","room_assignment":["blue","purple","red","green","grey","yellow"],"door_color_assignment":["white","black"],"door_generator_assignment":[1,0],"goal":1,"start":4,"action_noise":0.15,"location_history":"[4,2,1]","action_history":"[1,0]","door_history":"[0,1]","location_rts":"[6205,786]","trial_type":"two-door-navigation","trial_index":49,"time_elapsed":837664,"internal_node_id":"0.0-2.0-47.0"},{"group":"hexagon_tri","room_assignment":["blue","purple","red","green","grey","yellow"],"door_color_assignment":["white","black"],"door_generator_assignment":[1,0],"goal":5,"start":1,"action_noise":0.15,"location_history":"[1,5]","action_history":"[1]","door_history":"[0]","location_rts":"[7818]","trial_type":"two-door-navigation","trial_index":50,"time_elapsed":850012,"internal_node_id":"0.0-2.0-48.0"},{"group":"hexagon_tri","room_assignment":["blue","purple","red","green","grey","yellow"],"door_color_assignment":["white","black"],"door_generator_assignment":[1,0],"goal":3,"start":5,"action_noise":0.15,"location_history":"[5,4,2,1,3]","action_history":"[0,1,0,0]","door_history":"[1,0,1,1]","location_rts":"[3433,4580,1369,501]","trial_type":"two-door-navigation","trial_index":51,"time_elapsed":867498,"internal_node_id":"0.0-2.0-49.0"},{"view_history":"[{\"page_index\":0,\"viewing_time\":5821}]","rt":5823,"trial_type":"instructions","trial_index":52,"time_elapsed":874331,"internal_node_id":"0.0-3.0"},{"view_history":"[{\"page_index\":0,\"viewing_time\":4021},{\"page_index\":1,\"viewing_time\":14888}]","rt":18910,"trial_type":"instructions","trial_index":53,"time_elapsed":894241,"internal_node_id":"0.0-4.0"},{"group":"hexagon_bi","fractal_assignment":["../images/blu_wht.png","../images/cyn_red.png","../images/pnk_blu.png","../images/ylw_slt.png","../images/org_blu.png","../images/gry_blk.png"],"mutagen_generator_assignment":[1,0],"goal":3,"start":5,"action_noise":0.15,"location_history":"[5,0,1,0,5,0,5,0,5,4,5,4,5,4,3]","action_history":"[0,1,1,0,0,0,1,0,1,1,1,1,1,0]","mutagen_history":"[1,0,0,1,1,1,0,1,0,0,0,0,0,1]","location_rts":"[2707,440,364,576,164,547,445,345,372,338,525,447,457,378]","trial_type":"fractal-mutation","trial_index":54,"time_elapsed":920615,"internal_node_id":"0.0-5.0-0.0"},{"group":"hexagon_bi","fractal_assignment":["../images/blu_wht.png","../images/cyn_red.png","../images/pnk_blu.png","../images/ylw_slt.png","../images/org_blu.png","../images/gry_blk.png"],"mutagen_generator_assignment":[1,0],"goal":1,"start":3,"action_noise":0.15,"location_history":"[3,2,1]","action_history":"[1,1]","mutagen_history":"[0,0]","location_rts":"[1320,414]","trial_type":"fractal-mutation","trial_index":55,"time_elapsed":927953,"internal_node_id":"0.0-5.0-1.0"},{"group":"hexagon_bi","fractal_assignment":["../images/blu_wht.png","../images/cyn_red.png","../images/pnk_blu.png","../images/ylw_slt.png","../images/org_blu.png","../images/gry_blk.png"],"mutagen_generator_assignment":[1,0],"goal":0,"start":1,"action_noise":0.15,"location_history":"[1,2,1,0]","action_history":"[0,1,1]","mutagen_history":"[1,0,0]","location_rts":"[756,477,540]","trial_type":"fractal-mutation","trial_index":56,"time_elapsed":936394,"internal_node_id":"0.0-5.0-2.0"},{"group":"hexagon_bi","fractal_assignment":["../images/blu_wht.png","../images/cyn_red.png","../images/pnk_blu.png","../images/ylw_slt.png","../images/org_blu.png","../images/gry_blk.png"],"mutagen_generator_assignment":[1,0],"goal":3,"start":0,"action_noise":0.15,"location_history":"[0,1,2,1,2,3]","action_history":"[1,0,0,0,1]","mutagen_history":"[0,1,1,1,0]","location_rts":"[526,383,426,380,366]","trial_type":"fractal-mutation","trial_index":57,"time_elapsed":947250,"internal_node_id":"0.0-5.0-3.0"},{"group":"hexagon_bi","fractal_assignment":["../images/blu_wht.png","../images/cyn_red.png","../images/pnk_blu.png","../images/ylw_slt.png","../images/org_blu.png","../images/gry_blk.png"],"mutagen_generator_assignment":[1,0],"goal":4,"start":3,"action_noise":0.15,"location_history":"[3,4]","action_history":"[0]","mutagen_history":"[1]","location_rts":"[197]","trial_type":"fractal-mutation","trial_index":58,"time_elapsed":952012,"internal_node_id":"0.0-5.0-4.0"},{"group":"hexagon_bi","fractal_assignment":["../images/blu_wht.png","../images/cyn_red.png","../images/pnk_blu.png","../images/ylw_slt.png","../images/org_blu.png","../images/gry_blk.png"],"mutagen_generator_assignment":[1,0],"goal":2,"start":4,"action_noise":0.15,"location_history":"[4,5,0,5,0,1,2]","action_history":"[1,0,0,1,1,0]","mutagen_history":"[0,1,1,0,0,1]","location_rts":"[575,510,394,262,124,685]","trial_type":"fractal-mutation","trial_index":59,"time_elapsed":964382,"internal_node_id":"0.0-5.0-5.0"},{"group":"hexagon_bi","fractal_assignment":["../images/blu_wht.png","../images/cyn_red.png","../images/pnk_blu.png","../images/ylw_slt.png","../images/org_blu.png","../images/gry_blk.png"],"mutagen_generator_assignment":[1,0],"goal":1,"start":2,"action_noise":0.15,"location_history":"[2,3,2,1]","action_history":"[1,1,0]","mutagen_history":"[0,0,1]","location_rts":"[1261,482,516]","trial_type":"fractal-mutation","trial_index":60,"time_elapsed":973299,"internal_node_id":"0.0-5.0-6.0"},{"group":"hexagon_bi","fractal_assignment":["../images/blu_wht.png","../images/cyn_red.png","../images/pnk_blu.png","../images/ylw_slt.png","../images/org_blu.png","../images/gry_blk.png"],"mutagen_generator_assignment":[1,0],"goal":5,"start":1,"action_noise":0.15,"location_history":"[1,0,5]","action_history":"[0,0]","mutagen_history":"[1,1]","location_rts":"[203,665]","trial_type":"fractal-mutation","trial_index":61,"time_elapsed":979805,"internal_node_id":"0.0-5.0-7.0"},{"group":"hexagon_bi","fractal_assignment":["../images/blu_wht.png","../images/cyn_red.png","../images/pnk_blu.png","../images/ylw_slt.png","../images/org_blu.png","../images/gry_blk.png"],"mutagen_generator_assignment":[1,0],"goal":4,"start":5,"action_noise":0.15,"location_history":"[5,0,1,2,3,2,3,4]","action_history":"[0,0,0,1,1,1,0]","mutagen_history":"[1,1,1,0,0,0,1]","location_rts":"[267,33,245,397,390,384,381]","trial_type":"fractal-mutation","trial_index":62,"time_elapsed":992767,"internal_node_id":"0.0-5.0-8.0"},{"group":"hexagon_bi","fractal_assignment":["../images/blu_wht.png","../images/cyn_red.png","../images/pnk_blu.png","../images/ylw_slt.png","../images/org_blu.png","../images/gry_blk.png"],"mutagen_generator_assignment":[1,0],"goal":2,"start":4,"action_noise":0.15,"location_history":"[4,3,2]","action_history":"[0,1]","mutagen_history":"[1,0]","location_rts":"[1409,660]","trial_type":"fractal-mutation","trial_index":63,"time_elapsed":1000437,"internal_node_id":"0.0-5.0-9.0"},{"group":"hexagon_bi","fractal_assignment":["../images/blu_wht.png","../images/cyn_red.png","../images/pnk_blu.png","../images/ylw_slt.png","../images/org_blu.png","../images/gry_blk.png"],"mutagen_generator_assignment":[1,0],"goal":0,"start":2,"action_noise":0.15,"location_history":"[2,1,0]","action_history":"[0,1]","mutagen_history":"[1,0]","location_rts":"[661,250]","trial_type":"fractal-mutation","trial_index":64,"time_elapsed":1006951,"internal_node_id":"0.0-5.0-10.0"},{"group":"hexagon_bi","fractal_assignment":["../images/blu_wht.png","../images/cyn_red.png","../images/pnk_blu.png","../images/ylw_slt.png","../images/org_blu.png","../images/gry_blk.png"],"mutagen_generator_assignment":[1,0],"goal":1,"start":0,"action_noise":0.15,"location_history":"[0,1]","action_history":"[1]","mutagen_history":"[0]","location_rts":"[797]","trial_type":"fractal-mutation","trial_index":65,"time_elapsed":1012294,"internal_node_id":"0.0-5.0-11.0"},{"group":"hexagon_bi","fractal_assignment":["../images/blu_wht.png","../images/cyn_red.png","../images/pnk_blu.png","../images/ylw_slt.png","../images/org_blu.png","../images/gry_blk.png"],"mutagen_generator_assignment":[1,0],"goal":3,"start":1,"action_noise":0.15,"location_history":"[1,0,1,0,1,2,3]","action_history":"[0,1,1,0,0,1]","mutagen_history":"[1,0,0,1,1,0]","location_rts":"[4514,355,389,386,442,399]","trial_type":"fractal-mutation","trial_index":66,"time_elapsed":1028601,"internal_node_id":"0.0-5.0-12.0"},{"group":"hexagon_bi","fractal_assignment":["../images/blu_wht.png","../images/cyn_red.png","../images/pnk_blu.png","../images/ylw_slt.png","../images/org_blu.png","../images/gry_blk.png"],"mutagen_generator_assignment":[1,0],"goal":5,"start":3,"action_noise":0.15,"location_history":"[3,4,5]","action_history":"[0,1]","mutagen_history":"[1,0]","location_rts":"[474,499]","trial_type":"fractal-mutation","trial_index":67,"time_elapsed":1035187,"internal_node_id":"0.0-5.0-13.0"},{"group":"hexagon_bi","fractal_assignment":["../images/blu_wht.png","../images/cyn_red.png","../images/pnk_blu.png","../images/ylw_slt.png","../images/org_blu.png","../images/gry_blk.png"],"mutagen_generator_assignment":[1,0],"goal":4,"start":5,"action_noise":0.15,"location_history":"[5,4]","action_history":"[0]","mutagen_history":"[1]","location_rts":"[500]","trial_type":"fractal-mutation","trial_index":68,"time_elapsed":1040254,"internal_node_id":"0.0-5.0-14.0"},{"group":"hexagon_bi","fractal_assignment":["../images/blu_wht.png","../images/cyn_red.png","../images/pnk_blu.png","../images/ylw_slt.png","../images/org_blu.png","../images/gry_blk.png"],"mutagen_generator_assignment":[1,0],"goal":0,"start":4,"action_noise":0.15,"location_history":"[4,5,0]","action_history":"[1,0]","mutagen_history":"[0,1]","location_rts":"[409,399]","trial_type":"fractal-mutation","trial_index":69,"time_elapsed":1046666,"internal_node_id":"0.0-5.0-15.0"},{"group":"hexagon_bi","fractal_assignment":["../images/blu_wht.png","../images/cyn_red.png","../images/pnk_blu.png","../images/ylw_slt.png","../images/org_blu.png","../images/gry_blk.png"],"mutagen_generator_assignment":[1,0],"goal":3,"start":0,"action_noise":0.15,"location_history":"[0,5,4,5,4,5,4,5,0,5,0,1,0,1,0,5,4,5,0,1,0,1,0,1,2,1,2,1,2,3]","action_history":"[0,1,1,0,1,1,1,0,0,0,1,1,1,1,0,0,0,0,1,1,1,0,1,0,1,0,0,0,1]","mutagen_history":"[1,0,0,1,0,0,0,1,1,1,0,0,0,0,1,1,1,1,0,0,0,1,0,1,0,1,1,1,0]","location_rts":"[1548,415,937,1519,2432,2811,2126,879,396,541,1293,1528,897,215,382,2516,2883,1818,331,1677,1745,5773,828,1140,4400,581,472,631,513]","trial_type":"fractal-mutation","trial_index":70,"time_elapsed":1123841,"internal_node_id":"0.0-5.0-16.0"},{"group":"hexagon_bi","fractal_assignment":["../images/blu_wht.png","../images/cyn_red.png","../images/pnk_blu.png","../images/ylw_slt.png","../images/org_blu.png","../images/gry_blk.png"],"mutagen_generator_assignment":[1,0],"goal":1,"start":3,"action_noise":0.15,"location_history":"[3,4,3,2,1]","action_history":"[0,0,1,0]","mutagen_history":"[1,1,0,1]","location_rts":"[874,874,1039,476]","trial_type":"fractal-mutation","trial_index":71,"time_elapsed":1134841,"internal_node_id":"0.0-5.0-17.0"},{"group":"hexagon_bi","fractal_assignment":["../images/blu_wht.png","../images/cyn_red.png","../images/pnk_blu.png","../images/ylw_slt.png","../images/org_blu.png","../images/gry_blk.png"],"mutagen_generator_assignment":[1,0],"goal":5,"start":1,"action_noise":0.15,"location_history":"[1,0,1,2,1,2,3,4,3,2,3,2,1,0,1,0,5]","action_history":"[1,1,0,0,0,1,0,0,1,1,1,0,1,1,1,0]","mutagen_history":"[0,0,1,1,1,0,1,1,0,0,0,1,0,0,0,1]","location_rts":"[458,470,387,476,501,412,377,459,386,198,309,419,351,447,465,113]","trial_type":"fractal-mutation","trial_index":72,"time_elapsed":1161336,"internal_node_id":"0.0-5.0-18.0"},{"group":"hexagon_bi","fractal_assignment":["../images/blu_wht.png","../images/cyn_red.png","../images/pnk_blu.png","../images/ylw_slt.png","../images/org_blu.png","../images/gry_blk.png"],"mutagen_generator_assignment":[1,0],"goal":2,"start":5,"action_noise":0.15,"location_history":"[5,4,3,2]","action_history":"[1,0,1]","mutagen_history":"[0,1,0]","location_rts":"[511,748,667]","trial_type":"fractal-mutation","trial_index":73,"time_elapsed":1169908,"internal_node_id":"0.0-5.0-19.0"},{"group":"hexagon_bi","fractal_assignment":["../images/blu_wht.png","../images/cyn_red.png","../images/pnk_blu.png","../images/ylw_slt.png","../images/org_blu.png","../images/gry_blk.png"],"mutagen_generator_assignment":[1,0],"goal":4,"start":2,"action_noise":0.15,"location_history":"[2,1,0,5,4]","action_history":"[0,1,0,0]","mutagen_history":"[1,0,1,1]","location_rts":"[2210,663,405,194]","trial_type":"fractal-mutation","trial_index":74,"time_elapsed":1181116,"internal_node_id":"0.0-5.0-20.0"},{"group":"hexagon_bi","fractal_assignment":["../images/blu_wht.png","../images/cyn_red.png","../images/pnk_blu.png","../images/ylw_slt.png","../images/org_blu.png","../images/gry_blk.png"],"mutagen_generator_assignment":[1,0],"goal":1,"start":4,"action_noise":0.15,"location_history":"[4,3,2,1]","action_history":"[1,1,0]","mutagen_history":"[0,0,1]","location_rts":"[543,478,803]","trial_type":"fractal-mutation","trial_index":75,"time_elapsed":1189584,"internal_node_id":"0.0-5.0-21.0"},{"group":"hexagon_bi","fractal_assignment":["../images/blu_wht.png","../images/cyn_red.png","../images/pnk_blu.png","../images/ylw_slt.png","../images/org_blu.png","../images/gry_blk.png"],"mutagen_generator_assignment":[1,0],"goal":3,"start":1,"action_noise":0.15,"location_history":"[1,0,5,4,3]","action_history":"[1,0,1,0]","mutagen_history":"[0,1,0,1]","location_rts":"[634,577,1117,408]","trial_type":"fractal-mutation","trial_index":76,"time_elapsed":1200032,"internal_node_id":"0.0-5.0-22.0"},{"group":"hexagon_bi","fractal_assignment":["../images/blu_wht.png","../images/cyn_red.png","../images/pnk_blu.png","../images/ylw_slt.png","../images/org_blu.png","../images/gry_blk.png"],"mutagen_generator_assignment":[1,0],"goal":2,"start":3,"action_noise":0.15,"location_history":"[3,4,3,4,3,4,3,4,3,4,5,4,5,0,1,2]","action_history":"[1,0,1,0,1,0,0,0,0,1,1,1,0,1,0]","mutagen_history":"[0,1,0,1,0,1,1,1,1,0,0,0,1,0,1]","location_rts":"[960,560,594,528,1675,933,459,562,366,331,390,407,703,1067,408]","trial_type":"fractal-mutation","trial_index":77,"time_elapsed":1229245,"internal_node_id":"0.0-5.0-23.0"},{"group":"hexagon_bi","fractal_assignment":["../images/blu_wht.png","../images/cyn_red.png","../images/pnk_blu.png","../images/ylw_slt.png","../images/org_blu.png","../images/gry_blk.png"],"mutagen_generator_assignment":[1,0],"goal":0,"start":2,"action_noise":0.15,"location_history":"[2,3,2,3,4,5,4,5,4,3,4,5,4,3,2,3,2,1,0]","action_history":"[1,1,1,0,0,0,1,1,0,0,1,1,0,1,1,0,0,1]","mutagen_history":"[0,0,0,1,1,1,0,0,1,1,0,0,1,0,0,1,1,0]","location_rts":"[83,1392,383,397,193,56,259,1302,2545,2812,19,33,6514,432,215,284,375,62]","trial_type":"fractal-mutation","trial_index":78,"time_elapsed":1268988,"internal_node_id":"0.0-5.0-24.0"},{"group":"hexagon_bi","fractal_assignment":["../images/blu_wht.png","../images/cyn_red.png","../images/pnk_blu.png","../images/ylw_slt.png","../images/org_blu.png","../images/gry_blk.png"],"mutagen_generator_assignment":[1,0],"goal":5,"start":0,"action_noise":0.15,"location_history":"[0,5]","action_history":"[0]","mutagen_history":"[1]","location_rts":"[4088]","trial_type":"fractal-mutation","trial_index":79,"time_elapsed":1277984,"internal_node_id":"0.0-5.0-25.0"},{"group":"hexagon_bi","fractal_assignment":["../images/blu_wht.png","../images/cyn_red.png","../images/pnk_blu.png","../images/ylw_slt.png","../images/org_blu.png","../images/gry_blk.png"],"mutagen_generator_assignment":[1,0],"goal":2,"start":5,"action_noise":0.15,"location_history":"[5,4,3,2]","action_history":"[1,0,1]","mutagen_history":"[0,1,0]","location_rts":"[9322,882,1831]","trial_type":"fractal-mutation","trial_index":80,"time_elapsed":1297008,"internal_node_id":"0.0-5.0-26.0"},{"group":"hexagon_bi","fractal_assignment":["../images/blu_wht.png","../images/cyn_red.png","../images/pnk_blu.png","../images/ylw_slt.png","../images/org_blu.png","../images/gry_blk.png"],"mutagen_generator_assignment":[1,0],"goal":3,"start":2,"action_noise":0.15,"location_history":"[2,3]","action_history":"[1]","mutagen_history":"[0]","location_rts":"[11508]","trial_type":"fractal-mutation","trial_index":81,"time_elapsed":1314047,"internal_node_id":"0.0-5.0-27.0"},{"group":"hexagon_bi","fractal_assignment":["../images/blu_wht.png","../images/cyn_red.png","../images/pnk_blu.png","../images/ylw_slt.png","../images/org_blu.png","../images/gry_blk.png"],"mutagen_generator_assignment":[1,0],"goal":0,"start":3,"action_noise":0.15,"location_history":"[3,4,5,4,5,0]","action_history":"[0,1,1,1,0]","mutagen_history":"[1,0,0,0,1]","location_rts":"[24,586,348,319,320]","trial_type":"fractal-mutation","trial_index":82,"time_elapsed":1324368,"internal_node_id":"0.0-5.0-28.0"},{"group":"hexagon_bi","fractal_assignment":["../images/blu_wht.png","../images/cyn_red.png","../images/pnk_blu.png","../images/ylw_slt.png","../images/org_blu.png","../images/gry_blk.png"],"mutagen_generator_assignment":[1,0],"goal":1,"start":0,"action_noise":0.15,"location_history":"[0,1]","action_history":"[1]","mutagen_history":"[0]","location_rts":"[437]","trial_type":"fractal-mutation","trial_index":83,"time_elapsed":1329472,"internal_node_id":"0.0-5.0-29.0"},{"group":"hexagon_bi","fractal_assignment":["../images/blu_wht.png","../images/cyn_red.png","../images/pnk_blu.png","../images/ylw_slt.png","../images/org_blu.png","../images/gry_blk.png"],"mutagen_generator_assignment":[1,0],"goal":4,"start":1,"action_noise":0.15,"location_history":"[1,2,3,2,3,4]","action_history":"[0,1,1,1,0]","mutagen_history":"[1,0,0,0,1]","location_rts":"[431,384,223,409,201]","trial_type":"fractal-mutation","trial_index":84,"time_elapsed":1339865,"internal_node_id":"0.0-5.0-30.0"},{"group":"hexagon_bi","fractal_assignment":["../images/blu_wht.png","../images/cyn_red.png","../images/pnk_blu.png","../images/ylw_slt.png","../images/org_blu.png","../images/gry_blk.png"],"mutagen_generator_assignment":[1,0],"goal":5,"start":4,"action_noise":0.15,"location_history":"[4,5]","action_history":"[1]","mutagen_history":"[0]","location_rts":"[447]","trial_type":"fractal-mutation","trial_index":85,"time_elapsed":1344858,"internal_node_id":"0.0-5.0-31.0"},{"group":"hexagon_bi","fractal_assignment":["../images/blu_wht.png","../images/cyn_red.png","../images/pnk_blu.png","../images/ylw_slt.png","../images/org_blu.png","../images/gry_blk.png"],"mutagen_generator_assignment":[1,0],"goal":0,"start":5,"action_noise":0.15,"location_history":"[5,4,3,4,3,4,5,4,5,4,3,2,3,4,5,0]","action_history":"[1,0,0,0,0,1,1,1,0,0,1,1,0,1,0]","mutagen_history":"[0,1,1,1,1,0,0,0,1,1,0,0,1,0,1]","location_rts":"[425,140,57,168,184,15,294,328,288,357,309,527,272,333,283]","trial_type":"fractal-mutation","trial_index":86,"time_elapsed":1368214,"internal_node_id":"0.0-5.0-32.0"},{"group":"hexagon_bi","fractal_assignment":["../images/blu_wht.png","../images/cyn_red.png","../images/pnk_blu.png","../images/ylw_slt.png","../images/org_blu.png","../images/gry_blk.png"],"mutagen_generator_assignment":[1,0],"goal":3,"start":0,"action_noise":0.15,"location_history":"[0,1,0,5,0,1,0,5,4,5,4,3]","action_history":"[1,1,0,0,1,1,0,1,1,1,0]","mutagen_history":"[0,0,1,1,0,0,1,0,0,0,1]","location_rts":"[297,170,268,633,172,298,426,215,438,606,139]","trial_type":"fractal-mutation","trial_index":87,"time_elapsed":1386913,"internal_node_id":"0.0-5.0-33.0"},{"group":"hexagon_bi","fractal_assignment":["../images/blu_wht.png","../images/cyn_red.png","../images/pnk_blu.png","../images/ylw_slt.png","../images/org_blu.png","../images/gry_blk.png"],"mutagen_generator_assignment":[1,0],"goal":1,"start":3,"action_noise":0.15,"location_history":"[3,2,1]","action_history":"[1,0]","mutagen_history":"[0,1]","location_rts":"[455,365]","trial_type":"fractal-mutation","trial_index":88,"time_elapsed":1393345,"internal_node_id":"0.0-5.0-34.0"},{"group":"hexagon_bi","fractal_assignment":["../images/blu_wht.png","../images/cyn_red.png","../images/pnk_blu.png","../images/ylw_slt.png","../images/org_blu.png","../images/gry_blk.png"],"mutagen_generator_assignment":[1,0],"goal":2,"start":1,"action_noise":0.15,"location_history":"[1,2]","action_history":"[0]","mutagen_history":"[1]","location_rts":"[465]","trial_type":"fractal-mutation","trial_index":89,"time_elapsed":1398376,"internal_node_id":"0.0-5.0-35.0"},{"group":"hexagon_bi","fractal_assignment":["../images/blu_wht.png","../images/cyn_red.png","../images/pnk_blu.png","../images/ylw_slt.png","../images/org_blu.png","../images/gry_blk.png"],"mutagen_generator_assignment":[1,0],"goal":4,"start":2,"action_noise":0.15,"location_history":"[2,3,4]","action_history":"[1,0]","mutagen_history":"[0,1]","location_rts":"[483,163]","trial_type":"fractal-mutation","trial_index":90,"time_elapsed":1404629,"internal_node_id":"0.0-5.0-36.0"},{"group":"hexagon_bi","fractal_assignment":["../images/blu_wht.png","../images/cyn_red.png","../images/pnk_blu.png","../images/ylw_slt.png","../images/org_blu.png","../images/gry_blk.png"],"mutagen_generator_assignment":[1,0],"goal":5,"start":4,"action_noise":0.15,"location_history":"[4,5]","action_history":"[1]","mutagen_history":"[0]","location_rts":"[442]","trial_type":"fractal-mutation","trial_index":91,"time_elapsed":1409741,"internal_node_id":"0.0-5.0-37.0"},{"group":"hexagon_bi","fractal_assignment":["../images/blu_wht.png","../images/cyn_red.png","../images/pnk_blu.png","../images/ylw_slt.png","../images/org_blu.png","../images/gry_blk.png"],"mutagen_generator_assignment":[1,0],"goal":1,"start":5,"action_noise":0.15,"location_history":"[5,4,3,4,3,2,3,2,3,4,5,0,1]","action_history":"[1,0,1,0,1,1,1,1,0,1,0,0]","mutagen_history":"[0,1,0,1,0,0,0,0,1,0,1,1]","location_rts":"[383,365,357,160,327,126,203,48,1238,823,514,705]","trial_type":"fractal-mutation","trial_index":92,"time_elapsed":1431193,"internal_node_id":"0.0-5.0-38.0"},{"group":"hexagon_bi","fractal_assignment":["../images/blu_wht.png","../images/cyn_red.png","../images/pnk_blu.png","../images/ylw_slt.png","../images/org_blu.png","../images/gry_blk.png"],"mutagen_generator_assignment":[1,0],"goal":4,"start":1,"action_noise":0.15,"location_history":"[1,2,3,2,1,2,1,2,3,4]","action_history":"[1,1,1,0,0,1,0,1,0]","mutagen_history":"[0,0,0,1,1,0,1,0,1]","location_rts":"[358,380,502,40,249,376,829,363,316]","trial_type":"fractal-mutation","trial_index":93,"time_elapsed":1447556,"internal_node_id":"0.0-5.0-39.0"},{"group":"hexagon_bi","fractal_assignment":["../images/blu_wht.png","../images/cyn_red.png","../images/pnk_blu.png","../images/ylw_slt.png","../images/org_blu.png","../images/gry_blk.png"],"mutagen_generator_assignment":[1,0],"goal":3,"start":4,"action_noise":0.15,"location_history":"[4,3]","action_history":"[0]","mutagen_history":"[1]","location_rts":"[373]","trial_type":"fractal-mutation","trial_index":94,"time_elapsed":1452491,"internal_node_id":"0.0-5.0-40.0"},{"group":"hexagon_bi","fractal_assignment":["../images/blu_wht.png","../images/cyn_red.png","../images/pnk_blu.png","../images/ylw_slt.png","../images/org_blu.png","../images/gry_blk.png"],"mutagen_generator_assignment":[1,0],"goal":2,"start":3,"action_noise":0.15,"location_history":"[3,2]","action_history":"[1]","mutagen_history":"[0]","location_rts":"[321]","trial_type":"fractal-mutation","trial_index":95,"time_elapsed":1457367,"internal_node_id":"0.0-5.0-41.0"},{"group":"hexagon_bi","fractal_assignment":["../images/blu_wht.png","../images/cyn_red.png","../images/pnk_blu.png","../images/ylw_slt.png","../images/org_blu.png","../images/gry_blk.png"],"mutagen_generator_assignment":[1,0],"goal":0,"start":2,"action_noise":0.15,"location_history":"[2,1,0]","action_history":"[0,1]","mutagen_history":"[1,0]","location_rts":"[573,354]","trial_type":"fractal-mutation","trial_index":96,"time_elapsed":1463906,"internal_node_id":"0.0-5.0-42.0"},{"group":"hexagon_bi","fractal_assignment":["../images/blu_wht.png","../images/cyn_red.png","../images/pnk_blu.png","../images/ylw_slt.png","../images/org_blu.png","../images/gry_blk.png"],"mutagen_generator_assignment":[1,0],"goal":5,"start":0,"action_noise":0.15,"location_history":"[0,1,2,1,0,1,0,5]","action_history":"[0,1,0,0,1,1,0]","mutagen_history":"[1,0,1,1,0,0,1]","location_rts":"[576,360,397,138,360,339,805]","trial_type":"fractal-mutation","trial_index":97,"time_elapsed":1477816,"internal_node_id":"0.0-5.0-43.0"},{"group":"hexagon_bi","fractal_assignment":["../images/blu_wht.png","../images/cyn_red.png","../images/pnk_blu.png","../images/ylw_slt.png","../images/org_blu.png","../images/gry_blk.png"],"mutagen_generator_assignment":[1,0],"goal":0,"start":5,"action_noise":0.15,"location_history":"[5,0]","action_history":"[0]","mutagen_history":"[1]","location_rts":"[861]","trial_type":"fractal-mutation","trial_index":98,"time_elapsed":1483249,"internal_node_id":"0.0-5.0-44.0"},{"group":"hexagon_bi","fractal_assignment":["../images/blu_wht.png","../images/cyn_red.png","../images/pnk_blu.png","../images/ylw_slt.png","../images/org_blu.png","../images/gry_blk.png"],"mutagen_generator_assignment":[1,0],"goal":2,"start":0,"action_noise":0.15,"location_history":"[0,1,0,5,4,3,2]","action_history":"[1,1,0,1,0,1]","mutagen_history":"[0,0,1,0,1,0]","location_rts":"[463,495,995,470,531,737]","trial_type":"fractal-mutation","trial_index":99,"time_elapsed":1496765,"internal_node_id":"0.0-5.0-45.0"},{"group":"hexagon_bi","fractal_assignment":["../images/blu_wht.png","../images/cyn_red.png","../images/pnk_blu.png","../images/ylw_slt.png","../images/org_blu.png","../images/gry_blk.png"],"mutagen_generator_assignment":[1,0],"goal":4,"start":2,"action_noise":0.15,"location_history":"[2,1,0,5,4]","action_history":"[0,1,1,1]","mutagen_history":"[1,0,0,0]","location_rts":"[2263,558,568,75]","trial_type":"fractal-mutation","trial_index":100,"time_elapsed":1507916,"internal_node_id":"0.0-5.0-46.0"},{"group":"hexagon_bi","fractal_assignment":["../images/blu_wht.png","../images/cyn_red.png","../images/pnk_blu.png","../images/ylw_slt.png","../images/org_blu.png","../images/gry_blk.png"],"mutagen_generator_assignment":[1,0],"goal":1,"start":4,"action_noise":0.15,"location_history":"[4,3,2,3,4,5,0,5,0,1]","action_history":"[0,1,1,0,1,0,1,0,1]","mutagen_history":"[1,0,0,1,0,1,0,1,0]","location_rts":"[788,578,541,684,1432,600,2866,2001,567]","trial_type":"fractal-mutation","trial_index":101,"time_elapsed":1531020,"internal_node_id":"0.0-5.0-47.0"},{"group":"hexagon_bi","fractal_assignment":["../images/blu_wht.png","../images/cyn_red.png","../images/pnk_blu.png","../images/ylw_slt.png","../images/org_blu.png","../images/gry_blk.png"],"mutagen_generator_assignment":[1,0],"goal":5,"start":1,"action_noise":0.15,"location_history":"[1,2,3,4,3,4,5]","action_history":"[0,1,1,1,0,1]","mutagen_history":"[1,0,0,0,1,0]","location_rts":"[359,1154,875,598,479,914]","trial_type":"fractal-mutation","trial_index":102,"time_elapsed":1545262,"internal_node_id":"0.0-5.0-48.0"},{"group":"hexagon_bi","fractal_assignment":["../images/blu_wht.png","../images/cyn_red.png","../images/pnk_blu.png","../images/ylw_slt.png","../images/org_blu.png","../images/gry_blk.png"],"mutagen_generator_assignment":[1,0],"goal":3,"start":5,"action_noise":0.15,"location_history":"[5,4,5,4,5,0,5,0,1,2,1,0,5,0,5,4,5,4,5,0,5,0,1,0,5,0,5,0,1,2,3]","action_history":"[0,1,1,1,0,0,0,1,0,0,1,1,1,0,0,1,1,1,0,0,0,1,1,1,0,1,0,1,0,1]","mutagen_history":"[1,0,0,0,1,1,1,0,1,1,0,0,0,1,1,0,0,0,1,1,1,0,0,0,1,0,1,0,1,0]","location_rts":"[447,374,415,468,106,1426,279,421,561,994,561,374,155,1019,549,448,1076,3333,581,249,235,292,314,360,446,359,74,707,1184,412]","trial_type":"fractal-mutation","trial_index":103,"time_elapsed":1598844,"internal_node_id":"0.0-5.0-49.0"},{"view_history":"[{\"page_index\":0,\"viewing_time\":18540}]","rt":18541,"trial_type":"instructions","trial_index":104,"time_elapsed":1618390,"internal_node_id":"0.0-6.0"},{"rt":18309,"responses":"{\"Q0\":\"a word is spelled wrong in the instructions.\"}","trial_type":"survey-text","trial_index":105,"time_elapsed":1637716,"internal_node_id":"0.0-7.0"}]