[{"view_history":"[{\"page_index\":0,\"viewing_time\":7508},{\"page_index\":1,\"viewing_time\":3683}]","rt":11197,"trial_type":"instructions","trial_index":0,"time_elapsed":11201,"internal_node_id":"0.0-0.0"},{"view_history":"[{\"page_index\":0,\"viewing_time\":1827},{\"page_index\":1,\"viewing_time\":1824}]","rt":3661,"trial_type":"instructions","trial_index":1,"time_elapsed":15868,"internal_node_id":"0.0-1.0"},{"group":"hexagon_tri","room_assignment":["blue","green","purple","yellow","grey","red"],"door_color_assignment":["white","black"],"door_generator_assignment":[1,0],"goal":3,"start":5,"action_noise":0.15,"location_history":"[5,4,2,3]","action_history":"[0,0,1]","door_history":"[1,1,0]","location_rts":"[13183,865,1079]","trial_type":"two-door-navigation","trial_index":2,"time_elapsed":37833,"internal_node_id":"0.0-2.0-0.0"},{"group":"hexagon_tri","room_assignment":["blue","green","purple","yellow","grey","red"],"door_color_assignment":["white","black"],"door_generator_assignment":[1,0],"goal":1,"start":3,"action_noise":0.15,"location_history":"[3,2,1]","action_history":"[0,0]","door_history":"[1,1]","location_rts":"[2142,1025]","trial_type":"two-door-navigation","trial_index":3,"time_elapsed":46808,"internal_node_id":"0.0-2.0-1.0"},{"group":"hexagon_tri","room_assignment":["blue","green","purple","yellow","grey","red"],"door_color_assignment":["white","black"],"door_generator_assignment":[1,0],"goal":0,"start":1,"action_noise":0.15,"location_history":"[1,3,2,1,3,4,2,3,4,2,1,5,4,0]","action_history":"[0,0,0,0,1,1,1,1,0,0,0,0,0]","door_history":"[1,1,1,1,0,0,0,0,1,1,1,1,1]","location_rts":"[1621,7636,2023,940,10862,732,614,522,2258,1400,985,950,1036]","trial_type":"two-door-navigation","trial_index":4,"time_elapsed":96370,"internal_node_id":"0.0-2.0-2.0"},{"group":"hexagon_tri","room_assignment":["blue","green","purple","yellow","grey","red"],"door_color_assignment":["white","black"],"door_generator_assignment":[1,0],"goal":3,"start":0,"action_noise":0.15,"location_history":"[0,5,4,0,1,3]","action_history":"[0,0,0,0,0]","door_history":"[1,1,1,1,1]","location_rts":"[1940,586,983,1402,779]","trial_type":"two-door-navigation","trial_index":5,"time_elapsed":111054,"internal_node_id":"0.0-2.0-3.0"},{"group":"hexagon_tri","room_assignment":["blue","green","purple","yellow","grey","red"],"door_color_assignment":["white","black"],"door_generator_assignment":[1,0],"goal":4,"start":3,"action_noise":0.15,"location_history":"[3,2,1,3,2,3,4]","action_history":"[0,0,0,0,1,1]","door_history":"[1,1,1,1,0,0]","location_rts":"[1987,2800,2767,1365,1194,714]","trial_type":"two-door-navigation","trial_index":6,"time_elapsed":132126,"internal_node_id":"0.0-2.0-4.0"},{"group":"hexagon_tri","room_assignment":["blue","green","purple","yellow","grey","red"],"door_color_assignment":["white","black"],"door_generator_assignment":[1,0],"goal":2,"start":4,"action_noise":0.15,"location_history":"[4,2]","action_history":"[1]","door_history":"[0]","location_rts":"[2270]","trial_type":"two-door-navigation","trial_index":7,"time_elapsed":139059,"internal_node_id":"0.0-2.0-5.0"},{"group":"hexagon_tri","room_assignment":["blue","green","purple","yellow","grey","red"],"door_color_assignment":["white","black"],"door_generator_assignment":[1,0],"goal":1,"start":2,"action_noise":0.15,"location_history":"[2,1]","action_history":"[0]","door_history":"[1]","location_rts":"[5494]","trial_type":"two-door-navigation","trial_index":8,"time_elapsed":149152,"internal_node_id":"0.0-2.0-6.0"},{"group":"hexagon_tri","room_assignment":["blue","green","purple","yellow","grey","red"],"door_color_assignment":["white","black"],"door_generator_assignment":[1,0],"goal":5,"start":1,"action_noise":0.15,"location_history":"[1,3,2,1,3,2,1,5]","action_history":"[0,0,0,0,0,0,1]","door_history":"[1,1,1,1,1,1,0]","location_rts":"[1773,4929,5034,7384,2093,1681,5354]","trial_type":"two-door-navigation","trial_index":9,"time_elapsed":188544,"internal_node_id":"0.0-2.0-7.0"},{"group":"hexagon_tri","room_assignment":["blue","green","purple","yellow","grey","red"],"door_color_assignment":["white","black"],"door_generator_assignment":[1,0],"goal":4,"start":5,"action_noise":0.15,"location_history":"[5,4]","action_history":"[0]","door_history":"[1]","location_rts":"[4275]","trial_type":"two-door-navigation","trial_index":10,"time_elapsed":197522,"internal_node_id":"0.0-2.0-8.0"},{"group":"hexagon_tri","room_assignment":["blue","green","purple","yellow","grey","red"],"door_color_assignment":["white","black"],"door_generator_assignment":[1,0],"goal":2,"start":4,"action_noise":0.15,"location_history":"[4,2]","action_history":"[1]","door_history":"[0]","location_rts":"[4574]","trial_type":"two-door-navigation","trial_index":11,"time_elapsed":206674,"internal_node_id":"0.0-2.0-9.0"},{"group":"hexagon_tri","room_assignment":["blue","green","purple","yellow","grey","red"],"door_color_assignment":["white","black"],"door_generator_assignment":[1,0],"goal":0,"start":2,"action_noise":0.15,"location_history":"[2,1,5,4,2,1,5,0]","action_history":"[0,0,0,0,0,1,1]","door_history":"[1,1,1,1,1,0,0]","location_rts":"[1843,643,2573,966,1845,2344,649]","trial_type":"two-door-navigation","trial_index":12,"time_elapsed":228877,"internal_node_id":"0.0-2.0-10.0"},{"group":"hexagon_tri","room_assignment":["blue","green","purple","yellow","grey","red"],"door_color_assignment":["white","black"],"door_generator_assignment":[1,0],"goal":1,"start":0,"action_noise":0.15,"location_history":"[0,1]","action_history":"[0]","door_history":"[1]","location_rts":"[2404]","trial_type":"two-door-navigation","trial_index":13,"time_elapsed":235860,"internal_node_id":"0.0-2.0-11.0"},{"group":"hexagon_tri","room_assignment":["blue","green","purple","yellow","grey","red"],"door_color_assignment":["white","black"],"door_generator_assignment":[1,0],"goal":3,"start":1,"action_noise":0.15,"location_history":"[1,3]","action_history":"[0]","door_history":"[1]","location_rts":"[2788]","trial_type":"two-door-navigation","trial_index":14,"time_elapsed":243277,"internal_node_id":"0.0-2.0-12.0"},{"group":"hexagon_tri","room_assignment":["blue","green","purple","yellow","grey","red"],"door_color_assignment":["white","black"],"door_generator_assignment":[1,0],"goal":5,"start":3,"action_noise":0.15,"location_history":"[3,2,1,3,2,3,2,1,5]","action_history":"[0,0,0,0,0,0,0,1]","door_history":"[1,1,1,1,1,1,1,0]","location_rts":"[1424,1156,1556,1301,1695,728,763,987]","trial_type":"two-door-navigation","trial_index":15,"time_elapsed":265103,"internal_node_id":"0.0-2.0-13.0"},{"group":"hexagon_tri","room_assignment":["blue","green","purple","yellow","grey","red"],"door_color_assignment":["white","black"],"door_generator_assignment":[1,0],"goal":4,"start":5,"action_noise":0.15,"location_history":"[5,4]","action_history":"[0]","door_history":"[1]","location_rts":"[1587]","trial_type":"two-door-navigation","trial_index":16,"time_elapsed":271284,"internal_node_id":"0.0-2.0-14.0"},{"group":"hexagon_tri","room_assignment":["blue","green","purple","yellow","grey","red"],"door_color_assignment":["white","black"],"door_generator_assignment":[1,0],"goal":0,"start":4,"action_noise":0.15,"location_history":"[4,0]","action_history":"[0]","door_history":"[1]","location_rts":"[1599]","trial_type":"two-door-navigation","trial_index":17,"time_elapsed":277516,"internal_node_id":"0.0-2.0-15.0"},{"group":"hexagon_tri","room_assignment":["blue","green","purple","yellow","grey","red"],"door_color_assignment":["white","black"],"door_generator_assignment":[1,0],"goal":3,"start":0,"action_noise":0.15,"location_history":"[0,5,0,5,4,2,1,5,4,0,5,0,1,3]","action_history":"[0,0,0,1,1,1,1,1,0,0,0,0,0]","door_history":"[1,1,1,0,0,0,0,0,1,1,1,1,1]","location_rts":"[1418,848,945,1584,1210,1476,887,480,1379,612,982,1100,872]","trial_type":"two-door-navigation","trial_index":18,"time_elapsed":309095,"internal_node_id":"0.0-2.0-16.0"},{"group":"hexagon_tri","room_assignment":["blue","green","purple","yellow","grey","red"],"door_color_assignment":["white","black"],"door_generator_assignment":[1,0],"goal":1,"start":3,"action_noise":0.15,"location_history":"[3,2,3,4,2,3,4,0,5,0,1]","action_history":"[0,0,0,1,1,1,0,0,0,1]","door_history":"[1,1,1,0,0,0,1,1,1,0]","location_rts":"[1111,418,410,1680,518,628,1149,985,649,636]","trial_type":"two-door-navigation","trial_index":19,"time_elapsed":331873,"internal_node_id":"0.0-2.0-17.0"},{"group":"hexagon_tri","room_assignment":["blue","green","purple","yellow","grey","red"],"door_color_assignment":["white","black"],"door_generator_assignment":[1,0],"goal":5,"start":1,"action_noise":0.15,"location_history":"[1,5]","action_history":"[0]","door_history":"[1]","location_rts":"[1436]","trial_type":"two-door-navigation","trial_index":20,"time_elapsed":337895,"internal_node_id":"0.0-2.0-18.0"},{"group":"hexagon_tri","room_assignment":["blue","green","purple","yellow","grey","red"],"door_color_assignment":["white","black"],"door_generator_assignment":[1,0],"goal":2,"start":5,"action_noise":0.15,"location_history":"[5,4,0,5,4,2]","action_history":"[0,0,0,0,1]","door_history":"[1,1,1,1,0]","location_rts":"[1485,673,1802,1613,494]","trial_type":"two-door-navigation","trial_index":21,"time_elapsed":352980,"internal_node_id":"0.0-2.0-19.0"},{"group":"hexagon_tri","room_assignment":["blue","green","purple","yellow","grey","red"],"door_color_assignment":["white","black"],"door_generator_assignment":[1,0],"goal":4,"start":2,"action_noise":0.15,"location_history":"[2,1,3,2,3,4]","action_history":"[0,0,0,1,1]","door_history":"[1,1,1,0,0]","location_rts":"[2386,573,670,807,380]","trial_type":"two-door-navigation","trial_index":22,"time_elapsed":366777,"internal_node_id":"0.0-2.0-20.0"},{"group":"hexagon_tri","room_assignment":["blue","green","purple","yellow","grey","red"],"door_color_assignment":["white","black"],"door_generator_assignment":[1,0],"goal":1,"start":4,"action_noise":0.15,"location_history":"[4,2,1]","action_history":"[1,1]","door_history":"[0,0]","location_rts":"[1878,756]","trial_type":"two-door-navigation","trial_index":23,"time_elapsed":375163,"internal_node_id":"0.0-2.0-21.0"},{"group":"hexagon_tri","room_assignment":["blue","green","purple","yellow","grey","red"],"door_color_assignment":["white","black"],"door_generator_assignment":[1,0],"goal":3,"start":1,"action_noise":0.15,"location_history":"[1,3]","action_history":"[0]","door_history":"[1]","location_rts":"[4665]","trial_type":"two-door-navigation","trial_index":24,"time_elapsed":384441,"internal_node_id":"0.0-2.0-22.0"},{"group":"hexagon_tri","room_assignment":["blue","green","purple","yellow","grey","red"],"door_color_assignment":["white","black"],"door_generator_assignment":[1,0],"goal":2,"start":3,"action_noise":0.15,"location_history":"[3,2]","action_history":"[0]","door_history":"[1]","location_rts":"[1062]","trial_type":"two-door-navigation","trial_index":25,"time_elapsed":390082,"internal_node_id":"0.0-2.0-23.0"},{"group":"hexagon_tri","room_assignment":["blue","green","purple","yellow","grey","red"],"door_color_assignment":["white","black"],"door_generator_assignment":[1,0],"goal":0,"start":2,"action_noise":0.15,"location_history":"[2,1,3,4,2,3,4,2,1,3,4,0]","action_history":"[0,0,1,1,1,1,1,0,0,1,0]","door_history":"[1,1,0,0,0,0,0,1,1,0,1]","location_rts":"[2151,3012,694,904,742,696,991,4031,686,1051,1225]","trial_type":"two-door-navigation","trial_index":26,"time_elapsed":422187,"internal_node_id":"0.0-2.0-24.0"},{"group":"hexagon_tri","room_assignment":["blue","green","purple","yellow","grey","red"],"door_color_assignment":["white","black"],"door_generator_assignment":[1,0],"goal":5,"start":0,"action_noise":0.15,"location_history":"[0,5]","action_history":"[0]","door_history":"[1]","location_rts":"[1149]","trial_type":"two-door-navigation","trial_index":27,"time_elapsed":428000,"internal_node_id":"0.0-2.0-25.0"},{"group":"hexagon_tri","room_assignment":["blue","green","purple","yellow","grey","red"],"door_color_assignment":["white","black"],"door_generator_assignment":[1,0],"goal":2,"start":5,"action_noise":0.15,"location_history":"[5,4,0,1,5,0,1,5,4,0,1,5,0,5,4,2]","action_history":"[0,0,1,1,1,1,1,0,0,1,1,1,0,0,1]","door_history":"[1,1,0,0,0,0,0,1,1,0,0,0,1,1,0]","location_rts":"[762,728,504,275,119,3325,601,1166,1197,488,535,440,93,606,98]","trial_type":"two-door-navigation","trial_index":28,"time_elapsed":458726,"internal_node_id":"0.0-2.0-26.0"},{"group":"hexagon_tri","room_assignment":["blue","green","purple","yellow","grey","red"],"door_color_assignment":["white","black"],"door_generator_assignment":[1,0],"goal":3,"start":2,"action_noise":0.15,"location_history":"[2,3]","action_history":"[1]","door_history":"[0]","location_rts":"[1337]","trial_type":"two-door-navigation","trial_index":29,"time_elapsed":464701,"internal_node_id":"0.0-2.0-27.0"},{"group":"hexagon_tri","room_assignment":["blue","green","purple","yellow","grey","red"],"door_color_assignment":["white","black"],"door_generator_assignment":[1,0],"goal":0,"start":3,"action_noise":0.15,"location_history":"[3,4,0]","action_history":"[1,0]","door_history":"[0,1]","location_rts":"[1171,485]","trial_type":"two-door-navigation","trial_index":30,"time_elapsed":472051,"internal_node_id":"0.0-2.0-28.0"},{"group":"hexagon_tri","room_assignment":["blue","green","purple","yellow","grey","red"],"door_color_assignment":["white","black"],"door_generator_assignment":[1,0],"goal":1,"start":0,"action_noise":0.15,"location_history":"[0,5,4,0,1]","action_history":"[0,0,0,1]","door_history":"[1,1,1,0]","location_rts":"[1529,1733,779,478]","trial_type":"two-door-navigation","trial_index":31,"time_elapsed":484486,"internal_node_id":"0.0-2.0-29.0"},{"group":"hexagon_tri","room_assignment":["blue","green","purple","yellow","grey","red"],"door_color_assignment":["white","black"],"door_generator_assignment":[1,0],"goal":4,"start":1,"action_noise":0.15,"location_history":"[1,5,0,1,5,0,1,5,4]","action_history":"[1,1,0,0,0,1,1,0]","door_history":"[0,0,1,1,1,0,0,1]","location_rts":"[834,2040,1008,944,374,533,326,807]","trial_type":"two-door-navigation","trial_index":32,"time_elapsed":503644,"internal_node_id":"0.0-2.0-30.0"},{"group":"hexagon_tri","room_assignment":["blue","green","purple","yellow","grey","red"],"door_color_assignment":["white","black"],"door_generator_assignment":[1,0],"goal":5,"start":4,"action_noise":0.15,"location_history":"[4,0,5]","action_history":"[0,0]","door_history":"[1,1]","location_rts":"[1779,340]","trial_type":"two-door-navigation","trial_index":33,"time_elapsed":511499,"internal_node_id":"0.0-2.0-31.0"},{"group":"hexagon_tri","room_assignment":["blue","green","purple","yellow","grey","red"],"door_color_assignment":["white","black"],"door_generator_assignment":[1,0],"goal":0,"start":5,"action_noise":0.15,"location_history":"[5,4,0]","action_history":"[0,0]","door_history":"[1,1]","location_rts":"[1011,456]","trial_type":"two-door-navigation","trial_index":34,"time_elapsed":518662,"internal_node_id":"0.0-2.0-32.0"},{"group":"hexagon_tri","room_assignment":["blue","green","purple","yellow","grey","red"],"door_color_assignment":["white","black"],"door_generator_assignment":[1,0],"goal":3,"start":0,"action_noise":0.15,"location_history":"[0,5,4,2,3]","action_history":"[1,1,0,1]","door_history":"[0,0,1,0]","location_rts":"[796,184,752,152]","trial_type":"two-door-navigation","trial_index":35,"time_elapsed":528329,"internal_node_id":"0.0-2.0-33.0"},{"group":"hexagon_tri","room_assignment":["blue","green","purple","yellow","grey","red"],"door_color_assignment":["white","black"],"door_generator_assignment":[1,0],"goal":1,"start":3,"action_noise":0.15,"location_history":"[3,2,1]","action_history":"[0,0]","door_history":"[1,1]","location_rts":"[1317,615]","trial_type":"two-door-navigation","trial_index":36,"time_elapsed":535980,"internal_node_id":"0.0-2.0-34.0"},{"group":"hexagon_tri","room_assignment":["blue","green","purple","yellow","grey","red"],"door_color_assignment":["white","black"],"door_generator_assignment":[1,0],"goal":2,"start":1,"action_noise":0.15,"location_history":"[1,3,4,2]","action_history":"[0,0,1]","door_history":"[1,1,0]","location_rts":"[415,118,367]","trial_type":"two-door-navigation","trial_index":37,"time_elapsed":543690,"internal_node_id":"0.0-2.0-35.0"},{"group":"hexagon_tri","room_assignment":["blue","green","purple","yellow","grey","red"],"door_color_assignment":["white","black"],"door_generator_assignment":[1,0],"goal":4,"start":2,"action_noise":0.15,"location_history":"[2,3,4]","action_history":"[1,1]","door_history":"[0,0]","location_rts":"[679,413]","trial_type":"two-door-navigation","trial_index":38,"time_elapsed":550508,"internal_node_id":"0.0-2.0-36.0"},{"group":"hexagon_tri","room_assignment":["blue","green","purple","yellow","grey","red"],"door_color_assignment":["white","black"],"door_generator_assignment":[1,0],"goal":5,"start":4,"action_noise":0.15,"location_history":"[4,2,1,3,4,2,3,4,2,3,2,1,3,4,0,5]","action_history":"[1,0,0,1,1,1,1,1,1,0,0,0,0,0,0]","door_history":"[0,1,1,0,0,0,0,0,0,1,1,1,1,1,1]","location_rts":"[1681,805,3138,394,1524,1510,3889,467,809,502,1060,442,1018,1228,1571]","trial_type":"two-door-navigation","trial_index":39,"time_elapsed":590522,"internal_node_id":"0.0-2.0-37.0"},{"group":"hexagon_tri","room_assignment":["blue","green","purple","yellow","grey","red"],"door_color_assignment":["white","black"],"door_generator_assignment":[1,0],"goal":1,"start":5,"action_noise":0.15,"location_history":"[5,4,0,5,4,2,3,2,3,2,1]","action_history":"[0,0,0,1,1,1,1,0,0,1]","door_history":"[1,1,1,0,0,0,0,1,1,0]","location_rts":"[524,212,788,515,96,291,237,364,391,458]","trial_type":"two-door-navigation","trial_index":40,"time_elapsed":608757,"internal_node_id":"0.0-2.0-38.0"},{"group":"hexagon_tri","room_assignment":["blue","green","purple","yellow","grey","red"],"door_color_assignment":["white","black"],"door_generator_assignment":[1,0],"goal":4,"start":1,"action_noise":0.15,"location_history":"[1,3,2,1,5,0,1,5,4]","action_history":"[0,0,0,0,1,1,1,0]","door_history":"[1,1,1,1,0,0,0,1]","location_rts":"[394,770,1273,823,744,486,481,483]","trial_type":"two-door-navigation","trial_index":41,"time_elapsed":626496,"internal_node_id":"0.0-2.0-39.0"},{"group":"hexagon_tri","room_assignment":["blue","green","purple","yellow","grey","red"],"door_color_assignment":["white","black"],"door_generator_assignment":[1,0],"goal":3,"start":4,"action_noise":0.15,"location_history":"[4,2,3]","action_history":"[1,1]","door_history":"[0,0]","location_rts":"[787,321]","trial_type":"two-door-navigation","trial_index":42,"time_elapsed":633389,"internal_node_id":"0.0-2.0-40.0"},{"group":"hexagon_tri","room_assignment":["blue","green","purple","yellow","grey","red"],"door_color_assignment":["white","black"],"door_generator_assignment":[1,0],"goal":2,"start":3,"action_noise":0.15,"location_history":"[3,2]","action_history":"[0]","door_history":"[1]","location_rts":"[484]","trial_type":"two-door-navigation","trial_index":43,"time_elapsed":638435,"internal_node_id":"0.0-2.0-41.0"},{"group":"hexagon_tri","room_assignment":["blue","green","purple","yellow","grey","red"],"door_color_assignment":["white","black"],"door_generator_assignment":[1,0],"goal":0,"start":2,"action_noise":0.15,"location_history":"[2,1,5,0]","action_history":"[0,0,1]","door_history":"[1,1,0]","location_rts":"[823,565,469]","trial_type":"two-door-navigation","trial_index":44,"time_elapsed":647186,"internal_node_id":"0.0-2.0-42.0"},{"group":"hexagon_tri","room_assignment":["blue","green","purple","yellow","grey","red"],"door_color_assignment":["white","black"],"door_generator_assignment":[1,0],"goal":5,"start":0,"action_noise":0.15,"location_history":"[0,5]","action_history":"[0]","door_history":"[1]","location_rts":"[1461]","trial_type":"two-door-navigation","trial_index":45,"time_elapsed":653235,"internal_node_id":"0.0-2.0-43.0"},{"group":"hexagon_tri","room_assignment":["blue","green","purple","yellow","grey","red"],"door_color_assignment":["white","black"],"door_generator_assignment":[1,0],"goal":0,"start":5,"action_noise":0.15,"location_history":"[5,4,0]","action_history":"[1,0]","door_history":"[0,1]","location_rts":"[668,516]","trial_type":"two-door-navigation","trial_index":46,"time_elapsed":660114,"internal_node_id":"0.0-2.0-44.0"},{"group":"hexagon_tri","room_assignment":["blue","green","purple","yellow","grey","red"],"door_color_assignment":["white","black"],"door_generator_assignment":[1,0],"goal":2,"start":0,"action_noise":0.15,"location_history":"[0,1,3,2]","action_history":"[1,0,0]","door_history":"[0,1,1]","location_rts":"[470,320,223]","trial_type":"two-door-navigation","trial_index":47,"time_elapsed":667901,"internal_node_id":"0.0-2.0-45.0"},{"group":"hexagon_tri","room_assignment":["blue","green","purple","yellow","grey","red"],"door_color_assignment":["white","black"],"door_generator_assignment":[1,0],"goal":4,"start":2,"action_noise":0.15,"location_history":"[2,1,3,2,1,5,0,1,3,4]","action_history":"[0,0,0,0,1,1,1,0,1]","door_history":"[1,1,1,1,0,0,0,1,0]","location_rts":"[726,266,419,410,15,378,480,130,20]","trial_type":"two-door-navigation","trial_index":48,"time_elapsed":684330,"internal_node_id":"0.0-2.0-46.0"},{"group":"hexagon_tri","room_assignment":["blue","green","purple","yellow","grey","red"],"door_color_assignment":["white","black"],"door_generator_assignment":[1,0],"goal":1,"start":4,"action_noise":0.15,"location_history":"[4,0,5,4,0,5,0,5,0,1]","action_history":"[0,0,0,0,1,1,0,1,1]","door_history":"[1,1,1,1,0,0,1,0,0]","location_rts":"[511,417,632,961,543,439,682,1569,383]","trial_type":"two-door-navigation","trial_index":49,"time_elapsed":704083,"internal_node_id":"0.0-2.0-47.0"},{"group":"hexagon_tri","room_assignment":["blue","green","purple","yellow","grey","red"],"door_color_assignment":["white","black"],"door_generator_assignment":[1,0],"goal":5,"start":1,"action_noise":0.15,"location_history":"[1,3,4,0,5]","action_history":"[1,0,0,0]","door_history":"[0,1,1,1]","location_rts":"[934,509,213,629]","trial_type":"two-door-navigation","trial_index":50,"time_elapsed":714309,"internal_node_id":"0.0-2.0-48.0"},{"group":"hexagon_tri","room_assignment":["blue","green","purple","yellow","grey","red"],"door_color_assignment":["white","black"],"door_generator_assignment":[1,0],"goal":3,"start":5,"action_noise":0.15,"location_history":"[5,4,0,1,3]","action_history":"[0,0,1,0]","door_history":"[1,1,0,1]","location_rts":"[459,399,292,281]","trial_type":"two-door-navigation","trial_index":51,"time_elapsed":723678,"internal_node_id":"0.0-2.0-49.0"},{"view_history":"[{\"page_index\":0,\"viewing_time\":3408}]","rt":3411,"trial_type":"instructions","trial_index":52,"time_elapsed":728092,"internal_node_id":"0.0-3.0"},{"view_history":"[{\"page_index\":0,\"viewing_time\":2513},{\"page_index\":1,\"viewing_time\":1619}]","rt":4134,"trial_type":"instructions","trial_index":53,"time_elapsed":733229,"internal_node_id":"0.0-4.0"},{"group":"hexagon_bi","fractal_assignment":["../images/ylw_slt.png","../images/org_blu.png","../images/cyn_red.png","../images/pnk_blu.png","../images/gry_blk.png","../images/blu_wht.png"],"mutagen_generator_assignment":[0,1],"goal":3,"start":5,"action_noise":0.15,"location_history":"[5,0,1,0,1,2,1,0,1,2,3]","action_history":"[0,1,1,1,1,0,1,1,0,1]","mutagen_history":"[0,1,1,1,1,0,1,1,0,1]","location_rts":"[17173,1027,264,16,235,315,222,226,40,151]","trial_type":"fractal-mutation","trial_index":54,"time_elapsed":769440,"internal_node_id":"0.0-5.0-0.0"},{"group":"hexagon_bi","fractal_assignment":["../images/ylw_slt.png","../images/org_blu.png","../images/cyn_red.png","../images/pnk_blu.png","../images/gry_blk.png","../images/blu_wht.png"],"mutagen_generator_assignment":[0,1],"goal":1,"start":3,"action_noise":0.15,"location_history":"[3,4,3,2,1]","action_history":"[0,0,1,0]","mutagen_history":"[0,0,1,0]","location_rts":"[2952,1042,865,980]","trial_type":"fractal-mutation","trial_index":55,"time_elapsed":783796,"internal_node_id":"0.0-5.0-1.0"},{"group":"hexagon_bi","fractal_assignment":["../images/ylw_slt.png","../images/org_blu.png","../images/cyn_red.png","../images/pnk_blu.png","../images/gry_blk.png","../images/blu_wht.png"],"mutagen_generator_assignment":[0,1],"goal":0,"start":1,"action_noise":0.15,"location_history":"[1,0]","action_history":"[0]","mutagen_history":"[0]","location_rts":"[1532]","trial_type":"fractal-mutation","trial_index":56,"time_elapsed":790235,"internal_node_id":"0.0-5.0-2.0"},{"group":"hexagon_bi","fractal_assignment":["../images/ylw_slt.png","../images/org_blu.png","../images/cyn_red.png","../images/pnk_blu.png","../images/gry_blk.png","../images/blu_wht.png"],"mutagen_generator_assignment":[0,1],"goal":3,"start":0,"action_noise":0.15,"location_history":"[0,5,4,5,4,5,0,5,0,5,0,5,4,3]","action_history":"[0,1,1,1,1,0,0,0,0,0,0,1,0]","mutagen_history":"[0,1,1,1,1,0,0,0,0,0,0,1,0]","location_rts":"[2178,803,899,2524,811,2673,921,3081,1427,3394,2399,567,2388]","trial_type":"fractal-mutation","trial_index":57,"time_elapsed":834220,"internal_node_id":"0.0-5.0-3.0"},{"group":"hexagon_bi","fractal_assignment":["../images/ylw_slt.png","../images/org_blu.png","../images/cyn_red.png","../images/pnk_blu.png","../images/gry_blk.png","../images/blu_wht.png"],"mutagen_generator_assignment":[0,1],"goal":4,"start":3,"action_noise":0.15,"location_history":"[3,4]","action_history":"[0]","mutagen_history":"[0]","location_rts":"[1712]","trial_type":"fractal-mutation","trial_index":58,"time_elapsed":840652,"internal_node_id":"0.0-5.0-4.0"},{"group":"hexagon_bi","fractal_assignment":["../images/ylw_slt.png","../images/org_blu.png","../images/cyn_red.png","../images/pnk_blu.png","../images/gry_blk.png","../images/blu_wht.png"],"mutagen_generator_assignment":[0,1],"goal":2,"start":4,"action_noise":0.15,"location_history":"[4,3,2]","action_history":"[0,1]","mutagen_history":"[0,1]","location_rts":"[6076,482]","trial_type":"fractal-mutation","trial_index":59,"time_elapsed":853089,"internal_node_id":"0.0-5.0-5.0"},{"group":"hexagon_bi","fractal_assignment":["../images/ylw_slt.png","../images/org_blu.png","../images/cyn_red.png","../images/pnk_blu.png","../images/gry_blk.png","../images/blu_wht.png"],"mutagen_generator_assignment":[0,1],"goal":1,"start":2,"action_noise":0.15,"location_history":"[2,1]","action_history":"[0]","mutagen_history":"[0]","location_rts":"[855]","trial_type":"fractal-mutation","trial_index":60,"time_elapsed":858668,"internal_node_id":"0.0-5.0-6.0"},{"group":"hexagon_bi","fractal_assignment":["../images/ylw_slt.png","../images/org_blu.png","../images/cyn_red.png","../images/pnk_blu.png","../images/gry_blk.png","../images/blu_wht.png"],"mutagen_generator_assignment":[0,1],"goal":5,"start":1,"action_noise":0.15,"location_history":"[1,2,1,0,1,0,5]","action_history":"[0,1,1,1,1,0]","mutagen_history":"[0,1,1,1,1,0]","location_rts":"[965,356,345,583,632,797]","trial_type":"fractal-mutation","trial_index":61,"time_elapsed":873229,"internal_node_id":"0.0-5.0-7.0"},{"group":"hexagon_bi","fractal_assignment":["../images/ylw_slt.png","../images/org_blu.png","../images/cyn_red.png","../images/pnk_blu.png","../images/gry_blk.png","../images/blu_wht.png"],"mutagen_generator_assignment":[0,1],"goal":4,"start":5,"action_noise":0.15,"location_history":"[5,0,5,4]","action_history":"[0,1,1]","mutagen_history":"[0,1,1]","location_rts":"[1102,582,345]","trial_type":"fractal-mutation","trial_index":62,"time_elapsed":882661,"internal_node_id":"0.0-5.0-8.0"},{"group":"hexagon_bi","fractal_assignment":["../images/ylw_slt.png","../images/org_blu.png","../images/cyn_red.png","../images/pnk_blu.png","../images/gry_blk.png","../images/blu_wht.png"],"mutagen_generator_assignment":[0,1],"goal":2,"start":4,"action_noise":0.15,"location_history":"[4,5,0,5,0,5,4,5,4,3,4,5,4,3,4,5,0,1,2]","action_history":"[0,0,0,0,0,1,1,1,0,0,0,0,1,0,1,0,1,0]","mutagen_history":"[0,0,0,0,0,1,1,1,0,0,0,0,1,0,1,0,1,0]","location_rts":"[1143,1560,4594,3220,2714,709,1222,858,431,879,488,1748,673,808,2515,4373,1237,1031]","trial_type":"fractal-mutation","trial_index":63,"time_elapsed":938260,"internal_node_id":"0.0-5.0-9.0"},{"group":"hexagon_bi","fractal_assignment":["../images/ylw_slt.png","../images/org_blu.png","../images/cyn_red.png","../images/pnk_blu.png","../images/gry_blk.png","../images/blu_wht.png"],"mutagen_generator_assignment":[0,1],"goal":0,"start":2,"action_noise":0.15,"location_history":"[2,1,0]","action_history":"[0,1]","mutagen_history":"[0,1]","location_rts":"[722,473]","trial_type":"fractal-mutation","trial_index":64,"time_elapsed":945441,"internal_node_id":"0.0-5.0-10.0"},{"group":"hexagon_bi","fractal_assignment":["../images/ylw_slt.png","../images/org_blu.png","../images/cyn_red.png","../images/pnk_blu.png","../images/gry_blk.png","../images/blu_wht.png"],"mutagen_generator_assignment":[0,1],"goal":1,"start":0,"action_noise":0.15,"location_history":"[0,5,0,1]","action_history":"[0,0,1]","mutagen_history":"[0,0,1]","location_rts":"[749,657,588]","trial_type":"fractal-mutation","trial_index":65,"time_elapsed":954582,"internal_node_id":"0.0-5.0-11.0"},{"group":"hexagon_bi","fractal_assignment":["../images/ylw_slt.png","../images/org_blu.png","../images/cyn_red.png","../images/pnk_blu.png","../images/gry_blk.png","../images/blu_wht.png"],"mutagen_generator_assignment":[0,1],"goal":3,"start":1,"action_noise":0.15,"location_history":"[1,2,3]","action_history":"[0,1]","mutagen_history":"[0,1]","location_rts":"[915,459]","trial_type":"fractal-mutation","trial_index":66,"time_elapsed":962048,"internal_node_id":"0.0-5.0-12.0"},{"group":"hexagon_bi","fractal_assignment":["../images/ylw_slt.png","../images/org_blu.png","../images/cyn_red.png","../images/pnk_blu.png","../images/gry_blk.png","../images/blu_wht.png"],"mutagen_generator_assignment":[0,1],"goal":5,"start":3,"action_noise":0.15,"location_history":"[3,2,1,0,5]","action_history":"[1,1,1,1]","mutagen_history":"[1,1,1,1]","location_rts":"[1008,457,550,8016]","trial_type":"fractal-mutation","trial_index":67,"time_elapsed":980688,"internal_node_id":"0.0-5.0-13.0"},{"group":"hexagon_bi","fractal_assignment":["../images/ylw_slt.png","../images/org_blu.png","../images/cyn_red.png","../images/pnk_blu.png","../images/gry_blk.png","../images/blu_wht.png"],"mutagen_generator_assignment":[0,1],"goal":4,"start":5,"action_noise":0.15,"location_history":"[5,0,1,0,1,0,5,0,1,0,1,0,5,4]","action_history":"[1,1,1,1,1,1,0,1,1,1,0,0,1]","mutagen_history":"[1,1,1,1,1,1,0,1,1,1,0,0,1]","location_rts":"[1332,500,226,106,87,549,285,261,61,64,117,298,952]","trial_type":"fractal-mutation","trial_index":68,"time_elapsed":1005643,"internal_node_id":"0.0-5.0-14.0"},{"group":"hexagon_bi","fractal_assignment":["../images/ylw_slt.png","../images/org_blu.png","../images/cyn_red.png","../images/pnk_blu.png","../images/gry_blk.png","../images/blu_wht.png"],"mutagen_generator_assignment":[0,1],"goal":0,"start":4,"action_noise":0.15,"location_history":"[4,5,4,3,2,3,4,3,4,3,4,5,4,5,0]","action_history":"[0,1,0,1,1,0,0,0,0,1,1,0,1,0]","mutagen_history":"[0,1,0,1,1,0,0,0,0,1,1,0,1,0]","location_rts":"[560,175,322,787,516,551,3187,673,3227,2207,775,2208,466,543]","trial_type":"fractal-mutation","trial_index":69,"time_elapsed":1042614,"internal_node_id":"0.0-5.0-15.0"},{"group":"hexagon_bi","fractal_assignment":["../images/ylw_slt.png","../images/org_blu.png","../images/cyn_red.png","../images/pnk_blu.png","../images/gry_blk.png","../images/blu_wht.png"],"mutagen_generator_assignment":[0,1],"goal":3,"start":0,"action_noise":0.15,"location_history":"[0,1,0,5,4,5,0,1,2,1,0,5,4,3]","action_history":"[0,1,0,1,1,0,0,0,0,1,1,1,0]","mutagen_history":"[0,1,0,1,1,0,0,0,0,1,1,1,0]","location_rts":"[1502,456,436,719,926,2058,2456,3219,1302,1154,1192,1122,3009]","trial_type":"fractal-mutation","trial_index":70,"time_elapsed":1081760,"internal_node_id":"0.0-5.0-16.0"},{"group":"hexagon_bi","fractal_assignment":["../images/ylw_slt.png","../images/org_blu.png","../images/cyn_red.png","../images/pnk_blu.png","../images/gry_blk.png","../images/blu_wht.png"],"mutagen_generator_assignment":[0,1],"goal":1,"start":3,"action_noise":0.15,"location_history":"[3,4,5,0,1]","action_history":"[0,1,0,0]","mutagen_history":"[0,1,0,0]","location_rts":"[526,1678,1016,1713]","trial_type":"fractal-mutation","trial_index":71,"time_elapsed":1095146,"internal_node_id":"0.0-5.0-17.0"},{"group":"hexagon_bi","fractal_assignment":["../images/ylw_slt.png","../images/org_blu.png","../images/cyn_red.png","../images/pnk_blu.png","../images/gry_blk.png","../images/blu_wht.png"],"mutagen_generator_assignment":[0,1],"goal":5,"start":1,"action_noise":0.15,"location_history":"[1,2,1,2,3,2,1,0,1,2,3,4,5]","action_history":"[0,1,0,0,1,1,1,1,0,1,1,1]","mutagen_history":"[0,1,0,0,1,1,1,1,0,1,1,1]","location_rts":"[728,221,58,69,5465,1204,1051,856,327,78,997,721]","trial_type":"fractal-mutation","trial_index":72,"time_elapsed":1125221,"internal_node_id":"0.0-5.0-18.0"},{"group":"hexagon_bi","fractal_assignment":["../images/ylw_slt.png","../images/org_blu.png","../images/cyn_red.png","../images/pnk_blu.png","../images/gry_blk.png","../images/blu_wht.png"],"mutagen_generator_assignment":[0,1],"goal":2,"start":5,"action_noise":0.15,"location_history":"[5,4,3,4,3,2]","action_history":"[0,0,0,0,1]","mutagen_history":"[0,0,0,0,1]","location_rts":"[483,287,592,541,249]","trial_type":"fractal-mutation","trial_index":73,"time_elapsed":1136920,"internal_node_id":"0.0-5.0-19.0"},{"group":"hexagon_bi","fractal_assignment":["../images/ylw_slt.png","../images/org_blu.png","../images/cyn_red.png","../images/pnk_blu.png","../images/gry_blk.png","../images/blu_wht.png"],"mutagen_generator_assignment":[0,1],"goal":4,"start":2,"action_noise":0.15,"location_history":"[2,1,0,1,2,3,2,3,4]","action_history":"[0,1,1,1,1,1,0,1]","mutagen_history":"[0,1,1,1,1,1,0,1]","location_rts":"[164,472,1194,1014,298,604,580,1408]","trial_type":"fractal-mutation","trial_index":74,"time_elapsed":1155842,"internal_node_id":"0.0-5.0-20.0"},{"group":"hexagon_bi","fractal_assignment":["../images/ylw_slt.png","../images/org_blu.png","../images/cyn_red.png","../images/pnk_blu.png","../images/gry_blk.png","../images/blu_wht.png"],"mutagen_generator_assignment":[0,1],"goal":1,"start":4,"action_noise":0.15,"location_history":"[4,3,2,1]","action_history":"[0,1,0]","mutagen_history":"[0,1,0]","location_rts":"[808,332,315]","trial_type":"fractal-mutation","trial_index":75,"time_elapsed":1164348,"internal_node_id":"0.0-5.0-21.0"},{"group":"hexagon_bi","fractal_assignment":["../images/ylw_slt.png","../images/org_blu.png","../images/cyn_red.png","../images/pnk_blu.png","../images/gry_blk.png","../images/blu_wht.png"],"mutagen_generator_assignment":[0,1],"goal":3,"start":1,"action_noise":0.15,"location_history":"[1,2,3]","action_history":"[0,1]","mutagen_history":"[0,1]","location_rts":"[1013,475]","trial_type":"fractal-mutation","trial_index":76,"time_elapsed":1171728,"internal_node_id":"0.0-5.0-22.0"},{"group":"hexagon_bi","fractal_assignment":["../images/ylw_slt.png","../images/org_blu.png","../images/cyn_red.png","../images/pnk_blu.png","../images/gry_blk.png","../images/blu_wht.png"],"mutagen_generator_assignment":[0,1],"goal":2,"start":3,"action_noise":0.15,"location_history":"[3,4,3,4,3,4,5,4,5,0,5,4,3,4,3,2]","action_history":"[0,0,1,0,0,1,1,1,0,0,1,0,0,1,1]","mutagen_history":"[0,0,1,0,0,1,1,1,0,0,1,0,0,1,1]","location_rts":"[652,405,758,369,669,874,877,625,621,537,856,458,699,1026,2629]","trial_type":"fractal-mutation","trial_index":77,"time_elapsed":1205666,"internal_node_id":"0.0-5.0-23.0"},{"group":"hexagon_bi","fractal_assignment":["../images/ylw_slt.png","../images/org_blu.png","../images/cyn_red.png","../images/pnk_blu.png","../images/gry_blk.png","../images/blu_wht.png"],"mutagen_generator_assignment":[0,1],"goal":0,"start":2,"action_noise":0.15,"location_history":"[2,1,0]","action_history":"[0,1]","mutagen_history":"[0,1]","location_rts":"[2383,514]","trial_type":"fractal-mutation","trial_index":78,"time_elapsed":1214634,"internal_node_id":"0.0-5.0-24.0"},{"group":"hexagon_bi","fractal_assignment":["../images/ylw_slt.png","../images/org_blu.png","../images/cyn_red.png","../images/pnk_blu.png","../images/gry_blk.png","../images/blu_wht.png"],"mutagen_generator_assignment":[0,1],"goal":5,"start":0,"action_noise":0.15,"location_history":"[0,5]","action_history":"[0]","mutagen_history":"[0]","location_rts":"[266]","trial_type":"fractal-mutation","trial_index":79,"time_elapsed":1219500,"internal_node_id":"0.0-5.0-25.0"},{"group":"hexagon_bi","fractal_assignment":["../images/ylw_slt.png","../images/org_blu.png","../images/cyn_red.png","../images/pnk_blu.png","../images/gry_blk.png","../images/blu_wht.png"],"mutagen_generator_assignment":[0,1],"goal":2,"start":5,"action_noise":0.15,"location_history":"[5,4,3,4,5,4,3,4,3,4,5,0,5,0,5,0,1,0,1,2]","action_history":"[1,0,0,1,0,0,0,0,0,1,0,0,1,0,0,0,1,0,0]","mutagen_history":"[1,0,0,1,0,0,0,0,0,1,0,0,1,0,0,0,1,0,0]","location_rts":"[572,339,1427,854,933,445,498,847,676,2512,1151,1105,2916,511,2715,2803,155,41,280]","trial_type":"fractal-mutation","trial_index":80,"time_elapsed":1267886,"internal_node_id":"0.0-5.0-26.0"},{"group":"hexagon_bi","fractal_assignment":["../images/ylw_slt.png","../images/org_blu.png","../images/cyn_red.png","../images/pnk_blu.png","../images/gry_blk.png","../images/blu_wht.png"],"mutagen_generator_assignment":[0,1],"goal":3,"start":2,"action_noise":0.15,"location_history":"[2,1,0,1,0,5,4,3]","action_history":"[0,0,1,1,1,0,0]","mutagen_history":"[0,0,1,1,1,0,0]","location_rts":"[84,17,383,14,36,194,133]","trial_type":"fractal-mutation","trial_index":81,"time_elapsed":1280766,"internal_node_id":"0.0-5.0-27.0"},{"group":"hexagon_bi","fractal_assignment":["../images/ylw_slt.png","../images/org_blu.png","../images/cyn_red.png","../images/pnk_blu.png","../images/gry_blk.png","../images/blu_wht.png"],"mutagen_generator_assignment":[0,1],"goal":0,"start":3,"action_noise":0.15,"location_history":"[3,4,3,2,3,4,3,4,5,0]","action_history":"[0,0,1,1,1,0,1,1,0]","mutagen_history":"[0,0,1,1,1,0,1,1,0]","location_rts":"[265,384,33,103,170,218,38,118,302]","trial_type":"fractal-mutation","trial_index":82,"time_elapsed":1296995,"internal_node_id":"0.0-5.0-28.0"},{"group":"hexagon_bi","fractal_assignment":["../images/ylw_slt.png","../images/org_blu.png","../images/cyn_red.png","../images/pnk_blu.png","../images/gry_blk.png","../images/blu_wht.png"],"mutagen_generator_assignment":[0,1],"goal":1,"start":0,"action_noise":0.15,"location_history":"[0,5,0,1]","action_history":"[0,0,0]","mutagen_history":"[0,0,0]","location_rts":"[218,602,1669]","trial_type":"fractal-mutation","trial_index":83,"time_elapsed":1306425,"internal_node_id":"0.0-5.0-29.0"},{"group":"hexagon_bi","fractal_assignment":["../images/ylw_slt.png","../images/org_blu.png","../images/cyn_red.png","../images/pnk_blu.png","../images/gry_blk.png","../images/blu_wht.png"],"mutagen_generator_assignment":[0,1],"goal":4,"start":1,"action_noise":0.15,"location_history":"[1,2,1,0,1,2,1,0,1,0,1,0,1,0,1,0,1,2,1,0,1,2,3,2,1,0,5,0,1,2,1,2,3,4]","action_history":"[0,0,1,1,0,0,1,1,1,1,1,1,0,1,1,1,1,0,1,1,0,1,1,0,1,0,1,1,0,0,0,0,0]","mutagen_history":"[0,0,1,1,0,0,1,1,1,1,1,1,0,1,1,1,1,0,1,1,0,1,1,0,1,0,1,1,0,0,0,0,0]","location_rts":"[56,1441,521,125,1512,740,111,563,99,421,424,249,65,132,176,147,322,239,167,69,70,13,68,240,147,109,120,106,290,103,479,591,196]","trial_type":"fractal-mutation","trial_index":84,"time_elapsed":1361377,"internal_node_id":"0.0-5.0-30.0"},{"group":"hexagon_bi","fractal_assignment":["../images/ylw_slt.png","../images/org_blu.png","../images/cyn_red.png","../images/pnk_blu.png","../images/gry_blk.png","../images/blu_wht.png"],"mutagen_generator_assignment":[0,1],"goal":5,"start":4,"action_noise":0.15,"location_history":"[4,3,4,5]","action_history":"[0,0,1]","mutagen_history":"[0,0,1]","location_rts":"[1070,553,245]","trial_type":"fractal-mutation","trial_index":85,"time_elapsed":1370657,"internal_node_id":"0.0-5.0-31.0"},{"group":"hexagon_bi","fractal_assignment":["../images/ylw_slt.png","../images/org_blu.png","../images/cyn_red.png","../images/pnk_blu.png","../images/gry_blk.png","../images/blu_wht.png"],"mutagen_generator_assignment":[0,1],"goal":0,"start":5,"action_noise":0.15,"location_history":"[5,4,3,2,3,2,1,2,3,4,3,2,3,2,3,2,3,4,5,0]","action_history":"[1,0,1,1,1,0,1,1,0,0,1,1,1,1,1,0,0,0,0]","mutagen_history":"[1,0,1,1,1,0,1,1,0,0,1,1,1,1,1,0,0,0,0]","location_rts":"[652,353,51,345,266,55,15,33,64,69,283,58,256,53,288,74,72,95,119]","trial_type":"fractal-mutation","trial_index":86,"time_elapsed":1401458,"internal_node_id":"0.0-5.0-32.0"},{"group":"hexagon_bi","fractal_assignment":["../images/ylw_slt.png","../images/org_blu.png","../images/cyn_red.png","../images/pnk_blu.png","../images/gry_blk.png","../images/blu_wht.png"],"mutagen_generator_assignment":[0,1],"goal":3,"start":0,"action_noise":0.15,"location_history":"[0,5,4,3]","action_history":"[0,0,0]","mutagen_history":"[0,0,0]","location_rts":"[857,89,113]","trial_type":"fractal-mutation","trial_index":87,"time_elapsed":1410113,"internal_node_id":"0.0-5.0-33.0"},{"group":"hexagon_bi","fractal_assignment":["../images/ylw_slt.png","../images/org_blu.png","../images/cyn_red.png","../images/pnk_blu.png","../images/gry_blk.png","../images/blu_wht.png"],"mutagen_generator_assignment":[0,1],"goal":1,"start":3,"action_noise":0.15,"location_history":"[3,2,1]","action_history":"[1,0]","mutagen_history":"[1,0]","location_rts":"[758,8719]","trial_type":"fractal-mutation","trial_index":88,"time_elapsed":1425376,"internal_node_id":"0.0-5.0-34.0"},{"group":"hexagon_bi","fractal_assignment":["../images/ylw_slt.png","../images/org_blu.png","../images/cyn_red.png","../images/pnk_blu.png","../images/gry_blk.png","../images/blu_wht.png"],"mutagen_generator_assignment":[0,1],"goal":2,"start":1,"action_noise":0.15,"location_history":"[1,0,1,2]","action_history":"[0,1,0]","mutagen_history":"[0,1,0]","location_rts":"[707,185,176]","trial_type":"fractal-mutation","trial_index":89,"time_elapsed":1433751,"internal_node_id":"0.0-5.0-35.0"},{"group":"hexagon_bi","fractal_assignment":["../images/ylw_slt.png","../images/org_blu.png","../images/cyn_red.png","../images/pnk_blu.png","../images/gry_blk.png","../images/blu_wht.png"],"mutagen_generator_assignment":[0,1],"goal":4,"start":2,"action_noise":0.15,"location_history":"[2,1,0,5,4]","action_history":"[0,1,0,1]","mutagen_history":"[0,1,0,1]","location_rts":"[159,212,345,283]","trial_type":"fractal-mutation","trial_index":90,"time_elapsed":1443287,"internal_node_id":"0.0-5.0-36.0"},{"group":"hexagon_bi","fractal_assignment":["../images/ylw_slt.png","../images/org_blu.png","../images/cyn_red.png","../images/pnk_blu.png","../images/gry_blk.png","../images/blu_wht.png"],"mutagen_generator_assignment":[0,1],"goal":5,"start":4,"action_noise":0.15,"location_history":"[4,5]","action_history":"[1]","mutagen_history":"[1]","location_rts":"[216]","trial_type":"fractal-mutation","trial_index":91,"time_elapsed":1448202,"internal_node_id":"0.0-5.0-37.0"},{"group":"hexagon_bi","fractal_assignment":["../images/ylw_slt.png","../images/org_blu.png","../images/cyn_red.png","../images/pnk_blu.png","../images/gry_blk.png","../images/blu_wht.png"],"mutagen_generator_assignment":[0,1],"goal":1,"start":5,"action_noise":0.15,"location_history":"[5,4,3,4,3,2,1]","action_history":"[0,0,0,0,1,0]","mutagen_history":"[0,0,0,0,1,0]","location_rts":"[568,485,4067,402,33,101]","trial_type":"fractal-mutation","trial_index":92,"time_elapsed":1464843,"internal_node_id":"0.0-5.0-38.0"},{"group":"hexagon_bi","fractal_assignment":["../images/ylw_slt.png","../images/org_blu.png","../images/cyn_red.png","../images/pnk_blu.png","../images/gry_blk.png","../images/blu_wht.png"],"mutagen_generator_assignment":[0,1],"goal":4,"start":1,"action_noise":0.15,"location_history":"[1,2,3,2,3,2,1,2,1,2,1,0,1,2,1,2,3,4]","action_history":"[0,1,1,1,1,0,0,0,0,0,1,1,0,0,0,1,0]","mutagen_history":"[0,1,1,1,1,0,0,0,0,0,1,1,0,0,0,1,0]","location_rts":"[242,2,132,102,298,98,293,244,52,142,215,100,16,94,44,811,203]","trial_type":"fractal-mutation","trial_index":93,"time_elapsed":1491715,"internal_node_id":"0.0-5.0-39.0"},{"group":"hexagon_bi","fractal_assignment":["../images/ylw_slt.png","../images/org_blu.png","../images/cyn_red.png","../images/pnk_blu.png","../images/gry_blk.png","../images/blu_wht.png"],"mutagen_generator_assignment":[0,1],"goal":3,"start":4,"action_noise":0.15,"location_history":"[4,5,0,1,2,3]","action_history":"[1,0,1,0,1]","mutagen_history":"[1,0,1,0,1]","location_rts":"[576,90,194,79,239]","trial_type":"fractal-mutation","trial_index":94,"time_elapsed":1502759,"internal_node_id":"0.0-5.0-40.0"},{"group":"hexagon_bi","fractal_assignment":["../images/ylw_slt.png","../images/org_blu.png","../images/cyn_red.png","../images/pnk_blu.png","../images/gry_blk.png","../images/blu_wht.png"],"mutagen_generator_assignment":[0,1],"goal":2,"start":3,"action_noise":0.15,"location_history":"[3,2]","action_history":"[1]","mutagen_history":"[1]","location_rts":"[198]","trial_type":"fractal-mutation","trial_index":95,"time_elapsed":1507635,"internal_node_id":"0.0-5.0-41.0"},{"group":"hexagon_bi","fractal_assignment":["../images/ylw_slt.png","../images/org_blu.png","../images/cyn_red.png","../images/pnk_blu.png","../images/gry_blk.png","../images/blu_wht.png"],"mutagen_generator_assignment":[0,1],"goal":0,"start":2,"action_noise":0.15,"location_history":"[2,3,2,3,4,5,0]","action_history":"[0,1,1,0,1,0]","mutagen_history":"[0,1,1,0,1,0]","location_rts":"[141,94,248,53,298,308]","trial_type":"fractal-mutation","trial_index":96,"time_elapsed":1519522,"internal_node_id":"0.0-5.0-42.0"},{"group":"hexagon_bi","fractal_assignment":["../images/ylw_slt.png","../images/org_blu.png","../images/cyn_red.png","../images/pnk_blu.png","../images/gry_blk.png","../images/blu_wht.png"],"mutagen_generator_assignment":[0,1],"goal":5,"start":0,"action_noise":0.15,"location_history":"[0,1,2,1,0,5]","action_history":"[1,0,0,1,0]","mutagen_history":"[1,0,0,1,0]","location_rts":"[112,30,82,88,567]","trial_type":"fractal-mutation","trial_index":97,"time_elapsed":1530406,"internal_node_id":"0.0-5.0-43.0"},{"group":"hexagon_bi","fractal_assignment":["../images/ylw_slt.png","../images/org_blu.png","../images/cyn_red.png","../images/pnk_blu.png","../images/gry_blk.png","../images/blu_wht.png"],"mutagen_generator_assignment":[0,1],"goal":0,"start":5,"action_noise":0.15,"location_history":"[5,4,5,4,5,4,5,0]","action_history":"[1,1,1,0,1,0,0]","mutagen_history":"[1,1,1,0,1,0,0]","location_rts":"[442,265,53,148,342,225,49]","trial_type":"fractal-mutation","trial_index":98,"time_elapsed":1544650,"internal_node_id":"0.0-5.0-44.0"},{"group":"hexagon_bi","fractal_assignment":["../images/ylw_slt.png","../images/org_blu.png","../images/cyn_red.png","../images/pnk_blu.png","../images/gry_blk.png","../images/blu_wht.png"],"mutagen_generator_assignment":[0,1],"goal":2,"start":0,"action_noise":0.15,"location_history":"[0,5,4,5,4,3,2]","action_history":"[0,1,1,1,0,1]","mutagen_history":"[0,1,1,1,0,1]","location_rts":"[35,15,49,167,301,137]","trial_type":"fractal-mutation","trial_index":99,"time_elapsed":1555967,"internal_node_id":"0.0-5.0-45.0"},{"group":"hexagon_bi","fractal_assignment":["../images/ylw_slt.png","../images/org_blu.png","../images/cyn_red.png","../images/pnk_blu.png","../images/gry_blk.png","../images/blu_wht.png"],"mutagen_generator_assignment":[0,1],"goal":4,"start":2,"action_noise":0.15,"location_history":"[2,3,4]","action_history":"[1,0]","mutagen_history":"[1,0]","location_rts":"[228,235]","trial_type":"fractal-mutation","trial_index":100,"time_elapsed":1562471,"internal_node_id":"0.0-5.0-46.0"},{"group":"hexagon_bi","fractal_assignment":["../images/ylw_slt.png","../images/org_blu.png","../images/cyn_red.png","../images/pnk_blu.png","../images/gry_blk.png","../images/blu_wht.png"],"mutagen_generator_assignment":[0,1],"goal":1,"start":4,"action_noise":0.15,"location_history":"[4,5,0,5,4,3,4,3,2,3,4,5,0,1]","action_history":"[1,0,1,1,0,1,0,0,1,1,1,0,1]","mutagen_history":"[1,0,1,1,0,1,0,0,1,1,1,0,1]","location_rts":"[234,316,489,430,66,112,57,57,247,151,95,229,470]","trial_type":"fractal-mutation","trial_index":101,"time_elapsed":1585197,"internal_node_id":"0.0-5.0-47.0"},{"group":"hexagon_bi","fractal_assignment":["../images/ylw_slt.png","../images/org_blu.png","../images/cyn_red.png","../images/pnk_blu.png","../images/gry_blk.png","../images/blu_wht.png"],"mutagen_generator_assignment":[0,1],"goal":5,"start":1,"action_noise":0.15,"location_history":"[1,2,1,0,1,0,1,2,1,0,1,0,5]","action_history":"[0,0,1,1,1,1,1,1,1,1,1,1]","mutagen_history":"[0,0,1,1,1,1,1,1,1,1,1,1]","location_rts":"[101,283,548,286,155,101,183,100,290,260,111,258]","trial_type":"fractal-mutation","trial_index":102,"time_elapsed":1606178,"internal_node_id":"0.0-5.0-48.0"},{"group":"hexagon_bi","fractal_assignment":["../images/ylw_slt.png","../images/org_blu.png","../images/cyn_red.png","../images/pnk_blu.png","../images/gry_blk.png","../images/blu_wht.png"],"mutagen_generator_assignment":[0,1],"goal":3,"start":5,"action_noise":0.15,"location_history":"[5,4,3]","action_history":"[1,0]","mutagen_history":"[1,0]","location_rts":"[190,372]","trial_type":"fractal-mutation","trial_index":103,"time_elapsed":1612812,"internal_node_id":"0.0-5.0-49.0"},{"view_history":"[{\"page_index\":0,\"viewing_time\":2861}]","rt":2864,"trial_type":"instructions","trial_index":104,"time_elapsed":1616679,"internal_node_id":"0.0-6.0"},{"rt":2965,"responses":"{\"Q0\":\"\"}","trial_type":"survey-text","trial_index":105,"time_elapsed":1620698,"internal_node_id":"0.0-7.0"}]