[{"view_history":"[{\"page_index\":0,\"viewing_time\":2961},{\"page_index\":1,\"viewing_time\":11648}]","rt":14610,"trial_type":"instructions","trial_index":0,"time_elapsed":14612,"internal_node_id":"0.0-0.0"},{"view_history":"[{\"page_index\":0,\"viewing_time\":4894},{\"page_index\":1,\"viewing_time\":21282}]","rt":26178,"trial_type":"instructions","trial_index":1,"time_elapsed":41791,"internal_node_id":"0.0-1.0"},{"group":"hexagon_tri","room_assignment":["green","purple","yellow","red","blue","grey"],"door_color_assignment":["white","black"],"door_generator_assignment":[1,0],"goal":3,"start":5,"action_noise":0.15,"location_history":"[5,0,1,3]","action_history":"[1,1,1]","door_history":"[0,0,0]","location_rts":"[3914,489,400]","trial_type":"two-door-navigation","trial_index":2,"time_elapsed":53116,"internal_node_id":"0.0-2.0-0.0"},{"group":"hexagon_tri","room_assignment":["green","purple","yellow","red","blue","grey"],"door_color_assignment":["white","black"],"door_generator_assignment":[1,0],"goal":1,"start":3,"action_noise":0.15,"location_history":"[3,4,2,3,2,1]","action_history":"[1,1,1,0,0]","door_history":"[0,0,0,1,1]","location_rts":"[19398,790,1868,1749,528]","trial_type":"two-door-navigation","trial_index":3,"time_elapsed":85994,"internal_node_id":"0.0-2.0-1.0"},{"group":"hexagon_tri","room_assignment":["green","purple","yellow","red","blue","grey"],"door_color_assignment":["white","black"],"door_generator_assignment":[1,0],"goal":0,"start":1,"action_noise":0.15,"location_history":"[1,3,2,3,4,2,3,4,2,1,5,0]","action_history":"[0,0,0,1,1,1,0,1,1,1,1]","door_history":"[1,1,1,0,0,0,1,0,0,0,0]","location_rts":"[619,273,417,3013,391,341,943,638,724,245,300]","trial_type":"two-door-navigation","trial_index":4,"time_elapsed":108524,"internal_node_id":"0.0-2.0-2.0"},{"group":"hexagon_tri","room_assignment":["green","purple","yellow","red","blue","grey"],"door_color_assignment":["white","black"],"door_generator_assignment":[1,0],"goal":3,"start":0,"action_noise":0.15,"location_history":"[0,1,5,0,5,4,0,1,3]","action_history":"[1,1,1,0,0,0,0,1]","door_history":"[0,0,0,1,1,1,1,0]","location_rts":"[1383,1654,425,434,773,344,279,316]","trial_type":"two-door-navigation","trial_index":5,"time_elapsed":125694,"internal_node_id":"0.0-2.0-3.0"},{"group":"hexagon_tri","room_assignment":["green","purple","yellow","red","blue","grey"],"door_color_assignment":["white","black"],"door_generator_assignment":[1,0],"goal":4,"start":3,"action_noise":0.15,"location_history":"[3,4]","action_history":"[1]","door_history":"[0]","location_rts":"[1684]","trial_type":"two-door-navigation","trial_index":6,"time_elapsed":131890,"internal_node_id":"0.0-2.0-4.0"},{"group":"hexagon_tri","room_assignment":["green","purple","yellow","red","blue","grey"],"door_color_assignment":["white","black"],"door_generator_assignment":[1,0],"goal":2,"start":4,"action_noise":0.15,"location_history":"[4,2]","action_history":"[1]","door_history":"[0]","location_rts":"[944]","trial_type":"two-door-navigation","trial_index":7,"time_elapsed":137338,"internal_node_id":"0.0-2.0-5.0"},{"group":"hexagon_tri","room_assignment":["green","purple","yellow","red","blue","grey"],"door_color_assignment":["white","black"],"door_generator_assignment":[1,0],"goal":1,"start":2,"action_noise":0.15,"location_history":"[2,1]","action_history":"[0]","door_history":"[1]","location_rts":"[536]","trial_type":"two-door-navigation","trial_index":8,"time_elapsed":142389,"internal_node_id":"0.0-2.0-6.0"},{"group":"hexagon_tri","room_assignment":["green","purple","yellow","red","blue","grey"],"door_color_assignment":["white","black"],"door_generator_assignment":[1,0],"goal":5,"start":1,"action_noise":0.15,"location_history":"[1,3,2,1,3,2,3,2,1,3,4,2,1,3,2,3,2,1,3,4,2,3,4,0,1,5]","action_history":"[0,0,0,1,1,1,0,0,0,1,1,0,0,0,1,1,0,0,1,1,1,1,0,1,1]","door_history":"[1,1,1,0,0,0,1,1,1,0,0,1,1,1,0,0,1,1,0,0,0,0,1,0,0]","location_rts":"[1297,1421,708,872,508,1120,467,953,934,2070,1817,1482,400,463,1600,407,970,274,446,513,1351,10598,357,366,743]","trial_type":"two-door-navigation","trial_index":9,"time_elapsed":203209,"internal_node_id":"0.0-2.0-7.0"},{"group":"hexagon_tri","room_assignment":["green","purple","yellow","red","blue","grey"],"door_color_assignment":["white","black"],"door_generator_assignment":[1,0],"goal":4,"start":5,"action_noise":0.15,"location_history":"[5,0,5,4]","action_history":"[1,0,0]","door_history":"[0,1,1]","location_rts":"[1001,3256,1061]","trial_type":"two-door-navigation","trial_index":10,"time_elapsed":215065,"internal_node_id":"0.0-2.0-8.0"},{"group":"hexagon_tri","room_assignment":["green","purple","yellow","red","blue","grey"],"door_color_assignment":["white","black"],"door_generator_assignment":[1,0],"goal":2,"start":4,"action_noise":0.15,"location_history":"[4,2]","action_history":"[1]","door_history":"[0]","location_rts":"[3413]","trial_type":"two-door-navigation","trial_index":11,"time_elapsed":222986,"internal_node_id":"0.0-2.0-9.0"},{"group":"hexagon_tri","room_assignment":["green","purple","yellow","red","blue","grey"],"door_color_assignment":["white","black"],"door_generator_assignment":[1,0],"goal":0,"start":2,"action_noise":0.15,"location_history":"[2,3,2,1,5,4,2,3,4,2,1,3,4,2,1,3,4,2,3,2,1,3,4,0]","action_history":"[1,0,0,1,0,0,1,1,1,0,0,1,1,0,0,1,1,1,0,0,1,1,0]","door_history":"[0,1,1,0,1,1,0,0,0,1,1,0,0,1,1,0,0,0,1,1,0,0,1]","location_rts":"[1981,428,403,805,421,967,597,322,311,1665,346,731,421,1497,643,317,360,32432,1524,2982,533,296,270]","trial_type":"two-door-navigation","trial_index":12,"time_elapsed":299925,"internal_node_id":"0.0-2.0-10.0"},{"group":"hexagon_tri","room_assignment":["green","purple","yellow","red","blue","grey"],"door_color_assignment":["white","black"],"door_generator_assignment":[1,0],"goal":1,"start":0,"action_noise":0.15,"location_history":"[0,5,4,0,5,4,0,1]","action_history":"[0,1,1,0,0,0,1]","door_history":"[1,0,0,1,1,1,0]","location_rts":"[457,1114,377,681,563,368,1082]","trial_type":"two-door-navigation","trial_index":13,"time_elapsed":315088,"internal_node_id":"0.0-2.0-11.0"},{"group":"hexagon_tri","room_assignment":["green","purple","yellow","red","blue","grey"],"door_color_assignment":["white","black"],"door_generator_assignment":[1,0],"goal":3,"start":1,"action_noise":0.15,"location_history":"[1,5,4,2,3]","action_history":"[1,0,1,1]","door_history":"[0,1,0,0]","location_rts":"[602,360,757,392]","trial_type":"two-door-navigation","trial_index":14,"time_elapsed":324719,"internal_node_id":"0.0-2.0-12.0"},{"group":"hexagon_tri","room_assignment":["green","purple","yellow","red","blue","grey"],"door_color_assignment":["white","black"],"door_generator_assignment":[1,0],"goal":5,"start":3,"action_noise":0.15,"location_history":"[3,2,1,5]","action_history":"[1,1,1]","door_history":"[0,0,0]","location_rts":"[782,726,336]","trial_type":"two-door-navigation","trial_index":15,"time_elapsed":333076,"internal_node_id":"0.0-2.0-13.0"},{"group":"hexagon_tri","room_assignment":["green","purple","yellow","red","blue","grey"],"door_color_assignment":["white","black"],"door_generator_assignment":[1,0],"goal":4,"start":5,"action_noise":0.15,"location_history":"[5,0,1,5,4]","action_history":"[1,1,1,0]","door_history":"[0,0,0,1]","location_rts":"[389,783,555,913]","trial_type":"two-door-navigation","trial_index":16,"time_elapsed":343238,"internal_node_id":"0.0-2.0-14.0"},{"group":"hexagon_tri","room_assignment":["green","purple","yellow","red","blue","grey"],"door_color_assignment":["white","black"],"door_generator_assignment":[1,0],"goal":0,"start":4,"action_noise":0.15,"location_history":"[4,2,3,2,3,2,1,3,2,3,4,2,1,5,0]","action_history":"[1,1,1,1,0,0,0,0,1,1,1,0,1,1]","door_history":"[0,0,0,0,1,1,1,1,0,0,0,1,0,0]","location_rts":"[359,439,413,760,1035,623,393,288,747,339,523,1182,531,412]","trial_type":"two-door-navigation","trial_index":17,"time_elapsed":368930,"internal_node_id":"0.0-2.0-15.0"},{"group":"hexagon_tri","room_assignment":["green","purple","yellow","red","blue","grey"],"door_color_assignment":["white","black"],"door_generator_assignment":[1,0],"goal":3,"start":0,"action_noise":0.15,"location_history":"[0,1,5,0,5,0,1,5,4,0,1,5,4,2,3]","action_history":"[1,1,1,0,1,1,1,0,1,1,1,0,1,1]","door_history":"[0,0,0,1,0,0,0,1,0,0,0,1,0,0]","location_rts":"[1925,412,372,776,873,278,365,752,435,338,363,355,289,338]","trial_type":"two-door-navigation","trial_index":18,"time_elapsed":394388,"internal_node_id":"0.0-2.0-16.0"},{"group":"hexagon_tri","room_assignment":["green","purple","yellow","red","blue","grey"],"door_color_assignment":["white","black"],"door_generator_assignment":[1,0],"goal":1,"start":3,"action_noise":0.15,"location_history":"[3,4,2,1]","action_history":"[1,1,1]","door_history":"[0,0,0]","location_rts":"[787,338,313]","trial_type":"two-door-navigation","trial_index":19,"time_elapsed":402337,"internal_node_id":"0.0-2.0-17.0"},{"group":"hexagon_tri","room_assignment":["green","purple","yellow","red","blue","grey"],"door_color_assignment":["white","black"],"door_generator_assignment":[1,0],"goal":5,"start":1,"action_noise":0.15,"location_history":"[1,3,4,2,3,4,2,3,2,1,3,2,3,4,2,3,2,1,5]","action_history":"[1,1,1,1,1,1,1,0,0,0,0,0,0,1,1,0,0,1]","door_history":"[0,0,0,0,0,0,0,1,1,1,1,1,1,0,0,1,1,0]","location_rts":"[288,230,342,334,314,242,272,824,426,332,426,415,402,251,379,1119,418,962]","trial_type":"two-door-navigation","trial_index":20,"time_elapsed":431882,"internal_node_id":"0.0-2.0-18.0"},{"group":"hexagon_tri","room_assignment":["green","purple","yellow","red","blue","grey"],"door_color_assignment":["white","black"],"door_generator_assignment":[1,0],"goal":2,"start":5,"action_noise":0.15,"location_history":"[5,4,2]","action_history":"[1,1]","door_history":"[0,0]","location_rts":"[1201,794]","trial_type":"two-door-navigation","trial_index":21,"time_elapsed":439381,"internal_node_id":"0.0-2.0-19.0"},{"group":"hexagon_tri","room_assignment":["green","purple","yellow","red","blue","grey"],"door_color_assignment":["white","black"],"door_generator_assignment":[1,0],"goal":4,"start":2,"action_noise":0.15,"location_history":"[2,3,4]","action_history":"[1,1]","door_history":"[0,0]","location_rts":"[718,320]","trial_type":"two-door-navigation","trial_index":22,"time_elapsed":445943,"internal_node_id":"0.0-2.0-20.0"},{"group":"hexagon_tri","room_assignment":["green","purple","yellow","red","blue","grey"],"door_color_assignment":["white","black"],"door_generator_assignment":[1,0],"goal":1,"start":4,"action_noise":0.15,"location_history":"[4,2,3,4,2,1]","action_history":"[1,1,1,1,0]","door_history":"[0,0,0,0,1]","location_rts":"[551,265,318,430,247]","trial_type":"two-door-navigation","trial_index":23,"time_elapsed":456295,"internal_node_id":"0.0-2.0-21.0"},{"group":"hexagon_tri","room_assignment":["green","purple","yellow","red","blue","grey"],"door_color_assignment":["white","black"],"door_generator_assignment":[1,0],"goal":3,"start":1,"action_noise":0.15,"location_history":"[1,5,4,2,3]","action_history":"[1,1,1,1]","door_history":"[0,0,0,0]","location_rts":"[487,331,394,476]","trial_type":"two-door-navigation","trial_index":24,"time_elapsed":465504,"internal_node_id":"0.0-2.0-22.0"},{"group":"hexagon_tri","room_assignment":["green","purple","yellow","red","blue","grey"],"door_color_assignment":["white","black"],"door_generator_assignment":[1,0],"goal":2,"start":3,"action_noise":0.15,"location_history":"[3,4,2]","action_history":"[1,1]","door_history":"[0,0]","location_rts":"[559,253]","trial_type":"two-door-navigation","trial_index":25,"time_elapsed":471831,"internal_node_id":"0.0-2.0-23.0"},{"group":"hexagon_tri","room_assignment":["green","purple","yellow","red","blue","grey"],"door_color_assignment":["white","black"],"door_generator_assignment":[1,0],"goal":0,"start":2,"action_noise":0.15,"location_history":"[2,3,4,2,1,5,4,0]","action_history":"[1,1,1,1,0,0,0]","door_history":"[0,0,0,0,1,1,1]","location_rts":"[554,280,540,420,942,493,396]","trial_type":"two-door-navigation","trial_index":26,"time_elapsed":486045,"internal_node_id":"0.0-2.0-24.0"},{"group":"hexagon_tri","room_assignment":["green","purple","yellow","red","blue","grey"],"door_color_assignment":["white","black"],"door_generator_assignment":[1,0],"goal":5,"start":0,"action_noise":0.15,"location_history":"[0,1,5]","action_history":"[1,1]","door_history":"[0,0]","location_rts":"[698,264]","trial_type":"two-door-navigation","trial_index":27,"time_elapsed":492513,"internal_node_id":"0.0-2.0-25.0"},{"group":"hexagon_tri","room_assignment":["green","purple","yellow","red","blue","grey"],"door_color_assignment":["white","black"],"door_generator_assignment":[1,0],"goal":2,"start":5,"action_noise":0.15,"location_history":"[5,0,1,5,4,2]","action_history":"[1,1,1,0,1]","door_history":"[0,0,0,1,0]","location_rts":"[476,277,372,384,352]","trial_type":"two-door-navigation","trial_index":28,"time_elapsed":502964,"internal_node_id":"0.0-2.0-26.0"},{"group":"hexagon_tri","room_assignment":["green","purple","yellow","red","blue","grey"],"door_color_assignment":["white","black"],"door_generator_assignment":[1,0],"goal":3,"start":2,"action_noise":0.15,"location_history":"[2,3]","action_history":"[1]","door_history":"[0]","location_rts":"[582]","trial_type":"two-door-navigation","trial_index":29,"time_elapsed":508085,"internal_node_id":"0.0-2.0-27.0"},{"group":"hexagon_tri","room_assignment":["green","purple","yellow","red","blue","grey"],"door_color_assignment":["white","black"],"door_generator_assignment":[1,0],"goal":0,"start":3,"action_noise":0.15,"location_history":"[3,4,2,3,4,0]","action_history":"[1,1,1,1,0]","door_history":"[0,0,0,0,1]","location_rts":"[1064,495,408,1218,250]","trial_type":"two-door-navigation","trial_index":30,"time_elapsed":520037,"internal_node_id":"0.0-2.0-28.0"},{"group":"hexagon_tri","room_assignment":["green","purple","yellow","red","blue","grey"],"door_color_assignment":["white","black"],"door_generator_assignment":[1,0],"goal":1,"start":0,"action_noise":0.15,"location_history":"[0,5,4,0,1]","action_history":"[0,0,0,1]","door_history":"[1,1,1,0]","location_rts":"[1730,399,583,535]","trial_type":"two-door-navigation","trial_index":31,"time_elapsed":530842,"internal_node_id":"0.0-2.0-29.0"},{"group":"hexagon_tri","room_assignment":["green","purple","yellow","red","blue","grey"],"door_color_assignment":["white","black"],"door_generator_assignment":[1,0],"goal":4,"start":1,"action_noise":0.15,"location_history":"[1,5,0,1,3,4]","action_history":"[1,1,1,0,1]","door_history":"[0,0,0,1,0]","location_rts":"[2530,415,272,337,350]","trial_type":"two-door-navigation","trial_index":32,"time_elapsed":543255,"internal_node_id":"0.0-2.0-30.0"},{"group":"hexagon_tri","room_assignment":["green","purple","yellow","red","blue","grey"],"door_color_assignment":["white","black"],"door_generator_assignment":[1,0],"goal":5,"start":4,"action_noise":0.15,"location_history":"[4,0,1,5]","action_history":"[0,1,1]","door_history":"[1,0,0]","location_rts":"[2210,422,494]","trial_type":"two-door-navigation","trial_index":33,"time_elapsed":552909,"internal_node_id":"0.0-2.0-31.0"},{"group":"hexagon_tri","room_assignment":["green","purple","yellow","red","blue","grey"],"door_color_assignment":["white","black"],"door_generator_assignment":[1,0],"goal":0,"start":5,"action_noise":0.15,"location_history":"[5,0]","action_history":"[1]","door_history":"[0]","location_rts":"[1368]","trial_type":"two-door-navigation","trial_index":34,"time_elapsed":558779,"internal_node_id":"0.0-2.0-32.0"},{"group":"hexagon_tri","room_assignment":["green","purple","yellow","red","blue","grey"],"door_color_assignment":["white","black"],"door_generator_assignment":[1,0],"goal":3,"start":0,"action_noise":0.15,"location_history":"[0,1,3]","action_history":"[1,0]","door_history":"[0,1]","location_rts":"[669,1360]","trial_type":"two-door-navigation","trial_index":35,"time_elapsed":566330,"internal_node_id":"0.0-2.0-33.0"},{"group":"hexagon_tri","room_assignment":["green","purple","yellow","red","blue","grey"],"door_color_assignment":["white","black"],"door_generator_assignment":[1,0],"goal":1,"start":3,"action_noise":0.15,"location_history":"[3,2,3,4,2,3,2,3,2,3,2,1]","action_history":"[0,1,1,1,1,0,1,1,1,0,1]","door_history":"[1,0,0,0,0,1,0,0,0,1,0]","location_rts":"[1283,348,394,451,374,993,336,575,691,815,900]","trial_type":"two-door-navigation","trial_index":36,"time_elapsed":588100,"internal_node_id":"0.0-2.0-34.0"},{"group":"hexagon_tri","room_assignment":["green","purple","yellow","red","blue","grey"],"door_color_assignment":["white","black"],"door_generator_assignment":[1,0],"goal":2,"start":1,"action_noise":0.15,"location_history":"[1,5,0,5,0,1,5,0,1,5,0,1,3,4,0,1,5,0,5,4,2]","action_history":"[1,0,0,1,1,0,1,1,0,1,1,1,1,0,1,1,1,0,0,1]","door_history":"[0,1,1,0,0,1,0,0,1,0,0,0,0,1,0,0,0,1,1,0]","location_rts":"[1609,1662,1173,771,376,499,567,390,1344,403,382,351,989,1021,1001,1430,643,2618,777,521]","trial_type":"two-door-navigation","trial_index":37,"time_elapsed":630230,"internal_node_id":"0.0-2.0-35.0"},{"group":"hexagon_tri","room_assignment":["green","purple","yellow","red","blue","grey"],"door_color_assignment":["white","black"],"door_generator_assignment":[1,0],"goal":4,"start":2,"action_noise":0.15,"location_history":"[2,3,4]","action_history":"[1,1]","door_history":"[0,0]","location_rts":"[877,336]","trial_type":"two-door-navigation","trial_index":38,"time_elapsed":636984,"internal_node_id":"0.0-2.0-36.0"},{"group":"hexagon_tri","room_assignment":["green","purple","yellow","red","blue","grey"],"door_color_assignment":["white","black"],"door_generator_assignment":[1,0],"goal":5,"start":4,"action_noise":0.15,"location_history":"[4,0,5]","action_history":"[0,1]","door_history":"[1,0]","location_rts":"[1523,388]","trial_type":"two-door-navigation","trial_index":39,"time_elapsed":644427,"internal_node_id":"0.0-2.0-37.0"},{"group":"hexagon_tri","room_assignment":["green","purple","yellow","red","blue","grey"],"door_color_assignment":["white","black"],"door_generator_assignment":[1,0],"goal":1,"start":5,"action_noise":0.15,"location_history":"[5,4,2,3,4,2,1]","action_history":"[0,1,1,1,1,0]","door_history":"[1,0,0,0,0,1]","location_rts":"[6654,358,322,375,371,259]","trial_type":"two-door-navigation","trial_index":40,"time_elapsed":662324,"internal_node_id":"0.0-2.0-38.0"},{"group":"hexagon_tri","room_assignment":["green","purple","yellow","red","blue","grey"],"door_color_assignment":["white","black"],"door_generator_assignment":[1,0],"goal":4,"start":1,"action_noise":0.15,"location_history":"[1,3,4]","action_history":"[0,1]","door_history":"[1,0]","location_rts":"[1582,373]","trial_type":"two-door-navigation","trial_index":41,"time_elapsed":669792,"internal_node_id":"0.0-2.0-39.0"},{"group":"hexagon_tri","room_assignment":["green","purple","yellow","red","blue","grey"],"door_color_assignment":["white","black"],"door_generator_assignment":[1,0],"goal":3,"start":4,"action_noise":0.15,"location_history":"[4,2,3]","action_history":"[1,1]","door_history":"[0,0]","location_rts":"[544,1293]","trial_type":"two-door-navigation","trial_index":42,"time_elapsed":677142,"internal_node_id":"0.0-2.0-40.0"},{"group":"hexagon_tri","room_assignment":["green","purple","yellow","red","blue","grey"],"door_color_assignment":["white","black"],"door_generator_assignment":[1,0],"goal":2,"start":3,"action_noise":0.15,"location_history":"[3,4,2]","action_history":"[1,1]","door_history":"[0,0]","location_rts":"[1326,334]","trial_type":"two-door-navigation","trial_index":43,"time_elapsed":684310,"internal_node_id":"0.0-2.0-41.0"},{"group":"hexagon_tri","room_assignment":["green","purple","yellow","red","blue","grey"],"door_color_assignment":["white","black"],"door_generator_assignment":[1,0],"goal":0,"start":2,"action_noise":0.15,"location_history":"[2,3,2,3,2,1,5,0]","action_history":"[1,0,1,0,0,1,1]","door_history":"[0,1,0,1,1,0,0]","location_rts":"[1426,414,543,1004,550,1222,510]","trial_type":"two-door-navigation","trial_index":44,"time_elapsed":700567,"internal_node_id":"0.0-2.0-42.0"},{"group":"hexagon_tri","room_assignment":["green","purple","yellow","red","blue","grey"],"door_color_assignment":["white","black"],"door_generator_assignment":[1,0],"goal":5,"start":0,"action_noise":0.15,"location_history":"[0,1,3,4,2,1,3,4,2,1,3,2,3,4,2,1,3,2,1,5]","action_history":"[1,1,1,1,1,0,0,1,1,0,0,1,1,1,0,0,0,0,1]","door_history":"[0,0,0,0,0,1,1,0,0,1,1,0,0,0,1,1,1,1,0]","location_rts":"[1380,482,514,605,487,496,834,321,2105,924,997,293,355,615,1745,288,758,237,559]","trial_type":"two-door-navigation","trial_index":45,"time_elapsed":737198,"internal_node_id":"0.0-2.0-43.0"},{"group":"hexagon_tri","room_assignment":["green","purple","yellow","red","blue","grey"],"door_color_assignment":["white","black"],"door_generator_assignment":[1,0],"goal":0,"start":5,"action_noise":0.15,"location_history":"[5,0]","action_history":"[1]","door_history":"[0]","location_rts":"[1244]","trial_type":"two-door-navigation","trial_index":46,"time_elapsed":742945,"internal_node_id":"0.0-2.0-44.0"},{"group":"hexagon_tri","room_assignment":["green","purple","yellow","red","blue","grey"],"door_color_assignment":["white","black"],"door_generator_assignment":[1,0],"goal":2,"start":0,"action_noise":0.15,"location_history":"[0,1,5,0,1,5,4,2]","action_history":"[1,1,0,1,1,0,1]","door_history":"[0,0,1,0,0,1,0]","location_rts":"[615,419,956,857,364,382,643]","trial_type":"two-door-navigation","trial_index":47,"time_elapsed":757722,"internal_node_id":"0.0-2.0-45.0"},{"group":"hexagon_tri","room_assignment":["green","purple","yellow","red","blue","grey"],"door_color_assignment":["white","black"],"door_generator_assignment":[1,0],"goal":4,"start":2,"action_noise":0.15,"location_history":"[2,3,4]","action_history":"[1,1]","door_history":"[0,0]","location_rts":"[847,331]","trial_type":"two-door-navigation","trial_index":48,"time_elapsed":764431,"internal_node_id":"0.0-2.0-46.0"},{"group":"hexagon_tri","room_assignment":["green","purple","yellow","red","blue","grey"],"door_color_assignment":["white","black"],"door_generator_assignment":[1,0],"goal":1,"start":4,"action_noise":0.15,"location_history":"[4,2,1]","action_history":"[1,0]","door_history":"[0,1]","location_rts":"[3027,914]","trial_type":"two-door-navigation","trial_index":49,"time_elapsed":773893,"internal_node_id":"0.0-2.0-47.0"},{"group":"hexagon_tri","room_assignment":["green","purple","yellow","red","blue","grey"],"door_color_assignment":["white","black"],"door_generator_assignment":[1,0],"goal":5,"start":1,"action_noise":0.15,"location_history":"[1,5]","action_history":"[0]","door_history":"[1]","location_rts":"[1807]","trial_type":"two-door-navigation","trial_index":50,"time_elapsed":780209,"internal_node_id":"0.0-2.0-48.0"},{"group":"hexagon_tri","room_assignment":["green","purple","yellow","red","blue","grey"],"door_color_assignment":["white","black"],"door_generator_assignment":[1,0],"goal":3,"start":5,"action_noise":0.15,"location_history":"[5,4,2,3]","action_history":"[0,1,1]","door_history":"[1,0,0]","location_rts":"[1746,369,1106]","trial_type":"two-door-navigation","trial_index":51,"time_elapsed":789962,"internal_node_id":"0.0-2.0-49.0"},{"view_history":"[{\"page_index\":0,\"viewing_time\":2133}]","rt":2135,"trial_type":"instructions","trial_index":52,"time_elapsed":793097,"internal_node_id":"0.0-3.0"},{"view_history":"[{\"page_index\":0,\"viewing_time\":1839},{\"page_index\":1,\"viewing_time\":14403}]","rt":16242,"trial_type":"instructions","trial_index":53,"time_elapsed":810339,"internal_node_id":"0.0-4.0"},{"group":"hexagon_tri","fractal_assignment":["../images/blu_wht.png","../images/cyn_red.png","../images/ylw_slt.png","../images/gry_blk.png","../images/org_blu.png","../images/pnk_blu.png"],"mutagen_generator_assignment":[0,1],"goal":3,"start":5,"action_noise":0.15,"location_history":"[5,4,0,1,3]","action_history":"[0,0,0,0]","mutagen_history":"[0,0,0,0]","location_rts":"[1878,62,412,490]","trial_type":"fractal-mutation","trial_index":54,"time_elapsed":821198,"internal_node_id":"0.0-5.0-0.0"},{"group":"hexagon_tri","fractal_assignment":["../images/blu_wht.png","../images/cyn_red.png","../images/ylw_slt.png","../images/gry_blk.png","../images/org_blu.png","../images/pnk_blu.png"],"mutagen_generator_assignment":[0,1],"goal":1,"start":3,"action_noise":0.15,"location_history":"[3,2,1]","action_history":"[0,0]","mutagen_history":"[0,0]","location_rts":"[1186,807]","trial_type":"fractal-mutation","trial_index":55,"time_elapsed":828956,"internal_node_id":"0.0-5.0-1.0"},{"group":"hexagon_tri","fractal_assignment":["../images/blu_wht.png","../images/cyn_red.png","../images/ylw_slt.png","../images/gry_blk.png","../images/org_blu.png","../images/pnk_blu.png"],"mutagen_generator_assignment":[0,1],"goal":0,"start":1,"action_noise":0.15,"location_history":"[1,3,2,1,3,2,1,5,4,0]","action_history":"[0,0,0,0,0,0,1,0,0]","mutagen_history":"[0,0,0,0,0,0,1,0,0]","location_rts":"[799,328,434,355,424,385,467,468,338]","trial_type":"fractal-mutation","trial_index":56,"time_elapsed":846681,"internal_node_id":"0.0-5.0-2.0"},{"group":"hexagon_tri","fractal_assignment":["../images/blu_wht.png","../images/cyn_red.png","../images/ylw_slt.png","../images/gry_blk.png","../images/org_blu.png","../images/pnk_blu.png"],"mutagen_generator_assignment":[0,1],"goal":3,"start":0,"action_noise":0.15,"location_history":"[0,1,5,4,0,1,3]","action_history":"[1,1,0,0,0,0]","mutagen_history":"[1,1,0,0,0,0]","location_rts":"[577,380,418,328,326,357]","trial_type":"fractal-mutation","trial_index":57,"time_elapsed":859471,"internal_node_id":"0.0-5.0-3.0"},{"group":"hexagon_tri","fractal_assignment":["../images/blu_wht.png","../images/cyn_red.png","../images/ylw_slt.png","../images/gry_blk.png","../images/org_blu.png","../images/pnk_blu.png"],"mutagen_generator_assignment":[0,1],"goal":4,"start":3,"action_noise":0.15,"location_history":"[3,4]","action_history":"[1]","mutagen_history":"[1]","location_rts":"[942]","trial_type":"fractal-mutation","trial_index":58,"time_elapsed":865108,"internal_node_id":"0.0-5.0-4.0"},{"group":"hexagon_tri","fractal_assignment":["../images/blu_wht.png","../images/cyn_red.png","../images/ylw_slt.png","../images/gry_blk.png","../images/org_blu.png","../images/pnk_blu.png"],"mutagen_generator_assignment":[0,1],"goal":2,"start":4,"action_noise":0.15,"location_history":"[4,0,1,3,2]","action_history":"[0,0,0,0]","mutagen_history":"[0,0,0,0]","location_rts":"[498,377,341,345]","trial_type":"fractal-mutation","trial_index":59,"time_elapsed":874614,"internal_node_id":"0.0-5.0-5.0"},{"group":"hexagon_tri","fractal_assignment":["../images/blu_wht.png","../images/cyn_red.png","../images/ylw_slt.png","../images/gry_blk.png","../images/org_blu.png","../images/pnk_blu.png"],"mutagen_generator_assignment":[0,1],"goal":1,"start":2,"action_noise":0.15,"location_history":"[2,1]","action_history":"[0]","mutagen_history":"[0]","location_rts":"[987]","trial_type":"fractal-mutation","trial_index":60,"time_elapsed":880214,"internal_node_id":"0.0-5.0-6.0"},{"group":"hexagon_tri","fractal_assignment":["../images/blu_wht.png","../images/cyn_red.png","../images/ylw_slt.png","../images/gry_blk.png","../images/org_blu.png","../images/pnk_blu.png"],"mutagen_generator_assignment":[0,1],"goal":5,"start":1,"action_noise":0.15,"location_history":"[1,5]","action_history":"[1]","mutagen_history":"[1]","location_rts":"[1102]","trial_type":"fractal-mutation","trial_index":61,"time_elapsed":886005,"internal_node_id":"0.0-5.0-7.0"},{"group":"hexagon_tri","fractal_assignment":["../images/blu_wht.png","../images/cyn_red.png","../images/ylw_slt.png","../images/gry_blk.png","../images/org_blu.png","../images/pnk_blu.png"],"mutagen_generator_assignment":[0,1],"goal":4,"start":5,"action_noise":0.15,"location_history":"[5,0,5,0,1,3,4]","action_history":"[1,0,0,0,0,0]","mutagen_history":"[1,0,0,0,0,0]","location_rts":"[1132,488,347,694,389,726]","trial_type":"fractal-mutation","trial_index":62,"time_elapsed":900121,"internal_node_id":"0.0-5.0-8.0"},{"group":"hexagon_tri","fractal_assignment":["../images/blu_wht.png","../images/cyn_red.png","../images/ylw_slt.png","../images/gry_blk.png","../images/org_blu.png","../images/pnk_blu.png"],"mutagen_generator_assignment":[0,1],"goal":2,"start":4,"action_noise":0.15,"location_history":"[4,0,1,5,4,0,5,4,0,5,4,2]","action_history":"[0,0,1,0,0,0,0,0,0,1,1]","mutagen_history":"[0,0,1,0,0,0,0,0,0,1,1]","location_rts":"[944,296,323,328,281,392,364,399,498,515,428]","trial_type":"fractal-mutation","trial_index":63,"time_elapsed":920924,"internal_node_id":"0.0-5.0-9.0"},{"group":"hexagon_tri","fractal_assignment":["../images/blu_wht.png","../images/cyn_red.png","../images/ylw_slt.png","../images/gry_blk.png","../images/org_blu.png","../images/pnk_blu.png"],"mutagen_generator_assignment":[0,1],"goal":0,"start":2,"action_noise":0.15,"location_history":"[2,3,2,1,3,2,1,3,2,1,3,4,0]","action_history":"[1,0,0,0,0,0,1,0,0,0,1,0]","mutagen_history":"[1,0,0,0,0,0,1,0,0,0,1,0]","location_rts":"[496,366,335,255,306,851,302,318,313,570,358,295]","trial_type":"fractal-mutation","trial_index":64,"time_elapsed":942840,"internal_node_id":"0.0-5.0-10.0"},{"group":"hexagon_tri","fractal_assignment":["../images/blu_wht.png","../images/cyn_red.png","../images/ylw_slt.png","../images/gry_blk.png","../images/org_blu.png","../images/pnk_blu.png"],"mutagen_generator_assignment":[0,1],"goal":1,"start":0,"action_noise":0.15,"location_history":"[0,5,4,2,1]","action_history":"[0,0,0,0]","mutagen_history":"[0,0,0,0]","location_rts":"[14681,337,338,413]","trial_type":"fractal-mutation","trial_index":65,"time_elapsed":966588,"internal_node_id":"0.0-5.0-11.0"},{"group":"hexagon_tri","fractal_assignment":["../images/blu_wht.png","../images/cyn_red.png","../images/ylw_slt.png","../images/gry_blk.png","../images/org_blu.png","../images/pnk_blu.png"],"mutagen_generator_assignment":[0,1],"goal":3,"start":1,"action_noise":0.15,"location_history":"[1,5,0,5,0,5,4,0,5,4,0,1,5,4,0,1,3]","action_history":"[1,1,0,1,0,0,0,0,0,0,0,1,0,0,0,0]","mutagen_history":"[1,1,0,1,0,0,0,0,0,0,0,1,0,0,0,0]","location_rts":"[437,320,263,315,295,239,318,349,358,565,518,835,317,331,481,383]","trial_type":"fractal-mutation","trial_index":66,"time_elapsed":994575,"internal_node_id":"0.0-5.0-12.0"},{"group":"hexagon_tri","fractal_assignment":["../images/blu_wht.png","../images/cyn_red.png","../images/ylw_slt.png","../images/gry_blk.png","../images/org_blu.png","../images/pnk_blu.png"],"mutagen_generator_assignment":[0,1],"goal":5,"start":3,"action_noise":0.15,"location_history":"[3,2,3,2,1,3,4,2,1,3,2,3,2,1,5]","action_history":"[0,1,1,1,0,1,1,1,0,0,0,0,0,1]","mutagen_history":"[0,1,1,1,0,1,1,1,0,0,0,0,0,1]","location_rts":"[449,579,403,377,570,559,380,324,323,375,630,335,297,971]","trial_type":"fractal-mutation","trial_index":67,"time_elapsed":1020821,"internal_node_id":"0.0-5.0-13.0"},{"group":"hexagon_tri","fractal_assignment":["../images/blu_wht.png","../images/cyn_red.png","../images/ylw_slt.png","../images/gry_blk.png","../images/org_blu.png","../images/pnk_blu.png"],"mutagen_generator_assignment":[0,1],"goal":4,"start":5,"action_noise":0.15,"location_history":"[5,4]","action_history":"[0]","mutagen_history":"[0]","location_rts":"[892]","trial_type":"fractal-mutation","trial_index":68,"time_elapsed":1026328,"internal_node_id":"0.0-5.0-14.0"},{"group":"hexagon_tri","fractal_assignment":["../images/blu_wht.png","../images/cyn_red.png","../images/ylw_slt.png","../images/gry_blk.png","../images/org_blu.png","../images/pnk_blu.png"],"mutagen_generator_assignment":[0,1],"goal":0,"start":4,"action_noise":0.15,"location_history":"[4,0]","action_history":"[0]","mutagen_history":"[0]","location_rts":"[958]","trial_type":"fractal-mutation","trial_index":69,"time_elapsed":1031891,"internal_node_id":"0.0-5.0-15.0"},{"group":"hexagon_tri","fractal_assignment":["../images/blu_wht.png","../images/cyn_red.png","../images/ylw_slt.png","../images/gry_blk.png","../images/org_blu.png","../images/pnk_blu.png"],"mutagen_generator_assignment":[0,1],"goal":3,"start":0,"action_noise":0.15,"location_history":"[0,5,4,2,1,3]","action_history":"[0,0,0,0,0]","mutagen_history":"[0,0,0,0,0]","location_rts":"[1155,344,301,310,439]","trial_type":"fractal-mutation","trial_index":70,"time_elapsed":1043520,"internal_node_id":"0.0-5.0-16.0"},{"group":"hexagon_tri","fractal_assignment":["../images/blu_wht.png","../images/cyn_red.png","../images/ylw_slt.png","../images/gry_blk.png","../images/org_blu.png","../images/pnk_blu.png"],"mutagen_generator_assignment":[0,1],"goal":1,"start":3,"action_noise":0.15,"location_history":"[3,4,0,5,4,0,5,4,2,1]","action_history":"[1,0,0,0,0,0,1,1,0]","mutagen_history":"[1,0,0,0,0,0,1,1,0]","location_rts":"[1718,262,333,387,336,552,467,647,260]","trial_type":"fractal-mutation","trial_index":71,"time_elapsed":1062294,"internal_node_id":"0.0-5.0-17.0"},{"group":"hexagon_tri","fractal_assignment":["../images/blu_wht.png","../images/cyn_red.png","../images/ylw_slt.png","../images/gry_blk.png","../images/org_blu.png","../images/pnk_blu.png"],"mutagen_generator_assignment":[0,1],"goal":5,"start":1,"action_noise":0.15,"location_history":"[1,3,2,1,5]","action_history":"[0,0,0,1]","mutagen_history":"[0,0,0,1]","location_rts":"[434,297,619,1165]","trial_type":"fractal-mutation","trial_index":72,"time_elapsed":1072865,"internal_node_id":"0.0-5.0-18.0"},{"group":"hexagon_tri","fractal_assignment":["../images/blu_wht.png","../images/cyn_red.png","../images/ylw_slt.png","../images/gry_blk.png","../images/org_blu.png","../images/pnk_blu.png"],"mutagen_generator_assignment":[0,1],"goal":2,"start":5,"action_noise":0.15,"location_history":"[5,4,0,5,4,2]","action_history":"[0,0,0,0,1]","mutagen_history":"[0,0,0,0,1]","location_rts":"[4019,1418,808,845,390]","trial_type":"fractal-mutation","trial_index":73,"time_elapsed":1089583,"internal_node_id":"0.0-5.0-19.0"},{"group":"hexagon_tri","fractal_assignment":["../images/blu_wht.png","../images/cyn_red.png","../images/ylw_slt.png","../images/gry_blk.png","../images/org_blu.png","../images/pnk_blu.png"],"mutagen_generator_assignment":[0,1],"goal":4,"start":2,"action_noise":0.15,"location_history":"[2,1,3,2,1,3,4]","action_history":"[0,0,1,0,0,1]","mutagen_history":"[0,0,1,0,0,1]","location_rts":"[2615,499,1349,5435,745,323]","trial_type":"fractal-mutation","trial_index":74,"time_elapsed":1110871,"internal_node_id":"0.0-5.0-20.0"},{"group":"hexagon_tri","fractal_assignment":["../images/blu_wht.png","../images/cyn_red.png","../images/ylw_slt.png","../images/gry_blk.png","../images/org_blu.png","../images/pnk_blu.png"],"mutagen_generator_assignment":[0,1],"goal":1,"start":4,"action_noise":0.15,"location_history":"[4,2,1]","action_history":"[1,0]","mutagen_history":"[1,0]","location_rts":"[824,1918]","trial_type":"fractal-mutation","trial_index":75,"time_elapsed":1119445,"internal_node_id":"0.0-5.0-21.0"},{"group":"hexagon_tri","fractal_assignment":["../images/blu_wht.png","../images/cyn_red.png","../images/ylw_slt.png","../images/gry_blk.png","../images/org_blu.png","../images/pnk_blu.png"],"mutagen_generator_assignment":[0,1],"goal":3,"start":1,"action_noise":0.15,"location_history":"[1,5,4,0,5,4,0,1,5,4,2,3]","action_history":"[0,0,0,0,0,0,1,1,1,1,1]","mutagen_history":"[0,0,0,0,0,0,1,1,1,1,1]","location_rts":"[976,361,1081,2118,1508,2027,793,950,452,1764,719]","trial_type":"fractal-mutation","trial_index":76,"time_elapsed":1148404,"internal_node_id":"0.0-5.0-22.0"},{"group":"hexagon_tri","fractal_assignment":["../images/blu_wht.png","../images/cyn_red.png","../images/ylw_slt.png","../images/gry_blk.png","../images/org_blu.png","../images/pnk_blu.png"],"mutagen_generator_assignment":[0,1],"goal":2,"start":3,"action_noise":0.15,"location_history":"[3,2]","action_history":"[0]","mutagen_history":"[0]","location_rts":"[1035]","trial_type":"fractal-mutation","trial_index":77,"time_elapsed":1154049,"internal_node_id":"0.0-5.0-23.0"},{"group":"hexagon_tri","fractal_assignment":["../images/blu_wht.png","../images/cyn_red.png","../images/ylw_slt.png","../images/gry_blk.png","../images/org_blu.png","../images/pnk_blu.png"],"mutagen_generator_assignment":[0,1],"goal":0,"start":2,"action_noise":0.15,"location_history":"[2,1,3,2,1,3,4,2,3,4,2,3,2,1,3,2,3,2,3,2,3,2,1,3,4,2,3,4,2,1,3,2,1,3,2,1,5,0]","action_history":"[0,0,0,0,0,1,1,1,1,0,0,0,0,0,0,1,0,0,0,1,0,0,0,1,1,1,1,0,0,0,0,1,0,0,0,0,1]","mutagen_history":"[0,0,0,0,0,1,1,1,1,0,0,0,0,0,0,1,0,0,0,1,0,0,0,1,1,1,1,0,0,0,0,1,0,0,0,0,1]","location_rts":"[2351,912,1169,936,6267,875,1387,2247,728,382,34911,1528,1094,350,391,392,569,333,325,374,279,367,362,579,247,624,461,353,436,302,463,440,260,433,747,304,275]","trial_type":"fractal-mutation","trial_index":78,"time_elapsed":1264301,"internal_node_id":"0.0-5.0-24.0"},{"group":"hexagon_tri","fractal_assignment":["../images/blu_wht.png","../images/cyn_red.png","../images/ylw_slt.png","../images/gry_blk.png","../images/org_blu.png","../images/pnk_blu.png"],"mutagen_generator_assignment":[0,1],"goal":5,"start":0,"action_noise":0.15,"location_history":"[0,1,3,4,0,1,5]","action_history":"[1,0,0,0,1,1]","mutagen_history":"[1,0,0,0,1,1]","location_rts":"[1195,482,358,305,1606,308]","trial_type":"fractal-mutation","trial_index":79,"time_elapsed":1279010,"internal_node_id":"0.0-5.0-25.0"},{"group":"hexagon_tri","fractal_assignment":["../images/blu_wht.png","../images/cyn_red.png","../images/ylw_slt.png","../images/gry_blk.png","../images/org_blu.png","../images/pnk_blu.png"],"mutagen_generator_assignment":[0,1],"goal":2,"start":5,"action_noise":0.15,"location_history":"[5,0,1,3,2]","action_history":"[0,1,0,0]","mutagen_history":"[0,1,0,0]","location_rts":"[1015,347,271,1472]","trial_type":"fractal-mutation","trial_index":80,"time_elapsed":1290139,"internal_node_id":"0.0-5.0-26.0"},{"group":"hexagon_tri","fractal_assignment":["../images/blu_wht.png","../images/cyn_red.png","../images/ylw_slt.png","../images/gry_blk.png","../images/org_blu.png","../images/pnk_blu.png"],"mutagen_generator_assignment":[0,1],"goal":3,"start":2,"action_noise":0.15,"location_history":"[2,1,3]","action_history":"[0,0]","mutagen_history":"[0,0]","location_rts":"[596,488]","trial_type":"fractal-mutation","trial_index":81,"time_elapsed":1296958,"internal_node_id":"0.0-5.0-27.0"},{"group":"hexagon_tri","fractal_assignment":["../images/blu_wht.png","../images/cyn_red.png","../images/ylw_slt.png","../images/gry_blk.png","../images/org_blu.png","../images/pnk_blu.png"],"mutagen_generator_assignment":[0,1],"goal":0,"start":3,"action_noise":0.15,"location_history":"[3,2,3,2,1,5,0]","action_history":"[0,0,1,0,0,1]","mutagen_history":"[0,0,1,0,0,1]","location_rts":"[725,606,1017,336,2528,1192]","trial_type":"fractal-mutation","trial_index":82,"time_elapsed":1313734,"internal_node_id":"0.0-5.0-28.0"},{"group":"hexagon_tri","fractal_assignment":["../images/blu_wht.png","../images/cyn_red.png","../images/ylw_slt.png","../images/gry_blk.png","../images/org_blu.png","../images/pnk_blu.png"],"mutagen_generator_assignment":[0,1],"goal":1,"start":0,"action_noise":0.15,"location_history":"[0,5,4,0,1]","action_history":"[0,0,0,1]","mutagen_history":"[0,0,0,1]","location_rts":"[406,322,314,464]","trial_type":"fractal-mutation","trial_index":83,"time_elapsed":1323322,"internal_node_id":"0.0-5.0-29.0"},{"group":"hexagon_tri","fractal_assignment":["../images/blu_wht.png","../images/cyn_red.png","../images/ylw_slt.png","../images/gry_blk.png","../images/org_blu.png","../images/pnk_blu.png"],"mutagen_generator_assignment":[0,1],"goal":4,"start":1,"action_noise":0.15,"location_history":"[1,3,2,3,2,1,5,4]","action_history":"[0,0,1,0,0,1,0]","mutagen_history":"[0,0,1,0,0,1,0]","location_rts":"[1457,411,439,490,331,405,424]","trial_type":"fractal-mutation","trial_index":84,"time_elapsed":1338826,"internal_node_id":"0.0-5.0-30.0"},{"group":"hexagon_tri","fractal_assignment":["../images/blu_wht.png","../images/cyn_red.png","../images/ylw_slt.png","../images/gry_blk.png","../images/org_blu.png","../images/pnk_blu.png"],"mutagen_generator_assignment":[0,1],"goal":5,"start":4,"action_noise":0.15,"location_history":"[4,0,5]","action_history":"[1,0]","mutagen_history":"[1,0]","location_rts":"[1579,617]","trial_type":"fractal-mutation","trial_index":85,"time_elapsed":1346829,"internal_node_id":"0.0-5.0-31.0"},{"group":"hexagon_tri","fractal_assignment":["../images/blu_wht.png","../images/cyn_red.png","../images/ylw_slt.png","../images/gry_blk.png","../images/org_blu.png","../images/pnk_blu.png"],"mutagen_generator_assignment":[0,1],"goal":0,"start":5,"action_noise":0.15,"location_history":"[5,0]","action_history":"[1]","mutagen_history":"[1]","location_rts":"[764]","trial_type":"fractal-mutation","trial_index":86,"time_elapsed":1352317,"internal_node_id":"0.0-5.0-32.0"},{"group":"hexagon_tri","fractal_assignment":["../images/blu_wht.png","../images/cyn_red.png","../images/ylw_slt.png","../images/gry_blk.png","../images/org_blu.png","../images/pnk_blu.png"],"mutagen_generator_assignment":[0,1],"goal":3,"start":0,"action_noise":0.15,"location_history":"[0,5,4,0,1,3]","action_history":"[0,0,0,1,0]","mutagen_history":"[0,0,0,1,0]","location_rts":"[343,516,1211,2853,315]","trial_type":"fractal-mutation","trial_index":87,"time_elapsed":1366784,"internal_node_id":"0.0-5.0-33.0"},{"group":"hexagon_tri","fractal_assignment":["../images/blu_wht.png","../images/cyn_red.png","../images/ylw_slt.png","../images/gry_blk.png","../images/org_blu.png","../images/pnk_blu.png"],"mutagen_generator_assignment":[0,1],"goal":1,"start":3,"action_noise":0.15,"location_history":"[3,2,3,4,0,5,4,0,5,0,5,4,2,1]","action_history":"[0,0,1,0,0,0,0,0,1,0,0,1,0]","mutagen_history":"[0,0,1,0,0,0,0,0,1,0,0,1,0]","location_rts":"[438,405,409,327,1217,1065,420,1020,2563,324,387,3029,503]","trial_type":"fractal-mutation","trial_index":88,"time_elapsed":1397109,"internal_node_id":"0.0-5.0-34.0"},{"group":"hexagon_tri","fractal_assignment":["../images/blu_wht.png","../images/cyn_red.png","../images/ylw_slt.png","../images/gry_blk.png","../images/org_blu.png","../images/pnk_blu.png"],"mutagen_generator_assignment":[0,1],"goal":2,"start":1,"action_noise":0.15,"location_history":"[1,3,4,2]","action_history":"[0,1,1]","mutagen_history":"[0,1,1]","location_rts":"[461,2058,440]","trial_type":"fractal-mutation","trial_index":89,"time_elapsed":1407082,"internal_node_id":"0.0-5.0-35.0"},{"group":"hexagon_tri","fractal_assignment":["../images/blu_wht.png","../images/cyn_red.png","../images/ylw_slt.png","../images/gry_blk.png","../images/org_blu.png","../images/pnk_blu.png"],"mutagen_generator_assignment":[0,1],"goal":4,"start":2,"action_noise":0.15,"location_history":"[2,1,3,4]","action_history":"[0,0,1]","mutagen_history":"[0,0,1]","location_rts":"[806,4252,1022]","trial_type":"fractal-mutation","trial_index":90,"time_elapsed":1420086,"internal_node_id":"0.0-5.0-36.0"},{"group":"hexagon_tri","fractal_assignment":["../images/blu_wht.png","../images/cyn_red.png","../images/ylw_slt.png","../images/gry_blk.png","../images/org_blu.png","../images/pnk_blu.png"],"mutagen_generator_assignment":[0,1],"goal":5,"start":4,"action_noise":0.15,"location_history":"[4,0,1,3,2,1,3,4,0,5]","action_history":"[0,1,0,0,0,0,1,0,0]","mutagen_history":"[0,1,0,0,0,0,1,0,0]","location_rts":"[672,1181,380,929,413,363,317,240,356]","trial_type":"fractal-mutation","trial_index":91,"time_elapsed":1438625,"internal_node_id":"0.0-5.0-37.0"},{"group":"hexagon_tri","fractal_assignment":["../images/blu_wht.png","../images/cyn_red.png","../images/ylw_slt.png","../images/gry_blk.png","../images/org_blu.png","../images/pnk_blu.png"],"mutagen_generator_assignment":[0,1],"goal":1,"start":5,"action_noise":0.15,"location_history":"[5,4,0,5,0,5,4,0,1]","action_history":"[0,0,0,1,0,0,0,1]","mutagen_history":"[0,0,0,1,0,0,0,1]","location_rts":"[490,928,290,297,323,346,406,249]","trial_type":"fractal-mutation","trial_index":92,"time_elapsed":1454569,"internal_node_id":"0.0-5.0-38.0"},{"group":"hexagon_tri","fractal_assignment":["../images/blu_wht.png","../images/cyn_red.png","../images/ylw_slt.png","../images/gry_blk.png","../images/org_blu.png","../images/pnk_blu.png"],"mutagen_generator_assignment":[0,1],"goal":4,"start":1,"action_noise":0.15,"location_history":"[1,5,4]","action_history":"[0,0]","mutagen_history":"[0,0]","location_rts":"[385,668]","trial_type":"fractal-mutation","trial_index":93,"time_elapsed":1461370,"internal_node_id":"0.0-5.0-39.0"},{"group":"hexagon_tri","fractal_assignment":["../images/blu_wht.png","../images/cyn_red.png","../images/ylw_slt.png","../images/gry_blk.png","../images/org_blu.png","../images/pnk_blu.png"],"mutagen_generator_assignment":[0,1],"goal":3,"start":4,"action_noise":0.15,"location_history":"[4,2,3]","action_history":"[1,1]","mutagen_history":"[1,1]","location_rts":"[2134,933]","trial_type":"fractal-mutation","trial_index":94,"time_elapsed":1470327,"internal_node_id":"0.0-5.0-40.0"},{"group":"hexagon_tri","fractal_assignment":["../images/blu_wht.png","../images/cyn_red.png","../images/ylw_slt.png","../images/gry_blk.png","../images/org_blu.png","../images/pnk_blu.png"],"mutagen_generator_assignment":[0,1],"goal":2,"start":3,"action_noise":0.15,"location_history":"[3,4,2]","action_history":"[1,1]","mutagen_history":"[1,1]","location_rts":"[616,510]","trial_type":"fractal-mutation","trial_index":95,"time_elapsed":1477351,"internal_node_id":"0.0-5.0-41.0"},{"group":"hexagon_tri","fractal_assignment":["../images/blu_wht.png","../images/cyn_red.png","../images/ylw_slt.png","../images/gry_blk.png","../images/org_blu.png","../images/pnk_blu.png"],"mutagen_generator_assignment":[0,1],"goal":0,"start":2,"action_noise":0.15,"location_history":"[2,3,4,0]","action_history":"[1,1,0]","mutagen_history":"[1,1,0]","location_rts":"[16670,494,1178]","trial_type":"fractal-mutation","trial_index":96,"time_elapsed":1502708,"internal_node_id":"0.0-5.0-42.0"},{"group":"hexagon_tri","fractal_assignment":["../images/blu_wht.png","../images/cyn_red.png","../images/ylw_slt.png","../images/gry_blk.png","../images/org_blu.png","../images/pnk_blu.png"],"mutagen_generator_assignment":[0,1],"goal":5,"start":0,"action_noise":0.15,"location_history":"[0,5]","action_history":"[0]","mutagen_history":"[0]","location_rts":"[2000]","trial_type":"fractal-mutation","trial_index":97,"time_elapsed":1509330,"internal_node_id":"0.0-5.0-43.0"},{"group":"hexagon_tri","fractal_assignment":["../images/blu_wht.png","../images/cyn_red.png","../images/ylw_slt.png","../images/gry_blk.png","../images/org_blu.png","../images/pnk_blu.png"],"mutagen_generator_assignment":[0,1],"goal":0,"start":5,"action_noise":0.15,"location_history":"[5,0]","action_history":"[1]","mutagen_history":"[1]","location_rts":"[395]","trial_type":"fractal-mutation","trial_index":98,"time_elapsed":1514415,"internal_node_id":"0.0-5.0-44.0"},{"group":"hexagon_tri","fractal_assignment":["../images/blu_wht.png","../images/cyn_red.png","../images/ylw_slt.png","../images/gry_blk.png","../images/org_blu.png","../images/pnk_blu.png"],"mutagen_generator_assignment":[0,1],"goal":2,"start":0,"action_noise":0.15,"location_history":"[0,5,4,2]","action_history":"[1,1,1]","mutagen_history":"[1,1,1]","location_rts":"[458,336,361]","trial_type":"fractal-mutation","trial_index":99,"time_elapsed":1522693,"internal_node_id":"0.0-5.0-45.0"},{"group":"hexagon_tri","fractal_assignment":["../images/blu_wht.png","../images/cyn_red.png","../images/ylw_slt.png","../images/gry_blk.png","../images/org_blu.png","../images/pnk_blu.png"],"mutagen_generator_assignment":[0,1],"goal":4,"start":2,"action_noise":0.15,"location_history":"[2,1,5,4]","action_history":"[0,1,0]","mutagen_history":"[0,1,0]","location_rts":"[462,499,440]","trial_type":"fractal-mutation","trial_index":100,"time_elapsed":1531048,"internal_node_id":"0.0-5.0-46.0"},{"group":"hexagon_tri","fractal_assignment":["../images/blu_wht.png","../images/cyn_red.png","../images/ylw_slt.png","../images/gry_blk.png","../images/org_blu.png","../images/pnk_blu.png"],"mutagen_generator_assignment":[0,1],"goal":1,"start":4,"action_noise":0.15,"location_history":"[4,2,3,2,1]","action_history":"[1,1,0,0]","mutagen_history":"[1,1,0,0]","location_rts":"[354,318,345,320]","trial_type":"fractal-mutation","trial_index":101,"time_elapsed":1540513,"internal_node_id":"0.0-5.0-47.0"},{"group":"hexagon_tri","fractal_assignment":["../images/blu_wht.png","../images/cyn_red.png","../images/ylw_slt.png","../images/gry_blk.png","../images/org_blu.png","../images/pnk_blu.png"],"mutagen_generator_assignment":[0,1],"goal":5,"start":1,"action_noise":0.15,"location_history":"[1,3,2,1,3,4,2,3,4,0,1,5]","action_history":"[0,0,0,1,0,1,0,1,1,1,1]","mutagen_history":"[0,0,0,1,0,1,0,1,1,1,1]","location_rts":"[399,464,347,234,505,432,466,437,270,376,296]","trial_type":"fractal-mutation","trial_index":102,"time_elapsed":1561085,"internal_node_id":"0.0-5.0-48.0"},{"group":"hexagon_tri","fractal_assignment":["../images/blu_wht.png","../images/cyn_red.png","../images/ylw_slt.png","../images/gry_blk.png","../images/org_blu.png","../images/pnk_blu.png"],"mutagen_generator_assignment":[0,1],"goal":3,"start":5,"action_noise":0.15,"location_history":"[5,4,2,3]","action_history":"[0,1,1]","mutagen_history":"[0,1,1]","location_rts":"[452,386,299]","trial_type":"fractal-mutation","trial_index":103,"time_elapsed":1569226,"internal_node_id":"0.0-5.0-49.0"},{"view_history":"[{\"page_index\":0,\"viewing_time\":5035}]","rt":5037,"trial_type":"instructions","trial_index":104,"time_elapsed":1575264,"internal_node_id":"0.0-6.0"},{"rt":2378,"responses":"{\"Q0\":\"\"}","trial_type":"survey-text","trial_index":105,"time_elapsed":1578654,"internal_node_id":"0.0-7.0"}]