[{"view_history":"[{\"page_index\":0,\"viewing_time\":3025},{\"page_index\":1,\"viewing_time\":20176}]","rt":23202,"trial_type":"instructions","trial_index":0,"time_elapsed":23204,"internal_node_id":"0.0-0.0"},{"view_history":"[{\"page_index\":0,\"viewing_time\":6356},{\"page_index\":1,\"viewing_time\":23891}]","rt":30248,"trial_type":"instructions","trial_index":1,"time_elapsed":54453,"internal_node_id":"0.0-1.0"},{"group":"hexagon_tri","room_assignment":["blue","purple","green","grey","yellow","red"],"door_color_assignment":["white","black"],"door_generator_assignment":[0,1],"goal":3,"start":5,"action_noise":0.15,"location_history":"[5,4,0,5,4,2,3]","action_history":"[0,0,0,0,1,1]","door_history":"[0,0,0,0,1,1]","location_rts":"[3114,5158,1723,1496,1097,1739]","trial_type":"two-door-navigation","trial_index":2,"time_elapsed":78702,"internal_node_id":"0.0-2.0-0.0"},{"group":"hexagon_tri","room_assignment":["blue","purple","green","grey","yellow","red"],"door_color_assignment":["white","black"],"door_generator_assignment":[0,1],"goal":1,"start":3,"action_noise":0.15,"location_history":"[3,4,0,1]","action_history":"[1,0,1]","door_history":"[1,0,1]","location_rts":"[2140,1533,942]","trial_type":"two-door-navigation","trial_index":3,"time_elapsed":90008,"internal_node_id":"0.0-2.0-1.0"},{"group":"hexagon_tri","room_assignment":["blue","purple","green","grey","yellow","red"],"door_color_assignment":["white","black"],"door_generator_assignment":[0,1],"goal":0,"start":1,"action_noise":0.15,"location_history":"[1,3,2,3,2,1,5,0]","action_history":"[0,1,1,0,0,1,1]","door_history":"[0,1,1,0,0,1,1]","location_rts":"[1873,1150,1003,927,490,985,720]","trial_type":"two-door-navigation","trial_index":4,"time_elapsed":108111,"internal_node_id":"0.0-2.0-2.0"},{"group":"hexagon_tri","room_assignment":["blue","purple","green","grey","yellow","red"],"door_color_assignment":["white","black"],"door_generator_assignment":[0,1],"goal":3,"start":0,"action_noise":0.15,"location_history":"[0,5,4,0,5,4,0,1,5,0,1,5,0,5,0,5,4,0,5,4,2,3]","action_history":"[0,0,0,0,0,0,1,1,0,1,1,0,0,1,1,0,0,0,1,1,1]","door_history":"[0,0,0,0,0,0,1,1,0,1,1,0,0,1,1,0,0,0,1,1,1]","location_rts":"[1518,892,687,644,480,519,739,1476,545,715,534,314,635,608,504,470,1584,1605,472,515,482]","trial_type":"two-door-navigation","trial_index":5,"time_elapsed":149907,"internal_node_id":"0.0-2.0-3.0"},{"group":"hexagon_tri","room_assignment":["blue","purple","green","grey","yellow","red"],"door_color_assignment":["white","black"],"door_generator_assignment":[0,1],"goal":4,"start":3,"action_noise":0.15,"location_history":"[3,4]","action_history":"[0]","door_history":"[0]","location_rts":"[653]","trial_type":"two-door-navigation","trial_index":6,"time_elapsed":155130,"internal_node_id":"0.0-2.0-4.0"},{"group":"hexagon_tri","room_assignment":["blue","purple","green","grey","yellow","red"],"door_color_assignment":["white","black"],"door_generator_assignment":[0,1],"goal":2,"start":4,"action_noise":0.15,"location_history":"[4,2]","action_history":"[1]","door_history":"[1]","location_rts":"[1222]","trial_type":"two-door-navigation","trial_index":7,"time_elapsed":160946,"internal_node_id":"0.0-2.0-5.0"},{"group":"hexagon_tri","room_assignment":["blue","purple","green","grey","yellow","red"],"door_color_assignment":["white","black"],"door_generator_assignment":[0,1],"goal":1,"start":2,"action_noise":0.15,"location_history":"[2,1]","action_history":"[0]","door_history":"[0]","location_rts":"[2378]","trial_type":"two-door-navigation","trial_index":8,"time_elapsed":167899,"internal_node_id":"0.0-2.0-6.0"},{"group":"hexagon_tri","room_assignment":["blue","purple","green","grey","yellow","red"],"door_color_assignment":["white","black"],"door_generator_assignment":[0,1],"goal":5,"start":1,"action_noise":0.15,"location_history":"[1,3,2,3,4,0,1,5]","action_history":"[0,0,1,1,0,1,1]","door_history":"[0,0,1,1,0,1,1]","location_rts":"[1093,1727,807,682,1230,1068,791]","trial_type":"two-door-navigation","trial_index":9,"time_elapsed":186237,"internal_node_id":"0.0-2.0-7.0"},{"group":"hexagon_tri","room_assignment":["blue","purple","green","grey","yellow","red"],"door_color_assignment":["white","black"],"door_generator_assignment":[0,1],"goal":4,"start":5,"action_noise":0.15,"location_history":"[5,4]","action_history":"[0]","door_history":"[0]","location_rts":"[1408]","trial_type":"two-door-navigation","trial_index":10,"time_elapsed":192200,"internal_node_id":"0.0-2.0-8.0"},{"group":"hexagon_tri","room_assignment":["blue","purple","green","grey","yellow","red"],"door_color_assignment":["white","black"],"door_generator_assignment":[0,1],"goal":2,"start":4,"action_noise":0.15,"location_history":"[4,0,1,5,0,5,0,5,4,2]","action_history":"[0,1,1,1,0,1,1,0,0]","door_history":"[0,1,1,1,0,1,1,0,0]","location_rts":"[3457,1147,563,1220,6021,1556,2276,1350,817]","trial_type":"two-door-navigation","trial_index":11,"time_elapsed":223711,"internal_node_id":"0.0-2.0-9.0"},{"group":"hexagon_tri","room_assignment":["blue","purple","green","grey","yellow","red"],"door_color_assignment":["white","black"],"door_generator_assignment":[0,1],"goal":0,"start":2,"action_noise":0.15,"location_history":"[2,3,2,3,4,2,1,5,4,2,3,4,2,3,2,1,3,2,1,3,4,0]","action_history":"[1,0,1,1,1,0,1,0,0,1,1,1,1,0,0,0,0,0,1,1,0]","door_history":"[1,0,1,1,1,0,1,0,0,1,1,1,1,0,0,0,0,0,1,1,0]","location_rts":"[1371,938,643,373,676,636,368,991,620,690,384,369,457,677,1267,1223,968,671,1060,1952,642]","trial_type":"two-door-navigation","trial_index":12,"time_elapsed":266514,"internal_node_id":"0.0-2.0-10.0"},{"group":"hexagon_tri","room_assignment":["blue","purple","green","grey","yellow","red"],"door_color_assignment":["white","black"],"door_generator_assignment":[0,1],"goal":1,"start":0,"action_noise":0.15,"location_history":"[0,5,4,2,3,4,0,5,4,2,1]","action_history":"[0,0,1,1,1,1,0,1,1,0]","door_history":"[0,0,1,1,1,1,0,1,1,0]","location_rts":"[1010,1082,573,524,551,496,855,1116,934,591]","trial_type":"two-door-navigation","trial_index":13,"time_elapsed":288415,"internal_node_id":"0.0-2.0-11.0"},{"group":"hexagon_tri","room_assignment":["blue","purple","green","grey","yellow","red"],"door_color_assignment":["white","black"],"door_generator_assignment":[0,1],"goal":3,"start":1,"action_noise":0.15,"location_history":"[1,3]","action_history":"[0]","door_history":"[0]","location_rts":"[1542]","trial_type":"two-door-navigation","trial_index":14,"time_elapsed":294544,"internal_node_id":"0.0-2.0-12.0"},{"group":"hexagon_tri","room_assignment":["blue","purple","green","grey","yellow","red"],"door_color_assignment":["white","black"],"door_generator_assignment":[0,1],"goal":5,"start":3,"action_noise":0.15,"location_history":"[3,4,2,3,2,1,5]","action_history":"[0,1,1,0,0,1]","door_history":"[0,1,1,0,0,1]","location_rts":"[988,1077,494,1322,431,386]","trial_type":"two-door-navigation","trial_index":15,"time_elapsed":309102,"internal_node_id":"0.0-2.0-13.0"},{"group":"hexagon_tri","room_assignment":["blue","purple","green","grey","yellow","red"],"door_color_assignment":["white","black"],"door_generator_assignment":[0,1],"goal":4,"start":5,"action_noise":0.15,"location_history":"[5,4]","action_history":"[0]","door_history":"[0]","location_rts":"[429]","trial_type":"two-door-navigation","trial_index":16,"time_elapsed":314099,"internal_node_id":"0.0-2.0-14.0"},{"group":"hexagon_tri","room_assignment":["blue","purple","green","grey","yellow","red"],"door_color_assignment":["white","black"],"door_generator_assignment":[0,1],"goal":0,"start":4,"action_noise":0.15,"location_history":"[4,0]","action_history":"[1]","door_history":"[1]","location_rts":"[665]","trial_type":"two-door-navigation","trial_index":17,"time_elapsed":319339,"internal_node_id":"0.0-2.0-15.0"},{"group":"hexagon_tri","room_assignment":["blue","purple","green","grey","yellow","red"],"door_color_assignment":["white","black"],"door_generator_assignment":[0,1],"goal":3,"start":0,"action_noise":0.15,"location_history":"[0,5,4,2,1,5,4,0,1,5,4,0,5,0,1,3]","action_history":"[0,0,1,1,1,1,1,0,1,0,0,0,1,1,0]","door_history":"[0,0,1,1,1,1,1,0,1,0,0,0,1,1,0]","location_rts":"[388,1218,540,444,2671,580,549,395,470,721,403,571,327,585,561]","trial_type":"two-door-navigation","trial_index":18,"time_elapsed":349239,"internal_node_id":"0.0-2.0-16.0"},{"group":"hexagon_tri","room_assignment":["blue","purple","green","grey","yellow","red"],"door_color_assignment":["white","black"],"door_generator_assignment":[0,1],"goal":1,"start":3,"action_noise":0.15,"location_history":"[3,2,3,2,1]","action_history":"[0,1,0,0]","door_history":"[0,1,0,0]","location_rts":"[571,1891,1310,500]","trial_type":"two-door-navigation","trial_index":19,"time_elapsed":361302,"internal_node_id":"0.0-2.0-17.0"},{"group":"hexagon_tri","room_assignment":["blue","purple","green","grey","yellow","red"],"door_color_assignment":["white","black"],"door_generator_assignment":[0,1],"goal":5,"start":1,"action_noise":0.15,"location_history":"[1,5]","action_history":"[1]","door_history":"[1]","location_rts":"[2245]","trial_type":"two-door-navigation","trial_index":20,"time_elapsed":368116,"internal_node_id":"0.0-2.0-18.0"},{"group":"hexagon_tri","room_assignment":["blue","purple","green","grey","yellow","red"],"door_color_assignment":["white","black"],"door_generator_assignment":[0,1],"goal":2,"start":5,"action_noise":0.15,"location_history":"[5,0,1,5,0,5,0,1,5,4,0,1,3,2]","action_history":"[1,0,1,1,0,1,1,1,0,0,1,0,0]","door_history":"[1,0,1,1,0,1,1,1,0,0,1,0,0]","location_rts":"[1301,1071,668,395,1389,648,603,669,1621,535,1742,984,829]","trial_type":"two-door-navigation","trial_index":21,"time_elapsed":397915,"internal_node_id":"0.0-2.0-19.0"},{"group":"hexagon_tri","room_assignment":["blue","purple","green","grey","yellow","red"],"door_color_assignment":["white","black"],"door_generator_assignment":[0,1],"goal":4,"start":2,"action_noise":0.15,"location_history":"[2,1,3,4]","action_history":"[0,0,1]","door_history":"[0,0,1]","location_rts":"[1412,1583,994]","trial_type":"two-door-navigation","trial_index":22,"time_elapsed":408623,"internal_node_id":"0.0-2.0-20.0"},{"group":"hexagon_tri","room_assignment":["blue","purple","green","grey","yellow","red"],"door_color_assignment":["white","black"],"door_generator_assignment":[0,1],"goal":1,"start":4,"action_noise":0.15,"location_history":"[4,2,3,2,3,4,2,3,2,1]","action_history":"[1,1,0,0,1,1,1,0,0]","door_history":"[1,1,0,0,1,1,1,0,0]","location_rts":"[3400,550,704,375,333,438,786,1260,402]","trial_type":"two-door-navigation","trial_index":23,"time_elapsed":430009,"internal_node_id":"0.0-2.0-21.0"},{"group":"hexagon_tri","room_assignment":["blue","purple","green","grey","yellow","red"],"door_color_assignment":["white","black"],"door_generator_assignment":[0,1],"goal":3,"start":1,"action_noise":0.15,"location_history":"[1,3]","action_history":"[0]","door_history":"[0]","location_rts":"[1922]","trial_type":"two-door-navigation","trial_index":24,"time_elapsed":436501,"internal_node_id":"0.0-2.0-22.0"},{"group":"hexagon_tri","room_assignment":["blue","purple","green","grey","yellow","red"],"door_color_assignment":["white","black"],"door_generator_assignment":[0,1],"goal":2,"start":3,"action_noise":0.15,"location_history":"[3,4,2]","action_history":"[1,1]","door_history":"[1,1]","location_rts":"[1603,802]","trial_type":"two-door-navigation","trial_index":25,"time_elapsed":444521,"internal_node_id":"0.0-2.0-23.0"},{"group":"hexagon_tri","room_assignment":["blue","purple","green","grey","yellow","red"],"door_color_assignment":["white","black"],"door_generator_assignment":[0,1],"goal":0,"start":2,"action_noise":0.15,"location_history":"[2,3,2,3,2,1,3,2,3,2,3,4,0]","action_history":"[0,0,1,0,0,0,0,1,1,1,1,0]","door_history":"[0,0,1,0,0,0,0,1,1,1,1,0]","location_rts":"[992,907,1378,858,500,1529,784,702,613,451,719,554]","trial_type":"two-door-navigation","trial_index":26,"time_elapsed":470776,"internal_node_id":"0.0-2.0-24.0"},{"group":"hexagon_tri","room_assignment":["blue","purple","green","grey","yellow","red"],"door_color_assignment":["white","black"],"door_generator_assignment":[0,1],"goal":5,"start":0,"action_noise":0.15,"location_history":"[0,1,5]","action_history":"[1,1]","door_history":"[1,1]","location_rts":"[2042,858]","trial_type":"two-door-navigation","trial_index":27,"time_elapsed":479322,"internal_node_id":"0.0-2.0-25.0"},{"group":"hexagon_tri","room_assignment":["blue","purple","green","grey","yellow","red"],"door_color_assignment":["white","black"],"door_generator_assignment":[0,1],"goal":2,"start":5,"action_noise":0.15,"location_history":"[5,4,0,1,3,4,2]","action_history":"[0,0,1,1,1,1]","door_history":"[0,0,1,1,1,1]","location_rts":"[28800,863,473,668,550,523]","trial_type":"two-door-navigation","trial_index":28,"time_elapsed":521103,"internal_node_id":"0.0-2.0-26.0"},{"group":"hexagon_tri","room_assignment":["blue","purple","green","grey","yellow","red"],"door_color_assignment":["white","black"],"door_generator_assignment":[0,1],"goal":3,"start":2,"action_noise":0.15,"location_history":"[2,1,3]","action_history":"[0,0]","door_history":"[0,0]","location_rts":"[1163,895]","trial_type":"two-door-navigation","trial_index":29,"time_elapsed":528807,"internal_node_id":"0.0-2.0-27.0"},{"group":"hexagon_tri","room_assignment":["blue","purple","green","grey","yellow","red"],"door_color_assignment":["white","black"],"door_generator_assignment":[0,1],"goal":0,"start":3,"action_noise":0.15,"location_history":"[3,2,1,5,0]","action_history":"[0,0,1,1]","door_history":"[0,0,1,1]","location_rts":"[373,607,625,537]","trial_type":"two-door-navigation","trial_index":30,"time_elapsed":538740,"internal_node_id":"0.0-2.0-28.0"},{"group":"hexagon_tri","room_assignment":["blue","purple","green","grey","yellow","red"],"door_color_assignment":["white","black"],"door_generator_assignment":[0,1],"goal":1,"start":0,"action_noise":0.15,"location_history":"[0,1]","action_history":"[1]","door_history":"[1]","location_rts":"[2479]","trial_type":"two-door-navigation","trial_index":31,"time_elapsed":545781,"internal_node_id":"0.0-2.0-29.0"},{"group":"hexagon_tri","room_assignment":["blue","purple","green","grey","yellow","red"],"door_color_assignment":["white","black"],"door_generator_assignment":[0,1],"goal":4,"start":1,"action_noise":0.15,"location_history":"[1,5,4]","action_history":"[1,1]","door_history":"[1,1]","location_rts":"[951,1772]","trial_type":"two-door-navigation","trial_index":32,"time_elapsed":554122,"internal_node_id":"0.0-2.0-30.0"},{"group":"hexagon_tri","room_assignment":["blue","purple","green","grey","yellow","red"],"door_color_assignment":["white","black"],"door_generator_assignment":[0,1],"goal":5,"start":4,"action_noise":0.15,"location_history":"[4,0,5]","action_history":"[0,0]","door_history":"[0,0]","location_rts":"[1455,915]","trial_type":"two-door-navigation","trial_index":33,"time_elapsed":562103,"internal_node_id":"0.0-2.0-31.0"},{"group":"hexagon_tri","room_assignment":["blue","purple","green","grey","yellow","red"],"door_color_assignment":["white","black"],"door_generator_assignment":[0,1],"goal":0,"start":5,"action_noise":0.15,"location_history":"[5,0]","action_history":"[0]","door_history":"[0]","location_rts":"[1456]","trial_type":"two-door-navigation","trial_index":34,"time_elapsed":568119,"internal_node_id":"0.0-2.0-32.0"},{"group":"hexagon_tri","room_assignment":["blue","purple","green","grey","yellow","red"],"door_color_assignment":["white","black"],"door_generator_assignment":[0,1],"goal":3,"start":0,"action_noise":0.15,"location_history":"[0,1,5,0,1,5,4,0,1,3]","action_history":"[1,1,1,1,0,0,0,1,0]","door_history":"[1,1,1,1,0,0,0,1,0]","location_rts":"[1812,1158,2288,1508,1148,1103,1540,801,779]","trial_type":"two-door-navigation","trial_index":35,"time_elapsed":593339,"internal_node_id":"0.0-2.0-33.0"},{"group":"hexagon_tri","room_assignment":["blue","purple","green","grey","yellow","red"],"door_color_assignment":["white","black"],"door_generator_assignment":[0,1],"goal":1,"start":3,"action_noise":0.15,"location_history":"[3,4,0,1]","action_history":"[1,0,1]","door_history":"[1,0,1]","location_rts":"[1472,708,1140]","trial_type":"two-door-navigation","trial_index":36,"time_elapsed":603364,"internal_node_id":"0.0-2.0-34.0"},{"group":"hexagon_tri","room_assignment":["blue","purple","green","grey","yellow","red"],"door_color_assignment":["white","black"],"door_generator_assignment":[0,1],"goal":2,"start":1,"action_noise":0.15,"location_history":"[1,3,2]","action_history":"[0,0]","door_history":"[0,0]","location_rts":"[1808,1142]","trial_type":"two-door-navigation","trial_index":37,"time_elapsed":611942,"internal_node_id":"0.0-2.0-35.0"},{"group":"hexagon_tri","room_assignment":["blue","purple","green","grey","yellow","red"],"door_color_assignment":["white","black"],"door_generator_assignment":[0,1],"goal":4,"start":2,"action_noise":0.15,"location_history":"[2,1,5,4]","action_history":"[0,1,0]","door_history":"[0,1,0]","location_rts":"[2729,1159,1005]","trial_type":"two-door-navigation","trial_index":38,"time_elapsed":623538,"internal_node_id":"0.0-2.0-36.0"},{"group":"hexagon_tri","room_assignment":["blue","purple","green","grey","yellow","red"],"door_color_assignment":["white","black"],"door_generator_assignment":[0,1],"goal":5,"start":4,"action_noise":0.15,"location_history":"[4,0,1,5]","action_history":"[0,1,1]","door_history":"[0,1,1]","location_rts":"[1688,674,861]","trial_type":"two-door-navigation","trial_index":39,"time_elapsed":633449,"internal_node_id":"0.0-2.0-37.0"},{"group":"hexagon_tri","room_assignment":["blue","purple","green","grey","yellow","red"],"door_color_assignment":["white","black"],"door_generator_assignment":[0,1],"goal":1,"start":5,"action_noise":0.15,"location_history":"[5,0,1]","action_history":"[1,1]","door_history":"[1,1]","location_rts":"[2396,858]","trial_type":"two-door-navigation","trial_index":40,"time_elapsed":642321,"internal_node_id":"0.0-2.0-38.0"},{"group":"hexagon_tri","room_assignment":["blue","purple","green","grey","yellow","red"],"door_color_assignment":["white","black"],"door_generator_assignment":[0,1],"goal":4,"start":1,"action_noise":0.15,"location_history":"[1,3,4]","action_history":"[0,1]","door_history":"[0,1]","location_rts":"[1151,571]","trial_type":"two-door-navigation","trial_index":41,"time_elapsed":649659,"internal_node_id":"0.0-2.0-39.0"},{"group":"hexagon_tri","room_assignment":["blue","purple","green","grey","yellow","red"],"door_color_assignment":["white","black"],"door_generator_assignment":[0,1],"goal":3,"start":4,"action_noise":0.15,"location_history":"[4,0,5,4,2,1,5,0,5,0,1,3]","action_history":"[0,0,0,1,0,1,1,0,1,1,0]","door_history":"[0,0,0,1,0,1,1,0,1,1,0]","location_rts":"[1100,458,745,674,795,586,490,948,1005,698,1475]","trial_type":"two-door-navigation","trial_index":42,"time_elapsed":673820,"internal_node_id":"0.0-2.0-40.0"},{"group":"hexagon_tri","room_assignment":["blue","purple","green","grey","yellow","red"],"door_color_assignment":["white","black"],"door_generator_assignment":[0,1],"goal":2,"start":3,"action_noise":0.15,"location_history":"[3,2]","action_history":"[0]","door_history":"[0]","location_rts":"[1402]","trial_type":"two-door-navigation","trial_index":43,"time_elapsed":679804,"internal_node_id":"0.0-2.0-41.0"},{"group":"hexagon_tri","room_assignment":["blue","purple","green","grey","yellow","red"],"door_color_assignment":["white","black"],"door_generator_assignment":[0,1],"goal":0,"start":2,"action_noise":0.15,"location_history":"[2,3,4,0]","action_history":"[1,1,0]","door_history":"[1,1,0]","location_rts":"[1140,973,607]","trial_type":"two-door-navigation","trial_index":44,"time_elapsed":689186,"internal_node_id":"0.0-2.0-42.0"},{"group":"hexagon_tri","room_assignment":["blue","purple","green","grey","yellow","red"],"door_color_assignment":["white","black"],"door_generator_assignment":[0,1],"goal":5,"start":0,"action_noise":0.15,"location_history":"[0,5]","action_history":"[0]","door_history":"[0]","location_rts":"[2662]","trial_type":"two-door-navigation","trial_index":45,"time_elapsed":696414,"internal_node_id":"0.0-2.0-43.0"},{"group":"hexagon_tri","room_assignment":["blue","purple","green","grey","yellow","red"],"door_color_assignment":["white","black"],"door_generator_assignment":[0,1],"goal":0,"start":5,"action_noise":0.15,"location_history":"[5,4,0]","action_history":"[1,0]","door_history":"[1,0]","location_rts":"[2284,1036]","trial_type":"two-door-navigation","trial_index":46,"time_elapsed":705368,"internal_node_id":"0.0-2.0-44.0"},{"group":"hexagon_tri","room_assignment":["blue","purple","green","grey","yellow","red"],"door_color_assignment":["white","black"],"door_generator_assignment":[0,1],"goal":2,"start":0,"action_noise":0.15,"location_history":"[0,1,3,4,2]","action_history":"[1,0,1,1]","door_history":"[1,0,1,1]","location_rts":"[835,438,959,560]","trial_type":"two-door-navigation","trial_index":47,"time_elapsed":715900,"internal_node_id":"0.0-2.0-45.0"},{"group":"hexagon_tri","room_assignment":["blue","purple","green","grey","yellow","red"],"door_color_assignment":["white","black"],"door_generator_assignment":[0,1],"goal":4,"start":2,"action_noise":0.15,"location_history":"[2,1,3,2,1,5,0,1,3,4]","action_history":"[1,0,0,0,0,1,1,1,0]","door_history":"[1,0,0,0,0,1,1,1,0]","location_rts":"[1617,456,583,1168,788,982,495,646,1051]","trial_type":"two-door-navigation","trial_index":48,"time_elapsed":736705,"internal_node_id":"0.0-2.0-46.0"},{"group":"hexagon_tri","room_assignment":["blue","purple","green","grey","yellow","red"],"door_color_assignment":["white","black"],"door_generator_assignment":[0,1],"goal":1,"start":4,"action_noise":0.15,"location_history":"[4,2,3,4,2,3,2,1]","action_history":"[0,1,1,1,1,0,1]","door_history":"[0,1,1,1,1,0,1]","location_rts":"[846,537,520,506,608,776,551]","trial_type":"two-door-navigation","trial_index":49,"time_elapsed":752002,"internal_node_id":"0.0-2.0-47.0"},{"group":"hexagon_tri","room_assignment":["blue","purple","green","grey","yellow","red"],"door_color_assignment":["white","black"],"door_generator_assignment":[0,1],"goal":5,"start":1,"action_noise":0.15,"location_history":"[1,5]","action_history":"[1]","door_history":"[1]","location_rts":"[1359]","trial_type":"two-door-navigation","trial_index":50,"time_elapsed":757925,"internal_node_id":"0.0-2.0-48.0"},{"group":"hexagon_tri","room_assignment":["blue","purple","green","grey","yellow","red"],"door_color_assignment":["white","black"],"door_generator_assignment":[0,1],"goal":3,"start":5,"action_noise":0.15,"location_history":"[5,4,0,1,3]","action_history":"[0,0,1,0]","door_history":"[0,0,1,0]","location_rts":"[1488,1455,820,711]","trial_type":"two-door-navigation","trial_index":51,"time_elapsed":770145,"internal_node_id":"0.0-2.0-49.0"},{"view_history":"[{\"page_index\":0,\"viewing_time\":1702}]","rt":1702,"trial_type":"instructions","trial_index":52,"time_elapsed":772848,"internal_node_id":"0.0-3.0"},{"view_history":"[{\"page_index\":0,\"viewing_time\":2443},{\"page_index\":1,\"viewing_time\":4368}]","rt":6811,"trial_type":"instructions","trial_index":53,"time_elapsed":780660,"internal_node_id":"0.0-4.0"},{"group":"hexagon_tri","fractal_assignment":["../images/pnk_blu.png","../images/cyn_red.png","../images/org_blu.png","../images/blu_wht.png","../images/gry_blk.png","../images/ylw_slt.png"],"mutagen_generator_assignment":[0,1],"goal":3,"start":5,"action_noise":0.15,"location_history":"[5,4,0,5,4,0,1,3]","action_history":"[0,0,0,0,1,1,0]","mutagen_history":"[0,0,0,0,1,1,0]","location_rts":"[2954,1069,643,1867,7,678,1222]","trial_type":"fractal-mutation","trial_index":54,"time_elapsed":800193,"internal_node_id":"0.0-5.0-0.0"},{"group":"hexagon_tri","fractal_assignment":["../images/pnk_blu.png","../images/cyn_red.png","../images/org_blu.png","../images/blu_wht.png","../images/gry_blk.png","../images/ylw_slt.png"],"mutagen_generator_assignment":[0,1],"goal":1,"start":3,"action_noise":0.15,"location_history":"[3,2,1]","action_history":"[0,0]","mutagen_history":"[0,0]","location_rts":"[1101,4347]","trial_type":"fractal-mutation","trial_index":55,"time_elapsed":811299,"internal_node_id":"0.0-5.0-1.0"},{"group":"hexagon_tri","fractal_assignment":["../images/pnk_blu.png","../images/cyn_red.png","../images/org_blu.png","../images/blu_wht.png","../images/gry_blk.png","../images/ylw_slt.png"],"mutagen_generator_assignment":[0,1],"goal":0,"start":1,"action_noise":0.15,"location_history":"[1,5,0]","action_history":"[1,1]","mutagen_history":"[1,1]","location_rts":"[1151,810]","trial_type":"fractal-mutation","trial_index":56,"time_elapsed":818950,"internal_node_id":"0.0-5.0-2.0"},{"group":"hexagon_tri","fractal_assignment":["../images/pnk_blu.png","../images/cyn_red.png","../images/org_blu.png","../images/blu_wht.png","../images/gry_blk.png","../images/ylw_slt.png"],"mutagen_generator_assignment":[0,1],"goal":3,"start":0,"action_noise":0.15,"location_history":"[0,5,0,1,5,4,0,1,5,4,2,3]","action_history":"[0,1,1,1,0,0,1,1,0,0,1]","mutagen_history":"[0,1,1,1,0,0,1,1,0,0,1]","location_rts":"[1511,1449,840,897,602,628,548,398,312,962,1132]","trial_type":"fractal-mutation","trial_index":57,"time_elapsed":843687,"internal_node_id":"0.0-5.0-3.0"},{"group":"hexagon_tri","fractal_assignment":["../images/pnk_blu.png","../images/cyn_red.png","../images/org_blu.png","../images/blu_wht.png","../images/gry_blk.png","../images/ylw_slt.png"],"mutagen_generator_assignment":[0,1],"goal":4,"start":3,"action_noise":0.15,"location_history":"[3,2,1,5,0,5,4]","action_history":"[0,0,1,1,0,0]","mutagen_history":"[0,0,1,1,0,0]","location_rts":"[964,498,773,893,701,421]","trial_type":"fractal-mutation","trial_index":58,"time_elapsed":857921,"internal_node_id":"0.0-5.0-4.0"},{"group":"hexagon_tri","fractal_assignment":["../images/pnk_blu.png","../images/cyn_red.png","../images/org_blu.png","../images/blu_wht.png","../images/gry_blk.png","../images/ylw_slt.png"],"mutagen_generator_assignment":[0,1],"goal":2,"start":4,"action_noise":0.15,"location_history":"[4,0,1,5,4,0,5,4,2]","action_history":"[0,1,1,0,0,0,1,1]","mutagen_history":"[0,1,1,0,0,0,1,1]","location_rts":"[389,664,521,436,569,696,379,483]","trial_type":"fractal-mutation","trial_index":59,"time_elapsed":874238,"internal_node_id":"0.0-5.0-5.0"},{"group":"hexagon_tri","fractal_assignment":["../images/pnk_blu.png","../images/cyn_red.png","../images/org_blu.png","../images/blu_wht.png","../images/gry_blk.png","../images/ylw_slt.png"],"mutagen_generator_assignment":[0,1],"goal":1,"start":2,"action_noise":0.15,"location_history":"[2,1]","action_history":"[0]","mutagen_history":"[0]","location_rts":"[669]","trial_type":"fractal-mutation","trial_index":60,"time_elapsed":879494,"internal_node_id":"0.0-5.0-6.0"},{"group":"hexagon_tri","fractal_assignment":["../images/pnk_blu.png","../images/cyn_red.png","../images/org_blu.png","../images/blu_wht.png","../images/gry_blk.png","../images/ylw_slt.png"],"mutagen_generator_assignment":[0,1],"goal":5,"start":1,"action_noise":0.15,"location_history":"[1,5]","action_history":"[1]","mutagen_history":"[1]","location_rts":"[1190]","trial_type":"fractal-mutation","trial_index":61,"time_elapsed":885292,"internal_node_id":"0.0-5.0-7.0"},{"group":"hexagon_tri","fractal_assignment":["../images/pnk_blu.png","../images/cyn_red.png","../images/org_blu.png","../images/blu_wht.png","../images/gry_blk.png","../images/ylw_slt.png"],"mutagen_generator_assignment":[0,1],"goal":4,"start":5,"action_noise":0.15,"location_history":"[5,4]","action_history":"[0]","mutagen_history":"[0]","location_rts":"[3013]","trial_type":"fractal-mutation","trial_index":62,"time_elapsed":892892,"internal_node_id":"0.0-5.0-8.0"},{"group":"hexagon_tri","fractal_assignment":["../images/pnk_blu.png","../images/cyn_red.png","../images/org_blu.png","../images/blu_wht.png","../images/gry_blk.png","../images/ylw_slt.png"],"mutagen_generator_assignment":[0,1],"goal":2,"start":4,"action_noise":0.15,"location_history":"[4,0,5,4,2]","action_history":"[1,0,0,1]","mutagen_history":"[1,0,0,1]","location_rts":"[1253,960,680,793]","trial_type":"fractal-mutation","trial_index":63,"time_elapsed":904395,"internal_node_id":"0.0-5.0-9.0"},{"group":"hexagon_tri","fractal_assignment":["../images/pnk_blu.png","../images/cyn_red.png","../images/org_blu.png","../images/blu_wht.png","../images/gry_blk.png","../images/ylw_slt.png"],"mutagen_generator_assignment":[0,1],"goal":0,"start":2,"action_noise":0.15,"location_history":"[2,1,3,4,2,1,3,4,2,3,2,1,3,4,0]","action_history":"[0,0,1,1,0,0,1,0,1,0,0,0,1,0]","mutagen_history":"[0,0,1,1,0,0,1,0,1,0,0,0,1,0]","location_rts":"[892,725,443,446,411,412,460,537,438,604,352,516,501,396]","trial_type":"fractal-mutation","trial_index":64,"time_elapsed":930152,"internal_node_id":"0.0-5.0-10.0"},{"group":"hexagon_tri","fractal_assignment":["../images/pnk_blu.png","../images/cyn_red.png","../images/org_blu.png","../images/blu_wht.png","../images/gry_blk.png","../images/ylw_slt.png"],"mutagen_generator_assignment":[0,1],"goal":1,"start":0,"action_noise":0.15,"location_history":"[0,5,4,0,5,4,0,1]","action_history":"[0,1,0,0,1,0,1]","mutagen_history":"[0,1,0,0,1,0,1]","location_rts":"[999,452,443,600,411,508,728]","trial_type":"fractal-mutation","trial_index":65,"time_elapsed":945332,"internal_node_id":"0.0-5.0-11.0"},{"group":"hexagon_tri","fractal_assignment":["../images/pnk_blu.png","../images/cyn_red.png","../images/org_blu.png","../images/blu_wht.png","../images/gry_blk.png","../images/ylw_slt.png"],"mutagen_generator_assignment":[0,1],"goal":3,"start":1,"action_noise":0.15,"location_history":"[1,3]","action_history":"[0]","mutagen_history":"[0]","location_rts":"[638]","trial_type":"fractal-mutation","trial_index":66,"time_elapsed":950556,"internal_node_id":"0.0-5.0-12.0"},{"group":"hexagon_tri","fractal_assignment":["../images/pnk_blu.png","../images/cyn_red.png","../images/org_blu.png","../images/blu_wht.png","../images/gry_blk.png","../images/ylw_slt.png"],"mutagen_generator_assignment":[0,1],"goal":5,"start":3,"action_noise":0.15,"location_history":"[3,4,2,3,2,1,5]","action_history":"[0,1,0,0,0,1]","mutagen_history":"[0,1,0,0,0,1]","location_rts":"[534,386,602,437,459,584]","trial_type":"fractal-mutation","trial_index":67,"time_elapsed":963535,"internal_node_id":"0.0-5.0-13.0"},{"group":"hexagon_tri","fractal_assignment":["../images/pnk_blu.png","../images/cyn_red.png","../images/org_blu.png","../images/blu_wht.png","../images/gry_blk.png","../images/ylw_slt.png"],"mutagen_generator_assignment":[0,1],"goal":4,"start":5,"action_noise":0.15,"location_history":"[5,0,1,5,4]","action_history":"[1,1,1,0]","mutagen_history":"[1,1,1,0]","location_rts":"[3566,1807,2929,4488]","trial_type":"fractal-mutation","trial_index":68,"time_elapsed":984173,"internal_node_id":"0.0-5.0-14.0"},{"group":"hexagon_tri","fractal_assignment":["../images/pnk_blu.png","../images/cyn_red.png","../images/org_blu.png","../images/blu_wht.png","../images/gry_blk.png","../images/ylw_slt.png"],"mutagen_generator_assignment":[0,1],"goal":0,"start":4,"action_noise":0.15,"location_history":"[4,0]","action_history":"[0]","mutagen_history":"[0]","location_rts":"[981]","trial_type":"fractal-mutation","trial_index":69,"time_elapsed":989738,"internal_node_id":"0.0-5.0-15.0"},{"group":"hexagon_tri","fractal_assignment":["../images/pnk_blu.png","../images/cyn_red.png","../images/org_blu.png","../images/blu_wht.png","../images/gry_blk.png","../images/ylw_slt.png"],"mutagen_generator_assignment":[0,1],"goal":3,"start":0,"action_noise":0.15,"location_history":"[0,1,3]","action_history":"[0,0]","mutagen_history":"[0,0]","location_rts":"[447,734]","trial_type":"fractal-mutation","trial_index":70,"time_elapsed":996603,"internal_node_id":"0.0-5.0-16.0"},{"group":"hexagon_tri","fractal_assignment":["../images/pnk_blu.png","../images/cyn_red.png","../images/org_blu.png","../images/blu_wht.png","../images/gry_blk.png","../images/ylw_slt.png"],"mutagen_generator_assignment":[0,1],"goal":1,"start":3,"action_noise":0.15,"location_history":"[3,2,1]","action_history":"[1,0]","mutagen_history":"[1,0]","location_rts":"[961,400]","trial_type":"fractal-mutation","trial_index":71,"time_elapsed":1003629,"internal_node_id":"0.0-5.0-17.0"},{"group":"hexagon_tri","fractal_assignment":["../images/pnk_blu.png","../images/cyn_red.png","../images/org_blu.png","../images/blu_wht.png","../images/gry_blk.png","../images/ylw_slt.png"],"mutagen_generator_assignment":[0,1],"goal":5,"start":1,"action_noise":0.15,"location_history":"[1,3,2,3,2,1,5]","action_history":"[0,1,1,0,0,1]","mutagen_history":"[0,1,1,0,0,1]","location_rts":"[436,677,274,374,495,437]","trial_type":"fractal-mutation","trial_index":72,"time_elapsed":1016361,"internal_node_id":"0.0-5.0-18.0"},{"group":"hexagon_tri","fractal_assignment":["../images/pnk_blu.png","../images/cyn_red.png","../images/org_blu.png","../images/blu_wht.png","../images/gry_blk.png","../images/ylw_slt.png"],"mutagen_generator_assignment":[0,1],"goal":2,"start":5,"action_noise":0.15,"location_history":"[5,4,2]","action_history":"[0,1]","mutagen_history":"[0,1]","location_rts":"[633,426]","trial_type":"fractal-mutation","trial_index":73,"time_elapsed":1023110,"internal_node_id":"0.0-5.0-19.0"},{"group":"hexagon_tri","fractal_assignment":["../images/pnk_blu.png","../images/cyn_red.png","../images/org_blu.png","../images/blu_wht.png","../images/gry_blk.png","../images/ylw_slt.png"],"mutagen_generator_assignment":[0,1],"goal":4,"start":2,"action_noise":0.15,"location_history":"[2,1,5,4]","action_history":"[0,1,1]","mutagen_history":"[0,1,1]","location_rts":"[493,349,364]","trial_type":"fractal-mutation","trial_index":74,"time_elapsed":1031093,"internal_node_id":"0.0-5.0-20.0"},{"group":"hexagon_tri","fractal_assignment":["../images/pnk_blu.png","../images/cyn_red.png","../images/org_blu.png","../images/blu_wht.png","../images/gry_blk.png","../images/ylw_slt.png"],"mutagen_generator_assignment":[0,1],"goal":1,"start":4,"action_noise":0.15,"location_history":"[4,0,1]","action_history":"[0,0]","mutagen_history":"[0,0]","location_rts":"[404,478]","trial_type":"fractal-mutation","trial_index":75,"time_elapsed":1037625,"internal_node_id":"0.0-5.0-21.0"},{"group":"hexagon_tri","fractal_assignment":["../images/pnk_blu.png","../images/cyn_red.png","../images/org_blu.png","../images/blu_wht.png","../images/gry_blk.png","../images/ylw_slt.png"],"mutagen_generator_assignment":[0,1],"goal":3,"start":1,"action_noise":0.15,"location_history":"[1,3]","action_history":"[0]","mutagen_history":"[0]","location_rts":"[418]","trial_type":"fractal-mutation","trial_index":76,"time_elapsed":1042630,"internal_node_id":"0.0-5.0-22.0"},{"group":"hexagon_tri","fractal_assignment":["../images/pnk_blu.png","../images/cyn_red.png","../images/org_blu.png","../images/blu_wht.png","../images/gry_blk.png","../images/ylw_slt.png"],"mutagen_generator_assignment":[0,1],"goal":2,"start":3,"action_noise":0.15,"location_history":"[3,4,2]","action_history":"[1,1]","mutagen_history":"[1,1]","location_rts":"[878,740]","trial_type":"fractal-mutation","trial_index":77,"time_elapsed":1049922,"internal_node_id":"0.0-5.0-23.0"},{"group":"hexagon_tri","fractal_assignment":["../images/pnk_blu.png","../images/cyn_red.png","../images/org_blu.png","../images/blu_wht.png","../images/gry_blk.png","../images/ylw_slt.png"],"mutagen_generator_assignment":[0,1],"goal":0,"start":2,"action_noise":0.15,"location_history":"[2,3,2,1,3,4,2,3,2,1,3,4,0]","action_history":"[1,0,0,1,0,1,1,0,0,0,1,0]","mutagen_history":"[1,0,0,1,0,1,1,0,0,0,1,0]","location_rts":"[1029,506,464,559,517,312,660,480,297,490,809,368]","trial_type":"fractal-mutation","trial_index":78,"time_elapsed":1072927,"internal_node_id":"0.0-5.0-24.0"},{"group":"hexagon_tri","fractal_assignment":["../images/pnk_blu.png","../images/cyn_red.png","../images/org_blu.png","../images/blu_wht.png","../images/gry_blk.png","../images/ylw_slt.png"],"mutagen_generator_assignment":[0,1],"goal":5,"start":0,"action_noise":0.15,"location_history":"[0,5]","action_history":"[0]","mutagen_history":"[0]","location_rts":"[724]","trial_type":"fractal-mutation","trial_index":79,"time_elapsed":1078235,"internal_node_id":"0.0-5.0-25.0"},{"group":"hexagon_tri","fractal_assignment":["../images/pnk_blu.png","../images/cyn_red.png","../images/org_blu.png","../images/blu_wht.png","../images/gry_blk.png","../images/ylw_slt.png"],"mutagen_generator_assignment":[0,1],"goal":2,"start":5,"action_noise":0.15,"location_history":"[5,4,2]","action_history":"[0,1]","mutagen_history":"[0,1]","location_rts":"[654,767]","trial_type":"fractal-mutation","trial_index":80,"time_elapsed":1085332,"internal_node_id":"0.0-5.0-26.0"},{"group":"hexagon_tri","fractal_assignment":["../images/pnk_blu.png","../images/cyn_red.png","../images/org_blu.png","../images/blu_wht.png","../images/gry_blk.png","../images/ylw_slt.png"],"mutagen_generator_assignment":[0,1],"goal":3,"start":2,"action_noise":0.15,"location_history":"[2,3]","action_history":"[1]","mutagen_history":"[1]","location_rts":"[907]","trial_type":"fractal-mutation","trial_index":81,"time_elapsed":1090815,"internal_node_id":"0.0-5.0-27.0"},{"group":"hexagon_tri","fractal_assignment":["../images/pnk_blu.png","../images/cyn_red.png","../images/org_blu.png","../images/blu_wht.png","../images/gry_blk.png","../images/ylw_slt.png"],"mutagen_generator_assignment":[0,1],"goal":0,"start":3,"action_noise":0.15,"location_history":"[3,2,1,5,4,2,3,2,1,5,4,0]","action_history":"[0,0,1,0,1,1,0,0,1,0,0]","mutagen_history":"[0,0,1,0,1,1,0,0,1,0,0]","location_rts":"[876,370,388,429,394,844,599,426,310,379,633]","trial_type":"fractal-mutation","trial_index":82,"time_elapsed":1111809,"internal_node_id":"0.0-5.0-28.0"},{"group":"hexagon_tri","fractal_assignment":["../images/pnk_blu.png","../images/cyn_red.png","../images/org_blu.png","../images/blu_wht.png","../images/gry_blk.png","../images/ylw_slt.png"],"mutagen_generator_assignment":[0,1],"goal":1,"start":0,"action_noise":0.15,"location_history":"[0,5,0,1]","action_history":"[0,1,1]","mutagen_history":"[0,1,1]","location_rts":"[455,428,703]","trial_type":"fractal-mutation","trial_index":83,"time_elapsed":1120169,"internal_node_id":"0.0-5.0-29.0"},{"group":"hexagon_tri","fractal_assignment":["../images/pnk_blu.png","../images/cyn_red.png","../images/org_blu.png","../images/blu_wht.png","../images/gry_blk.png","../images/ylw_slt.png"],"mutagen_generator_assignment":[0,1],"goal":4,"start":1,"action_noise":0.15,"location_history":"[1,3,2,3,2,1,5,0,1,3,2,1,5,0,5,4]","action_history":"[0,0,1,0,0,0,1,1,0,0,0,1,1,0,0]","mutagen_history":"[0,0,1,0,0,0,1,1,0,0,0,1,1,0,0]","location_rts":"[2281,733,351,485,460,564,781,709,421,516,285,435,877,435,523]","trial_type":"fractal-mutation","trial_index":84,"time_elapsed":1149677,"internal_node_id":"0.0-5.0-30.0"},{"group":"hexagon_tri","fractal_assignment":["../images/pnk_blu.png","../images/cyn_red.png","../images/org_blu.png","../images/blu_wht.png","../images/gry_blk.png","../images/ylw_slt.png"],"mutagen_generator_assignment":[0,1],"goal":5,"start":4,"action_noise":0.15,"location_history":"[4,2,1,3,2,1,3,4,2,1,3,4,2,1,5]","action_history":"[0,1,0,0,0,0,1,1,0,0,1,1,0,1]","mutagen_history":"[0,1,0,0,0,0,1,1,0,0,1,1,0,1]","location_rts":"[602,539,614,747,537,873,427,290,369,800,672,341,401,349]","trial_type":"fractal-mutation","trial_index":85,"time_elapsed":1175850,"internal_node_id":"0.0-5.0-31.0"},{"group":"hexagon_tri","fractal_assignment":["../images/pnk_blu.png","../images/cyn_red.png","../images/org_blu.png","../images/blu_wht.png","../images/gry_blk.png","../images/ylw_slt.png"],"mutagen_generator_assignment":[0,1],"goal":0,"start":5,"action_noise":0.15,"location_history":"[5,4,0]","action_history":"[0,1]","mutagen_history":"[0,1]","location_rts":"[658,442]","trial_type":"fractal-mutation","trial_index":86,"time_elapsed":1182643,"internal_node_id":"0.0-5.0-32.0"},{"group":"hexagon_tri","fractal_assignment":["../images/pnk_blu.png","../images/cyn_red.png","../images/org_blu.png","../images/blu_wht.png","../images/gry_blk.png","../images/ylw_slt.png"],"mutagen_generator_assignment":[0,1],"goal":3,"start":0,"action_noise":0.15,"location_history":"[0,1,5,4,0,1,5,0,1,5,4,2,1,5,0,5,4,2,1,3]","action_history":"[1,1,0,0,1,1,1,0,1,0,1,0,1,1,0,0,1,0,0]","mutagen_history":"[1,1,0,0,1,1,1,0,1,0,1,0,1,1,0,0,1,0,0]","location_rts":"[383,448,319,326,471,338,488,241,435,449,638,484,392,346,317,428,409,339,211]","trial_type":"fractal-mutation","trial_index":87,"time_elapsed":1214253,"internal_node_id":"0.0-5.0-33.0"},{"group":"hexagon_tri","fractal_assignment":["../images/pnk_blu.png","../images/cyn_red.png","../images/org_blu.png","../images/blu_wht.png","../images/gry_blk.png","../images/ylw_slt.png"],"mutagen_generator_assignment":[0,1],"goal":1,"start":3,"action_noise":0.15,"location_history":"[3,2,3,4,2,3,4,0,5,0,1]","action_history":"[0,1,1,1,1,1,0,0,1,1]","mutagen_history":"[0,1,1,1,1,1,0,0,1,1]","location_rts":"[662,942,772,1568,883,1036,332,502,305,539]","trial_type":"fractal-mutation","trial_index":88,"time_elapsed":1236183,"internal_node_id":"0.0-5.0-34.0"},{"group":"hexagon_tri","fractal_assignment":["../images/pnk_blu.png","../images/cyn_red.png","../images/org_blu.png","../images/blu_wht.png","../images/gry_blk.png","../images/ylw_slt.png"],"mutagen_generator_assignment":[0,1],"goal":2,"start":1,"action_noise":0.15,"location_history":"[1,3,4,2]","action_history":"[0,1,1]","mutagen_history":"[0,1,1]","location_rts":"[261,307,356]","trial_type":"fractal-mutation","trial_index":89,"time_elapsed":1243859,"internal_node_id":"0.0-5.0-35.0"},{"group":"hexagon_tri","fractal_assignment":["../images/pnk_blu.png","../images/cyn_red.png","../images/org_blu.png","../images/blu_wht.png","../images/gry_blk.png","../images/ylw_slt.png"],"mutagen_generator_assignment":[0,1],"goal":4,"start":2,"action_noise":0.15,"location_history":"[2,3,2,1,5,0,5,4]","action_history":"[1,0,0,1,1,0,0]","mutagen_history":"[1,0,0,1,1,0,0]","location_rts":"[448,693,592,536,395,414,387]","trial_type":"fractal-mutation","trial_index":90,"time_elapsed":1258383,"internal_node_id":"0.0-5.0-36.0"},{"group":"hexagon_tri","fractal_assignment":["../images/pnk_blu.png","../images/cyn_red.png","../images/org_blu.png","../images/blu_wht.png","../images/gry_blk.png","../images/ylw_slt.png"],"mutagen_generator_assignment":[0,1],"goal":5,"start":4,"action_noise":0.15,"location_history":"[4,2,3,2,1,3,4,0,5]","action_history":"[1,1,0,0,0,1,0,1]","mutagen_history":"[1,1,0,0,0,1,0,1]","location_rts":"[548,403,608,315,434,415,316,374]","trial_type":"fractal-mutation","trial_index":91,"time_elapsed":1273939,"internal_node_id":"0.0-5.0-37.0"},{"group":"hexagon_tri","fractal_assignment":["../images/pnk_blu.png","../images/cyn_red.png","../images/org_blu.png","../images/blu_wht.png","../images/gry_blk.png","../images/ylw_slt.png"],"mutagen_generator_assignment":[0,1],"goal":1,"start":5,"action_noise":0.15,"location_history":"[5,4,0,1]","action_history":"[0,0,1]","mutagen_history":"[0,0,1]","location_rts":"[578,648,532]","trial_type":"fractal-mutation","trial_index":92,"time_elapsed":1282452,"internal_node_id":"0.0-5.0-38.0"},{"group":"hexagon_tri","fractal_assignment":["../images/pnk_blu.png","../images/cyn_red.png","../images/org_blu.png","../images/blu_wht.png","../images/gry_blk.png","../images/ylw_slt.png"],"mutagen_generator_assignment":[0,1],"goal":4,"start":1,"action_noise":0.15,"location_history":"[1,3,4]","action_history":"[0,1]","mutagen_history":"[0,1]","location_rts":"[702,562]","trial_type":"fractal-mutation","trial_index":93,"time_elapsed":1289397,"internal_node_id":"0.0-5.0-39.0"},{"group":"hexagon_tri","fractal_assignment":["../images/pnk_blu.png","../images/cyn_red.png","../images/org_blu.png","../images/blu_wht.png","../images/gry_blk.png","../images/ylw_slt.png"],"mutagen_generator_assignment":[0,1],"goal":3,"start":4,"action_noise":0.15,"location_history":"[4,2,1,3]","action_history":"[1,0,1]","mutagen_history":"[1,0,1]","location_rts":"[781,533,523]","trial_type":"fractal-mutation","trial_index":94,"time_elapsed":1298001,"internal_node_id":"0.0-5.0-40.0"},{"group":"hexagon_tri","fractal_assignment":["../images/pnk_blu.png","../images/cyn_red.png","../images/org_blu.png","../images/blu_wht.png","../images/gry_blk.png","../images/ylw_slt.png"],"mutagen_generator_assignment":[0,1],"goal":2,"start":3,"action_noise":0.15,"location_history":"[3,4,0,5,0,1,3,2]","action_history":"[1,0,0,1,1,0,0]","mutagen_history":"[1,0,0,1,1,0,0]","location_rts":"[3421,648,542,552,721,428,566]","trial_type":"fractal-mutation","trial_index":95,"time_elapsed":1315937,"internal_node_id":"0.0-5.0-41.0"},{"group":"hexagon_tri","fractal_assignment":["../images/pnk_blu.png","../images/cyn_red.png","../images/org_blu.png","../images/blu_wht.png","../images/gry_blk.png","../images/ylw_slt.png"],"mutagen_generator_assignment":[0,1],"goal":0,"start":2,"action_noise":0.15,"location_history":"[2,1,5,0]","action_history":"[0,1,1]","mutagen_history":"[0,1,1]","location_rts":"[1132,513,384]","trial_type":"fractal-mutation","trial_index":96,"time_elapsed":1324718,"internal_node_id":"0.0-5.0-42.0"},{"group":"hexagon_tri","fractal_assignment":["../images/pnk_blu.png","../images/cyn_red.png","../images/org_blu.png","../images/blu_wht.png","../images/gry_blk.png","../images/ylw_slt.png"],"mutagen_generator_assignment":[0,1],"goal":5,"start":0,"action_noise":0.15,"location_history":"[0,1,5]","action_history":"[1,1]","mutagen_history":"[1,1]","location_rts":"[965,837]","trial_type":"fractal-mutation","trial_index":97,"time_elapsed":1332206,"internal_node_id":"0.0-5.0-43.0"},{"group":"hexagon_tri","fractal_assignment":["../images/pnk_blu.png","../images/cyn_red.png","../images/org_blu.png","../images/blu_wht.png","../images/gry_blk.png","../images/ylw_slt.png"],"mutagen_generator_assignment":[0,1],"goal":0,"start":5,"action_noise":0.15,"location_history":"[5,4,2,1,3,4,2,3,2,1,3,2,1,3,4,2,3,2,3,2,1,3,4,2,1,3,2,3,2,1,3,2,3,2,3,4,0]","action_history":"[0,1,0,0,1,1,1,0,0,0,0,1,0,1,1,1,0,1,0,0,0,1,1,0,1,0,1,0,0,0,0,1,0,1,0,0]","mutagen_history":"[0,1,0,0,1,1,1,0,0,0,0,1,0,1,1,1,0,1,0,0,0,1,1,0,1,0,1,0,0,0,0,1,0,1,0,0]","location_rts":"[1016,226,491,495,587,472,575,533,332,882,622,457,679,263,281,538,304,386,272,334,1696,588,459,437,488,624,324,476,763,521,624,621,910,589,443,835]","trial_type":"fractal-mutation","trial_index":98,"time_elapsed":1394744,"internal_node_id":"0.0-5.0-44.0"},{"group":"hexagon_tri","fractal_assignment":["../images/pnk_blu.png","../images/cyn_red.png","../images/org_blu.png","../images/blu_wht.png","../images/gry_blk.png","../images/ylw_slt.png"],"mutagen_generator_assignment":[0,1],"goal":2,"start":0,"action_noise":0.15,"location_history":"[0,1,5,4,2]","action_history":"[1,1,0,0]","mutagen_history":"[1,1,0,0]","location_rts":"[544,389,528,505]","trial_type":"fractal-mutation","trial_index":99,"time_elapsed":1404543,"internal_node_id":"0.0-5.0-45.0"},{"group":"hexagon_tri","fractal_assignment":["../images/pnk_blu.png","../images/cyn_red.png","../images/org_blu.png","../images/blu_wht.png","../images/gry_blk.png","../images/ylw_slt.png"],"mutagen_generator_assignment":[0,1],"goal":4,"start":2,"action_noise":0.15,"location_history":"[2,3,2,1,5,0,5,0,5,4]","action_history":"[1,0,0,1,1,0,0,0,0]","mutagen_history":"[1,0,0,1,1,0,0,0,0]","location_rts":"[883,473,559,524,502,491,456,418,482]","trial_type":"fractal-mutation","trial_index":100,"time_elapsed":1422563,"internal_node_id":"0.0-5.0-46.0"},{"group":"hexagon_tri","fractal_assignment":["../images/pnk_blu.png","../images/cyn_red.png","../images/org_blu.png","../images/blu_wht.png","../images/gry_blk.png","../images/ylw_slt.png"],"mutagen_generator_assignment":[0,1],"goal":1,"start":4,"action_noise":0.15,"location_history":"[4,2,1]","action_history":"[1,1]","mutagen_history":"[1,1]","location_rts":"[500,585]","trial_type":"fractal-mutation","trial_index":101,"time_elapsed":1429350,"internal_node_id":"0.0-5.0-47.0"},{"group":"hexagon_tri","fractal_assignment":["../images/pnk_blu.png","../images/cyn_red.png","../images/org_blu.png","../images/blu_wht.png","../images/gry_blk.png","../images/ylw_slt.png"],"mutagen_generator_assignment":[0,1],"goal":5,"start":1,"action_noise":0.15,"location_history":"[1,5]","action_history":"[1]","mutagen_history":"[1]","location_rts":"[471]","trial_type":"fractal-mutation","trial_index":102,"time_elapsed":1434434,"internal_node_id":"0.0-5.0-48.0"},{"group":"hexagon_tri","fractal_assignment":["../images/pnk_blu.png","../images/cyn_red.png","../images/org_blu.png","../images/blu_wht.png","../images/gry_blk.png","../images/ylw_slt.png"],"mutagen_generator_assignment":[0,1],"goal":3,"start":5,"action_noise":0.15,"location_history":"[5,4,2,3]","action_history":"[1,1,1]","mutagen_history":"[1,1,1]","location_rts":"[705,604,476]","trial_type":"fractal-mutation","trial_index":103,"time_elapsed":1443009,"internal_node_id":"0.0-5.0-49.0"},{"view_history":"[{\"page_index\":0,\"viewing_time\":11727}]","rt":11728,"trial_type":"instructions","trial_index":104,"time_elapsed":1455740,"internal_node_id":"0.0-6.0"},{"rt":6366,"responses":"{\"Q0\":\"no\"}","trial_type":"survey-text","trial_index":105,"time_elapsed":1463116,"internal_node_id":"0.0-7.0"}]