[{"view_history":"[{\"page_index\":0,\"viewing_time\":2988},{\"page_index\":1,\"viewing_time\":12865}]","rt":15854,"trial_type":"instructions","trial_index":0,"time_elapsed":15856,"internal_node_id":"0.0-0.0"},{"view_history":"[{\"page_index\":0,\"viewing_time\":4278},{\"page_index\":1,\"viewing_time\":90769}]","rt":95047,"trial_type":"instructions","trial_index":1,"time_elapsed":111904,"internal_node_id":"0.0-1.0"},{"group":"hexagon_tri","room_assignment":["green","grey","blue","red","purple","yellow"],"door_color_assignment":["black","white"],"door_generator_assignment":[0,1],"goal":3,"start":5,"action_noise":0.15,"location_history":"[5,0,1,5,0,1,3]","action_history":"[1,1,1,1,1,1]","door_history":"[1,1,1,1,1,1]","location_rts":"[4960,1268,4398,1767,597,5378]","trial_type":"two-door-navigation","trial_index":2,"time_elapsed":139965,"internal_node_id":"0.0-2.0-0.0"},{"group":"hexagon_tri","room_assignment":["green","grey","blue","red","purple","yellow"],"door_color_assignment":["black","white"],"door_generator_assignment":[0,1],"goal":1,"start":3,"action_noise":0.15,"location_history":"[3,2,3,4,2,1]","action_history":"[1,1,1,1,1]","door_history":"[1,1,1,1,1]","location_rts":"[6922,1272,1039,1747,1309]","trial_type":"two-door-navigation","trial_index":3,"time_elapsed":160895,"internal_node_id":"0.0-2.0-1.0"},{"group":"hexagon_tri","room_assignment":["green","grey","blue","red","purple","yellow"],"door_color_assignment":["black","white"],"door_generator_assignment":[0,1],"goal":0,"start":1,"action_noise":0.15,"location_history":"[1,5,4,0]","action_history":"[0,0,0]","door_history":"[0,0,0]","location_rts":"[1781,1152,1148]","trial_type":"two-door-navigation","trial_index":4,"time_elapsed":171563,"internal_node_id":"0.0-2.0-2.0"},{"group":"hexagon_tri","room_assignment":["green","grey","blue","red","purple","yellow"],"door_color_assignment":["black","white"],"door_generator_assignment":[0,1],"goal":3,"start":0,"action_noise":0.15,"location_history":"[0,1,5,0,5,0,1,5,4,0,1,3]","action_history":"[1,1,1,1,1,1,1,0,0,0,0]","door_history":"[1,1,1,1,1,1,1,0,0,0,0]","location_rts":"[3240,1126,1152,1173,1155,1050,2904,1727,970,770,977]","trial_type":"two-door-navigation","trial_index":5,"time_elapsed":202603,"internal_node_id":"0.0-2.0-3.0"},{"group":"hexagon_tri","room_assignment":["green","grey","blue","red","purple","yellow"],"door_color_assignment":["black","white"],"door_generator_assignment":[0,1],"goal":4,"start":3,"action_noise":0.15,"location_history":"[3,4]","action_history":"[1]","door_history":"[1]","location_rts":"[26407]","trial_type":"two-door-navigation","trial_index":6,"time_elapsed":233543,"internal_node_id":"0.0-2.0-4.0"},{"group":"hexagon_tri","room_assignment":["green","grey","blue","red","purple","yellow"],"door_color_assignment":["black","white"],"door_generator_assignment":[0,1],"goal":2,"start":4,"action_noise":0.15,"location_history":"[4,2]","action_history":"[1]","door_history":"[1]","location_rts":"[547]","trial_type":"two-door-navigation","trial_index":7,"time_elapsed":238622,"internal_node_id":"0.0-2.0-5.0"},{"group":"hexagon_tri","room_assignment":["green","grey","blue","red","purple","yellow"],"door_color_assignment":["black","white"],"door_generator_assignment":[0,1],"goal":1,"start":2,"action_noise":0.15,"location_history":"[2,3,4,2,3,4,2,1]","action_history":"[1,1,1,1,1,1,0]","door_history":"[1,1,1,1,1,1,0]","location_rts":"[1642,1652,1255,830,1226,598,1349]","trial_type":"two-door-navigation","trial_index":8,"time_elapsed":257863,"internal_node_id":"0.0-2.0-6.0"},{"group":"hexagon_tri","room_assignment":["green","grey","blue","red","purple","yellow"],"door_color_assignment":["black","white"],"door_generator_assignment":[0,1],"goal":5,"start":1,"action_noise":0.15,"location_history":"[1,3,2,1,3,2,1,3,4,0,5]","action_history":"[0,0,0,0,0,0,0,0,0,0]","door_history":"[0,0,0,0,0,0,0,0,0,0]","location_rts":"[487,1643,946,1028,1294,680,4182,1009,1363,1401]","trial_type":"two-door-navigation","trial_index":9,"time_elapsed":285665,"internal_node_id":"0.0-2.0-7.0"},{"group":"hexagon_tri","room_assignment":["green","grey","blue","red","purple","yellow"],"door_color_assignment":["black","white"],"door_generator_assignment":[0,1],"goal":4,"start":5,"action_noise":0.15,"location_history":"[5,0,1,5,0,5,4]","action_history":"[1,1,1,0,0,0]","door_history":"[1,1,1,0,0,0]","location_rts":"[2186,664,1012,955,795,860]","trial_type":"two-door-navigation","trial_index":10,"time_elapsed":301807,"internal_node_id":"0.0-2.0-8.0"},{"group":"hexagon_tri","room_assignment":["green","grey","blue","red","purple","yellow"],"door_color_assignment":["black","white"],"door_generator_assignment":[0,1],"goal":2,"start":4,"action_noise":0.15,"location_history":"[4,2]","action_history":"[1]","door_history":"[1]","location_rts":"[2298]","trial_type":"two-door-navigation","trial_index":11,"time_elapsed":308636,"internal_node_id":"0.0-2.0-9.0"},{"group":"hexagon_tri","room_assignment":["green","grey","blue","red","purple","yellow"],"door_color_assignment":["black","white"],"door_generator_assignment":[0,1],"goal":0,"start":2,"action_noise":0.15,"location_history":"[2,3,4,0]","action_history":"[1,1,1]","door_history":"[1,1,1]","location_rts":"[377,850,518]","trial_type":"two-door-navigation","trial_index":12,"time_elapsed":316969,"internal_node_id":"0.0-2.0-10.0"},{"group":"hexagon_tri","room_assignment":["green","grey","blue","red","purple","yellow"],"door_color_assignment":["black","white"],"door_generator_assignment":[0,1],"goal":1,"start":0,"action_noise":0.15,"location_history":"[0,5,4,2,3,2,1]","action_history":"[1,1,1,1,1,1]","door_history":"[1,1,1,1,1,1]","location_rts":"[757,3113,1971,878,1498,958]","trial_type":"two-door-navigation","trial_index":13,"time_elapsed":335806,"internal_node_id":"0.0-2.0-11.0"},{"group":"hexagon_tri","room_assignment":["green","grey","blue","red","purple","yellow"],"door_color_assignment":["black","white"],"door_generator_assignment":[0,1],"goal":3,"start":1,"action_noise":0.15,"location_history":"[1,3]","action_history":"[0]","door_history":"[0]","location_rts":"[2447]","trial_type":"two-door-navigation","trial_index":14,"time_elapsed":342780,"internal_node_id":"0.0-2.0-12.0"},{"group":"hexagon_tri","room_assignment":["green","grey","blue","red","purple","yellow"],"door_color_assignment":["black","white"],"door_generator_assignment":[0,1],"goal":5,"start":3,"action_noise":0.15,"location_history":"[3,4,2,3,4,0,5]","action_history":"[1,1,1,1,0,0]","door_history":"[1,1,1,1,0,0]","location_rts":"[2105,703,613,674,1187,759]","trial_type":"two-door-navigation","trial_index":15,"time_elapsed":358486,"internal_node_id":"0.0-2.0-13.0"},{"group":"hexagon_tri","room_assignment":["green","grey","blue","red","purple","yellow"],"door_color_assignment":["black","white"],"door_generator_assignment":[0,1],"goal":4,"start":5,"action_noise":0.15,"location_history":"[5,0,1,5,0,1,5,0,1,3,2,1,3,4]","action_history":"[1,1,1,1,1,1,1,1,0,0,0,0,1]","door_history":"[1,1,1,1,1,1,1,1,0,0,0,0,1]","location_rts":"[1340,884,1116,1042,1074,915,680,558,1965,899,678,813,999]","trial_type":"two-door-navigation","trial_index":16,"time_elapsed":388311,"internal_node_id":"0.0-2.0-14.0"},{"group":"hexagon_tri","room_assignment":["green","grey","blue","red","purple","yellow"],"door_color_assignment":["black","white"],"door_generator_assignment":[0,1],"goal":0,"start":4,"action_noise":0.15,"location_history":"[4,2,1,3,4,2,3,2,1,3,4,2,3,4,0]","action_history":"[1,0,0,1,1,1,0,0,0,1,1,1,1,1]","door_history":"[1,0,0,1,1,1,0,0,0,1,1,1,1,1]","location_rts":"[578,6546,961,1146,1097,760,1515,690,733,930,696,497,549,2151]","trial_type":"two-door-navigation","trial_index":17,"time_elapsed":425063,"internal_node_id":"0.0-2.0-15.0"},{"group":"hexagon_tri","room_assignment":["green","grey","blue","red","purple","yellow"],"door_color_assignment":["black","white"],"door_generator_assignment":[0,1],"goal":3,"start":0,"action_noise":0.15,"location_history":"[0,1,5,4,2,1,3]","action_history":"[1,1,1,1,0,0]","door_history":"[1,1,1,1,0,0]","location_rts":"[776,768,1180,1050,1751,874]","trial_type":"two-door-navigation","trial_index":18,"time_elapsed":441136,"internal_node_id":"0.0-2.0-16.0"},{"group":"hexagon_tri","room_assignment":["green","grey","blue","red","purple","yellow"],"door_color_assignment":["black","white"],"door_generator_assignment":[0,1],"goal":1,"start":3,"action_noise":0.15,"location_history":"[3,4,0,1]","action_history":"[1,1,1]","door_history":"[1,1,1]","location_rts":"[2754,646,855]","trial_type":"two-door-navigation","trial_index":19,"time_elapsed":451975,"internal_node_id":"0.0-2.0-17.0"},{"group":"hexagon_tri","room_assignment":["green","grey","blue","red","purple","yellow"],"door_color_assignment":["black","white"],"door_generator_assignment":[0,1],"goal":5,"start":1,"action_noise":0.15,"location_history":"[1,5]","action_history":"[1]","door_history":"[1]","location_rts":"[805]","trial_type":"two-door-navigation","trial_index":20,"time_elapsed":457310,"internal_node_id":"0.0-2.0-18.0"},{"group":"hexagon_tri","room_assignment":["green","grey","blue","red","purple","yellow"],"door_color_assignment":["black","white"],"door_generator_assignment":[0,1],"goal":2,"start":5,"action_noise":0.15,"location_history":"[5,0,1,5,0,5,4,2]","action_history":"[1,1,1,1,1,0,0]","door_history":"[1,1,1,1,1,0,0]","location_rts":"[790,893,869,790,776,1083,550]","trial_type":"two-door-navigation","trial_index":21,"time_elapsed":473756,"internal_node_id":"0.0-2.0-19.0"},{"group":"hexagon_tri","room_assignment":["green","grey","blue","red","purple","yellow"],"door_color_assignment":["black","white"],"door_generator_assignment":[0,1],"goal":4,"start":2,"action_noise":0.15,"location_history":"[2,1,5,4]","action_history":"[0,0,0]","door_history":"[0,0,0]","location_rts":"[1265,471,601]","trial_type":"two-door-navigation","trial_index":22,"time_elapsed":482673,"internal_node_id":"0.0-2.0-20.0"},{"group":"hexagon_tri","room_assignment":["green","grey","blue","red","purple","yellow"],"door_color_assignment":["black","white"],"door_generator_assignment":[0,1],"goal":1,"start":4,"action_noise":0.15,"location_history":"[4,0,5,4,2,3,4,0,1]","action_history":"[0,0,0,1,1,1,1,1]","door_history":"[0,0,0,1,1,1,1,1]","location_rts":"[665,454,4536,605,481,454,510,673]","trial_type":"two-door-navigation","trial_index":23,"time_elapsed":502777,"internal_node_id":"0.0-2.0-21.0"},{"group":"hexagon_tri","room_assignment":["green","grey","blue","red","purple","yellow"],"door_color_assignment":["black","white"],"door_generator_assignment":[0,1],"goal":3,"start":1,"action_noise":0.15,"location_history":"[1,3]","action_history":"[0]","door_history":"[0]","location_rts":"[2107]","trial_type":"two-door-navigation","trial_index":24,"time_elapsed":509421,"internal_node_id":"0.0-2.0-22.0"},{"group":"hexagon_tri","room_assignment":["green","grey","blue","red","purple","yellow"],"door_color_assignment":["black","white"],"door_generator_assignment":[0,1],"goal":2,"start":3,"action_noise":0.15,"location_history":"[3,2]","action_history":"[0]","door_history":"[0]","location_rts":"[2073]","trial_type":"two-door-navigation","trial_index":25,"time_elapsed":516030,"internal_node_id":"0.0-2.0-23.0"},{"group":"hexagon_tri","room_assignment":["green","grey","blue","red","purple","yellow"],"door_color_assignment":["black","white"],"door_generator_assignment":[0,1],"goal":0,"start":2,"action_noise":0.15,"location_history":"[2,3,2,3,2,1,3,4,2,3,4,0]","action_history":"[1,1,1,0,0,1,1,1,0,0,0]","door_history":"[1,1,1,0,0,1,1,1,0,0,0]","location_rts":"[2633,758,887,508,504,1036,613,1055,752,477,526]","trial_type":"two-door-navigation","trial_index":26,"time_elapsed":540581,"internal_node_id":"0.0-2.0-24.0"},{"group":"hexagon_tri","room_assignment":["green","grey","blue","red","purple","yellow"],"door_color_assignment":["black","white"],"door_generator_assignment":[0,1],"goal":5,"start":0,"action_noise":0.15,"location_history":"[0,1,5]","action_history":"[1,1]","door_history":"[1,1]","location_rts":"[2342,593]","trial_type":"two-door-navigation","trial_index":27,"time_elapsed":549075,"internal_node_id":"0.0-2.0-25.0"},{"group":"hexagon_tri","room_assignment":["green","grey","blue","red","purple","yellow"],"door_color_assignment":["black","white"],"door_generator_assignment":[0,1],"goal":2,"start":5,"action_noise":0.15,"location_history":"[5,0,5,0,1,5,0,1,5,4,0,5,0,5,4,0,5,0,1,5,0,5,4,0,5,4,0,5,0,1,5,4,2]","action_history":"[1,1,1,1,1,1,1,1,0,0,0,0,0,0,0,1,1,1,1,1,0,0,0,0,0,0,0,1,1,1,0,1]","door_history":"[1,1,1,1,1,1,1,1,0,0,0,0,0,0,0,1,1,1,1,1,0,0,0,0,0,0,0,1,1,1,0,1]","location_rts":"[572,812,1059,746,1006,905,448,589,1070,2224,729,523,566,672,1088,1006,449,862,858,615,1065,472,1195,614,548,552,573,419,586,650,5181,503]","trial_type":"two-door-navigation","trial_index":28,"time_elapsed":614571,"internal_node_id":"0.0-2.0-26.0"},{"group":"hexagon_tri","room_assignment":["green","grey","blue","red","purple","yellow"],"door_color_assignment":["black","white"],"door_generator_assignment":[0,1],"goal":3,"start":2,"action_noise":0.15,"location_history":"[2,3]","action_history":"[1]","door_history":"[1]","location_rts":"[888]","trial_type":"two-door-navigation","trial_index":29,"time_elapsed":619992,"internal_node_id":"0.0-2.0-27.0"},{"group":"hexagon_tri","room_assignment":["green","grey","blue","red","purple","yellow"],"door_color_assignment":["black","white"],"door_generator_assignment":[0,1],"goal":0,"start":3,"action_noise":0.15,"location_history":"[3,2,1,5,0]","action_history":"[0,0,1,1]","door_history":"[0,0,1,1]","location_rts":"[1184,1292,746,577]","trial_type":"two-door-navigation","trial_index":30,"time_elapsed":631405,"internal_node_id":"0.0-2.0-28.0"},{"group":"hexagon_tri","room_assignment":["green","grey","blue","red","purple","yellow"],"door_color_assignment":["black","white"],"door_generator_assignment":[0,1],"goal":1,"start":0,"action_noise":0.15,"location_history":"[0,1]","action_history":"[1]","door_history":"[1]","location_rts":"[1316]","trial_type":"two-door-navigation","trial_index":31,"time_elapsed":637259,"internal_node_id":"0.0-2.0-29.0"},{"group":"hexagon_tri","room_assignment":["green","grey","blue","red","purple","yellow"],"door_color_assignment":["black","white"],"door_generator_assignment":[0,1],"goal":4,"start":1,"action_noise":0.15,"location_history":"[1,5,0,1,5,0,5,4]","action_history":"[1,1,1,1,1,0,0]","door_history":"[1,1,1,1,1,0,0]","location_rts":"[3239,547,418,724,725,563,502]","trial_type":"two-door-navigation","trial_index":32,"time_elapsed":654683,"internal_node_id":"0.0-2.0-30.0"},{"group":"hexagon_tri","room_assignment":["green","grey","blue","red","purple","yellow"],"door_color_assignment":["black","white"],"door_generator_assignment":[0,1],"goal":5,"start":4,"action_noise":0.15,"location_history":"[4,0,1,5]","action_history":"[0,1,1]","door_history":"[0,1,1]","location_rts":"[4185,558,443]","trial_type":"two-door-navigation","trial_index":33,"time_elapsed":666452,"internal_node_id":"0.0-2.0-31.0"},{"group":"hexagon_tri","room_assignment":["green","grey","blue","red","purple","yellow"],"door_color_assignment":["black","white"],"door_generator_assignment":[0,1],"goal":0,"start":5,"action_noise":0.15,"location_history":"[5,0]","action_history":"[1]","door_history":"[1]","location_rts":"[1733]","trial_type":"two-door-navigation","trial_index":34,"time_elapsed":672716,"internal_node_id":"0.0-2.0-32.0"},{"group":"hexagon_tri","room_assignment":["green","grey","blue","red","purple","yellow"],"door_color_assignment":["black","white"],"door_generator_assignment":[0,1],"goal":3,"start":0,"action_noise":0.15,"location_history":"[0,5,4,0,1,5,0,1,5,4,0,5,4,0,5,0,1,5,0,1,3]","action_history":"[0,0,0,0,1,1,1,1,0,0,0,0,0,0,1,1,1,1,1,0]","door_history":"[0,0,0,0,1,1,1,1,0,0,0,0,0,0,1,1,1,1,1,0]","location_rts":"[2203,524,569,554,404,416,496,443,445,389,489,477,434,426,412,379,390,508,448,418]","trial_type":"two-door-navigation","trial_index":35,"time_elapsed":707574,"internal_node_id":"0.0-2.0-33.0"},{"group":"hexagon_tri","room_assignment":["green","grey","blue","red","purple","yellow"],"door_color_assignment":["black","white"],"door_generator_assignment":[0,1],"goal":1,"start":3,"action_noise":0.15,"location_history":"[3,2,3,4,0,5,4,0,1]","action_history":"[1,1,1,0,0,0,0,0]","door_history":"[1,1,1,0,0,0,0,0]","location_rts":"[1215,555,507,317,508,617,537,663]","trial_type":"two-door-navigation","trial_index":36,"time_elapsed":724184,"internal_node_id":"0.0-2.0-34.0"},{"group":"hexagon_tri","room_assignment":["green","grey","blue","red","purple","yellow"],"door_color_assignment":["black","white"],"door_generator_assignment":[0,1],"goal":2,"start":1,"action_noise":0.15,"location_history":"[1,3,2]","action_history":"[0,0]","door_history":"[0,0]","location_rts":"[927,1008]","trial_type":"two-door-navigation","trial_index":37,"time_elapsed":731680,"internal_node_id":"0.0-2.0-35.0"},{"group":"hexagon_tri","room_assignment":["green","grey","blue","red","purple","yellow"],"door_color_assignment":["black","white"],"door_generator_assignment":[0,1],"goal":4,"start":2,"action_noise":0.15,"location_history":"[2,3,4]","action_history":"[1,1]","door_history":"[1,1]","location_rts":"[4089,925]","trial_type":"two-door-navigation","trial_index":38,"time_elapsed":742255,"internal_node_id":"0.0-2.0-36.0"},{"group":"hexagon_tri","room_assignment":["green","grey","blue","red","purple","yellow"],"door_color_assignment":["black","white"],"door_generator_assignment":[0,1],"goal":5,"start":4,"action_noise":0.15,"location_history":"[4,0,5]","action_history":"[0,0]","door_history":"[0,0]","location_rts":"[1447,745]","trial_type":"two-door-navigation","trial_index":39,"time_elapsed":750009,"internal_node_id":"0.0-2.0-37.0"},{"group":"hexagon_tri","room_assignment":["green","grey","blue","red","purple","yellow"],"door_color_assignment":["black","white"],"door_generator_assignment":[0,1],"goal":1,"start":5,"action_noise":0.15,"location_history":"[5,4,0,5,4,0,5,0,1]","action_history":"[0,0,0,0,0,1,1,1]","door_history":"[0,0,0,0,0,1,1,1]","location_rts":"[1133,611,1390,4339,534,3036,718,629]","trial_type":"two-door-navigation","trial_index":40,"time_elapsed":774117,"internal_node_id":"0.0-2.0-38.0"},{"group":"hexagon_tri","room_assignment":["green","grey","blue","red","purple","yellow"],"door_color_assignment":["black","white"],"door_generator_assignment":[0,1],"goal":4,"start":1,"action_noise":0.15,"location_history":"[1,5,0,1,3,4]","action_history":"[1,1,1,1,1]","door_history":"[1,1,1,1,1]","location_rts":"[449,483,505,1071,2079]","trial_type":"two-door-navigation","trial_index":41,"time_elapsed":787356,"internal_node_id":"0.0-2.0-39.0"},{"group":"hexagon_tri","room_assignment":["green","grey","blue","red","purple","yellow"],"door_color_assignment":["black","white"],"door_generator_assignment":[0,1],"goal":3,"start":4,"action_noise":0.15,"location_history":"[4,0,1,5,0,1,3]","action_history":"[1,1,1,1,1,0]","door_history":"[1,1,1,1,1,0]","location_rts":"[546,763,559,530,736,806]","trial_type":"two-door-navigation","trial_index":42,"time_elapsed":800955,"internal_node_id":"0.0-2.0-40.0"},{"group":"hexagon_tri","room_assignment":["green","grey","blue","red","purple","yellow"],"door_color_assignment":["black","white"],"door_generator_assignment":[0,1],"goal":2,"start":3,"action_noise":0.15,"location_history":"[3,2]","action_history":"[0]","door_history":"[0]","location_rts":"[1154]","trial_type":"two-door-navigation","trial_index":43,"time_elapsed":806647,"internal_node_id":"0.0-2.0-41.0"},{"group":"hexagon_tri","room_assignment":["green","grey","blue","red","purple","yellow"],"door_color_assignment":["black","white"],"door_generator_assignment":[0,1],"goal":0,"start":2,"action_noise":0.15,"location_history":"[2,1,5,0]","action_history":"[0,0,1]","door_history":"[0,0,1]","location_rts":"[279,855,940]","trial_type":"two-door-navigation","trial_index":44,"time_elapsed":815310,"internal_node_id":"0.0-2.0-42.0"},{"group":"hexagon_tri","room_assignment":["green","grey","blue","red","purple","yellow"],"door_color_assignment":["black","white"],"door_generator_assignment":[0,1],"goal":5,"start":0,"action_noise":0.15,"location_history":"[0,1,5]","action_history":"[1,1]","door_history":"[1,1]","location_rts":"[3208,563]","trial_type":"two-door-navigation","trial_index":45,"time_elapsed":824638,"internal_node_id":"0.0-2.0-43.0"},{"group":"hexagon_tri","room_assignment":["green","grey","blue","red","purple","yellow"],"door_color_assignment":["black","white"],"door_generator_assignment":[0,1],"goal":0,"start":5,"action_noise":0.15,"location_history":"[5,0]","action_history":"[1]","door_history":"[1]","location_rts":"[2785]","trial_type":"two-door-navigation","trial_index":46,"time_elapsed":831948,"internal_node_id":"0.0-2.0-44.0"},{"group":"hexagon_tri","room_assignment":["green","grey","blue","red","purple","yellow"],"door_color_assignment":["black","white"],"door_generator_assignment":[0,1],"goal":2,"start":0,"action_noise":0.15,"location_history":"[0,5,4,0,5,4,0,1,5,0,1,5,0,1,3,4,2]","action_history":"[0,0,0,0,0,0,1,1,1,1,1,1,1,0,0,0]","door_history":"[0,0,0,0,0,0,1,1,1,1,1,1,1,0,0,0]","location_rts":"[1896,1098,3113,12634,901,503,1523,1115,912,892,2316,479,600,442,816,674]","trial_type":"two-door-navigation","trial_index":47,"time_elapsed":881789,"internal_node_id":"0.0-2.0-45.0"},{"group":"hexagon_tri","room_assignment":["green","grey","blue","red","purple","yellow"],"door_color_assignment":["black","white"],"door_generator_assignment":[0,1],"goal":4,"start":2,"action_noise":0.15,"location_history":"[2,1,3,4]","action_history":"[0,0,1]","door_history":"[0,0,1]","location_rts":"[1805,1135,3305]","trial_type":"two-door-navigation","trial_index":48,"time_elapsed":894617,"internal_node_id":"0.0-2.0-46.0"},{"group":"hexagon_tri","room_assignment":["green","grey","blue","red","purple","yellow"],"door_color_assignment":["black","white"],"door_generator_assignment":[0,1],"goal":1,"start":4,"action_noise":0.15,"location_history":"[4,2,3,4,0,5,4,0,5,0,1]","action_history":"[1,1,1,0,0,0,0,0,1,1]","door_history":"[1,1,1,0,0,0,0,0,1,1]","location_rts":"[2007,413,378,1236,455,772,946,567,10235,752]","trial_type":"two-door-navigation","trial_index":49,"time_elapsed":926147,"internal_node_id":"0.0-2.0-47.0"},{"group":"hexagon_tri","room_assignment":["green","grey","blue","red","purple","yellow"],"door_color_assignment":["black","white"],"door_generator_assignment":[0,1],"goal":5,"start":1,"action_noise":0.15,"location_history":"[1,3,2,3,2,1,3,4,2,3,4,0,1,5]","action_history":"[0,0,0,0,0,0,1,1,1,1,1,1,1]","door_history":"[0,0,0,0,0,0,1,1,1,1,1,1,1]","location_rts":"[3707,888,872,1252,525,1638,992,738,1557,685,7921,1001,491]","trial_type":"two-door-navigation","trial_index":50,"time_elapsed":965257,"internal_node_id":"0.0-2.0-48.0"},{"group":"hexagon_tri","room_assignment":["green","grey","blue","red","purple","yellow"],"door_color_assignment":["black","white"],"door_generator_assignment":[0,1],"goal":3,"start":5,"action_noise":0.15,"location_history":"[5,4,0,5,4,0,1,5,0,1,5,0,1,3]","action_history":"[0,0,0,0,0,1,1,1,1,1,1,1,0]","door_history":"[0,0,0,0,0,1,1,1,1,1,1,1,0]","location_rts":"[4000,457,4232,1045,355,1326,814,549,467,1797,861,703,1490]","trial_type":"two-door-navigation","trial_index":51,"time_elapsed":1000204,"internal_node_id":"0.0-2.0-49.0"},{"view_history":"[{\"page_index\":0,\"viewing_time\":3326}]","rt":3327,"trial_type":"instructions","trial_index":52,"time_elapsed":1004532,"internal_node_id":"0.0-3.0"},{"view_history":"[{\"page_index\":0,\"viewing_time\":3058},{\"page_index\":1,\"viewing_time\":19646}]","rt":22705,"trial_type":"instructions","trial_index":53,"time_elapsed":1028238,"internal_node_id":"0.0-4.0"},{"group":"hexagon_bi","fractal_assignment":["../images/ylw_slt.png","../images/org_blu.png","../images/cyn_red.png","../images/pnk_blu.png","../images/blu_wht.png","../images/gry_blk.png"],"mutagen_generator_assignment":[0,1],"goal":3,"start":5,"action_noise":0.15,"location_history":"[5,0,5,4,3]","action_history":"[0,0,0,0]","mutagen_history":"[0,0,0,0]","location_rts":"[14489,3102,1037,2918]","trial_type":"fractal-mutation","trial_index":54,"time_elapsed":1057493,"internal_node_id":"0.0-5.0-0.0"},{"group":"hexagon_bi","fractal_assignment":["../images/ylw_slt.png","../images/org_blu.png","../images/cyn_red.png","../images/pnk_blu.png","../images/blu_wht.png","../images/gry_blk.png"],"mutagen_generator_assignment":[0,1],"goal":1,"start":3,"action_noise":0.15,"location_history":"[3,2,3,2,1]","action_history":"[1,1,1,1]","mutagen_history":"[1,1,1,1]","location_rts":"[3174,1747,1956,1802]","trial_type":"fractal-mutation","trial_index":55,"time_elapsed":1073902,"internal_node_id":"0.0-5.0-1.0"},{"group":"hexagon_bi","fractal_assignment":["../images/ylw_slt.png","../images/org_blu.png","../images/cyn_red.png","../images/pnk_blu.png","../images/blu_wht.png","../images/gry_blk.png"],"mutagen_generator_assignment":[0,1],"goal":0,"start":1,"action_noise":0.15,"location_history":"[1,2,1,2,1,2,3,2,3,2,1,2,1,2,1,0]","action_history":"[0,0,0,0,0,1,1,1,1,0,0,0,0,0,0]","mutagen_history":"[0,0,0,0,0,1,1,1,1,0,0,0,0,0,0]","location_rts":"[2970,780,1306,869,921,645,1164,695,970,581,712,895,879,830,1014]","trial_type":"fractal-mutation","trial_index":56,"time_elapsed":1108240,"internal_node_id":"0.0-5.0-2.0"},{"group":"hexagon_bi","fractal_assignment":["../images/ylw_slt.png","../images/org_blu.png","../images/cyn_red.png","../images/pnk_blu.png","../images/blu_wht.png","../images/gry_blk.png"],"mutagen_generator_assignment":[0,1],"goal":3,"start":0,"action_noise":0.15,"location_history":"[0,1,2,3]","action_history":"[1,1,1]","mutagen_history":"[1,1,1]","location_rts":"[1496,4962,2740]","trial_type":"fractal-mutation","trial_index":57,"time_elapsed":1124099,"internal_node_id":"0.0-5.0-3.0"},{"group":"hexagon_bi","fractal_assignment":["../images/ylw_slt.png","../images/org_blu.png","../images/cyn_red.png","../images/pnk_blu.png","../images/blu_wht.png","../images/gry_blk.png"],"mutagen_generator_assignment":[0,1],"goal":4,"start":3,"action_noise":0.15,"location_history":"[3,2,3,2,3,2,1,2,1,2,1,2,1,2,1,2,1,0,1,2,3,4]","action_history":"[1,1,1,1,1,0,0,0,0,0,0,0,0,0,1,1,1,1,1,1,0]","mutagen_history":"[1,1,1,1,1,0,0,0,0,0,0,0,0,0,1,1,1,1,1,1,0]","location_rts":"[3213,5375,1750,1379,1263,957,1339,2420,1605,793,1722,3320,1146,699,912,745,904,1520,926,1791,3417]","trial_type":"fractal-mutation","trial_index":58,"time_elapsed":1186649,"internal_node_id":"0.0-5.0-4.0"},{"group":"hexagon_bi","fractal_assignment":["../images/ylw_slt.png","../images/org_blu.png","../images/cyn_red.png","../images/pnk_blu.png","../images/blu_wht.png","../images/gry_blk.png"],"mutagen_generator_assignment":[0,1],"goal":2,"start":4,"action_noise":0.15,"location_history":"[4,3,4,3,4,5,0,1,0,1,0,1,0,5,0,1,0,1,0,1,0,1,0,1,0,1,2]","action_history":"[0,0,0,1,1,1,1,1,1,1,1,1,0,1,1,1,1,1,1,1,1,0,1,1,1,1]","mutagen_history":"[0,0,0,1,1,1,1,1,1,1,1,1,0,1,1,1,1,1,1,1,1,0,1,1,1,1]","location_rts":"[504,2052,1028,5387,2101,1353,656,670,710,916,698,511,588,764,614,581,525,1554,1478,1712,628,1537,15551,926,783,622]","trial_type":"fractal-mutation","trial_index":59,"time_elapsed":1261793,"internal_node_id":"0.0-5.0-5.0"},{"group":"hexagon_bi","fractal_assignment":["../images/ylw_slt.png","../images/org_blu.png","../images/cyn_red.png","../images/pnk_blu.png","../images/blu_wht.png","../images/gry_blk.png"],"mutagen_generator_assignment":[0,1],"goal":1,"start":2,"action_noise":0.15,"location_history":"[2,1]","action_history":"[0]","mutagen_history":"[0]","location_rts":"[1050]","trial_type":"fractal-mutation","trial_index":60,"time_elapsed":1267385,"internal_node_id":"0.0-5.0-6.0"},{"group":"hexagon_bi","fractal_assignment":["../images/ylw_slt.png","../images/org_blu.png","../images/cyn_red.png","../images/pnk_blu.png","../images/blu_wht.png","../images/gry_blk.png"],"mutagen_generator_assignment":[0,1],"goal":5,"start":1,"action_noise":0.15,"location_history":"[1,0,5]","action_history":"[0,0]","mutagen_history":"[0,0]","location_rts":"[1655,487]","trial_type":"fractal-mutation","trial_index":61,"time_elapsed":1275095,"internal_node_id":"0.0-5.0-7.0"},{"group":"hexagon_bi","fractal_assignment":["../images/ylw_slt.png","../images/org_blu.png","../images/cyn_red.png","../images/pnk_blu.png","../images/blu_wht.png","../images/gry_blk.png"],"mutagen_generator_assignment":[0,1],"goal":4,"start":5,"action_noise":0.15,"location_history":"[5,0,5,4]","action_history":"[0,0,1]","mutagen_history":"[0,0,1]","location_rts":"[2641,954,1993]","trial_type":"fractal-mutation","trial_index":62,"time_elapsed":1287315,"internal_node_id":"0.0-5.0-8.0"},{"group":"hexagon_bi","fractal_assignment":["../images/ylw_slt.png","../images/org_blu.png","../images/cyn_red.png","../images/pnk_blu.png","../images/blu_wht.png","../images/gry_blk.png"],"mutagen_generator_assignment":[0,1],"goal":2,"start":4,"action_noise":0.15,"location_history":"[4,5,4,5,4,3,4,3,4,3,4,5,4,5,4,5,0,1,0,1,0,1,0,5,0,5,0,5,0,1,0,1,2]","action_history":"[1,1,1,1,0,0,0,0,0,0,1,1,1,1,1,1,1,1,1,1,1,1,0,0,0,0,0,0,1,1,1,1]","mutagen_history":"[1,1,1,1,0,0,0,0,0,0,1,1,1,1,1,1,1,1,1,1,1,1,0,0,0,0,0,0,1,1,1,1]","location_rts":"[4044,1581,1943,999,1172,918,937,703,1515,989,1294,995,820,702,609,584,423,1080,878,948,500,770,543,1053,601,1011,548,770,653,1166,562,659]","trial_type":"fractal-mutation","trial_index":63,"time_elapsed":1356183,"internal_node_id":"0.0-5.0-9.0"},{"group":"hexagon_bi","fractal_assignment":["../images/ylw_slt.png","../images/org_blu.png","../images/cyn_red.png","../images/pnk_blu.png","../images/blu_wht.png","../images/gry_blk.png"],"mutagen_generator_assignment":[0,1],"goal":0,"start":2,"action_noise":0.15,"location_history":"[2,3,2,3,2,1,2,1,2,1,0]","action_history":"[0,1,1,1,0,0,0,0,0,1]","mutagen_history":"[0,1,1,1,0,0,0,0,0,1]","location_rts":"[1139,1373,3280,769,583,608,618,584,665,521]","trial_type":"fractal-mutation","trial_index":64,"time_elapsed":1380219,"internal_node_id":"0.0-5.0-10.0"},{"group":"hexagon_bi","fractal_assignment":["../images/ylw_slt.png","../images/org_blu.png","../images/cyn_red.png","../images/pnk_blu.png","../images/blu_wht.png","../images/gry_blk.png"],"mutagen_generator_assignment":[0,1],"goal":1,"start":0,"action_noise":0.15,"location_history":"[0,1]","action_history":"[1]","mutagen_history":"[1]","location_rts":"[905]","trial_type":"fractal-mutation","trial_index":65,"time_elapsed":1385685,"internal_node_id":"0.0-5.0-11.0"},{"group":"hexagon_bi","fractal_assignment":["../images/ylw_slt.png","../images/org_blu.png","../images/cyn_red.png","../images/pnk_blu.png","../images/blu_wht.png","../images/gry_blk.png"],"mutagen_generator_assignment":[0,1],"goal":3,"start":1,"action_noise":0.15,"location_history":"[1,0,5,0,1,2,1,2,1,2,1,0,5,0,1,2,3]","action_history":"[1,1,1,1,0,0,0,0,0,0,0,1,1,1,0,1]","mutagen_history":"[1,1,1,1,0,0,0,0,0,0,0,1,1,1,0,1]","location_rts":"[654,574,627,566,489,540,443,523,741,864,1249,778,817,5007,522,1106]","trial_type":"fractal-mutation","trial_index":66,"time_elapsed":1421336,"internal_node_id":"0.0-5.0-12.0"},{"group":"hexagon_bi","fractal_assignment":["../images/ylw_slt.png","../images/org_blu.png","../images/cyn_red.png","../images/pnk_blu.png","../images/blu_wht.png","../images/gry_blk.png"],"mutagen_generator_assignment":[0,1],"goal":5,"start":3,"action_noise":0.15,"location_history":"[3,4,5]","action_history":"[1,1]","mutagen_history":"[1,1]","location_rts":"[793,592]","trial_type":"fractal-mutation","trial_index":67,"time_elapsed":1428327,"internal_node_id":"0.0-5.0-13.0"},{"group":"hexagon_bi","fractal_assignment":["../images/ylw_slt.png","../images/org_blu.png","../images/cyn_red.png","../images/pnk_blu.png","../images/blu_wht.png","../images/gry_blk.png"],"mutagen_generator_assignment":[0,1],"goal":4,"start":5,"action_noise":0.15,"location_history":"[5,0,1,2,1,2,1,0,1,2,3,2,3,2,1,2,1,2,1,2,1,2,1,0,1,2,3,4]","action_history":"[0,1,1,0,0,0,1,0,0,1,1,1,1,0,0,0,0,0,0,0,0,0,1,1,1,1,0]","mutagen_history":"[0,1,1,0,0,0,1,0,0,1,1,1,1,0,0,0,0,0,0,0,0,0,1,1,1,1,0]","location_rts":"[858,4213,932,1209,640,860,3267,452,661,593,1801,1319,767,1843,1107,713,568,672,491,550,1347,1297,960,797,605,712,535]","trial_type":"fractal-mutation","trial_index":68,"time_elapsed":1489735,"internal_node_id":"0.0-5.0-14.0"},{"group":"hexagon_bi","fractal_assignment":["../images/ylw_slt.png","../images/org_blu.png","../images/cyn_red.png","../images/pnk_blu.png","../images/blu_wht.png","../images/gry_blk.png"],"mutagen_generator_assignment":[0,1],"goal":0,"start":4,"action_noise":0.15,"location_history":"[4,3,2,3,4,3,4,3,2,3,4,5,4,5,4,5,4,5,0]","action_history":"[0,0,0,0,0,0,0,0,0,1,1,1,1,1,1,1,1,1]","mutagen_history":"[0,0,0,0,0,0,0,0,0,1,1,1,1,1,1,1,1,1]","location_rts":"[2002,756,1482,522,651,452,516,477,557,412,498,485,513,407,475,616,1086,254]","trial_type":"fractal-mutation","trial_index":69,"time_elapsed":1524143,"internal_node_id":"0.0-5.0-15.0"},{"group":"hexagon_bi","fractal_assignment":["../images/ylw_slt.png","../images/org_blu.png","../images/cyn_red.png","../images/pnk_blu.png","../images/blu_wht.png","../images/gry_blk.png"],"mutagen_generator_assignment":[0,1],"goal":3,"start":0,"action_noise":0.15,"location_history":"[0,5,0,5,0,5,4,3]","action_history":"[0,0,0,0,0,1,0]","mutagen_history":"[0,0,0,0,0,1,0]","location_rts":"[2413,620,842,601,431,524,1407]","trial_type":"fractal-mutation","trial_index":70,"time_elapsed":1541738,"internal_node_id":"0.0-5.0-16.0"},{"group":"hexagon_bi","fractal_assignment":["../images/ylw_slt.png","../images/org_blu.png","../images/cyn_red.png","../images/pnk_blu.png","../images/blu_wht.png","../images/gry_blk.png"],"mutagen_generator_assignment":[0,1],"goal":1,"start":3,"action_noise":0.15,"location_history":"[3,4,5,4,3,2,1]","action_history":"[0,1,1,0,0,0]","mutagen_history":"[0,1,1,0,0,0]","location_rts":"[609,845,795,558,735,1035]","trial_type":"fractal-mutation","trial_index":71,"time_elapsed":1556048,"internal_node_id":"0.0-5.0-17.0"},{"group":"hexagon_bi","fractal_assignment":["../images/ylw_slt.png","../images/org_blu.png","../images/cyn_red.png","../images/pnk_blu.png","../images/blu_wht.png","../images/gry_blk.png"],"mutagen_generator_assignment":[0,1],"goal":5,"start":1,"action_noise":0.15,"location_history":"[1,0,1,0,1,0,1,0,5]","action_history":"[1,1,1,1,1,1,1,1]","mutagen_history":"[1,1,1,1,1,1,1,1]","location_rts":"[46,777,464,466,8516,508,492,500]","trial_type":"fractal-mutation","trial_index":72,"time_elapsed":1579707,"internal_node_id":"0.0-5.0-18.0"},{"group":"hexagon_bi","fractal_assignment":["../images/ylw_slt.png","../images/org_blu.png","../images/cyn_red.png","../images/pnk_blu.png","../images/blu_wht.png","../images/gry_blk.png"],"mutagen_generator_assignment":[0,1],"goal":2,"start":5,"action_noise":0.15,"location_history":"[5,4,3,2]","action_history":"[1,0,1]","mutagen_history":"[1,0,1]","location_rts":"[1531,1086,4678]","trial_type":"fractal-mutation","trial_index":73,"time_elapsed":1593642,"internal_node_id":"0.0-5.0-19.0"},{"group":"hexagon_bi","fractal_assignment":["../images/ylw_slt.png","../images/org_blu.png","../images/cyn_red.png","../images/pnk_blu.png","../images/blu_wht.png","../images/gry_blk.png"],"mutagen_generator_assignment":[0,1],"goal":4,"start":2,"action_noise":0.15,"location_history":"[2,3,2,3,2,3,4]","action_history":"[1,1,1,1,1,0]","mutagen_history":"[1,1,1,1,1,0]","location_rts":"[1181,624,450,405,536,407]","trial_type":"fractal-mutation","trial_index":74,"time_elapsed":1607015,"internal_node_id":"0.0-5.0-20.0"},{"group":"hexagon_bi","fractal_assignment":["../images/ylw_slt.png","../images/org_blu.png","../images/cyn_red.png","../images/pnk_blu.png","../images/blu_wht.png","../images/gry_blk.png"],"mutagen_generator_assignment":[0,1],"goal":1,"start":4,"action_noise":0.15,"location_history":"[4,5,4,3,2,3,4,3,4,3,2,3,2,3,2,3,2,1]","action_history":"[1,1,0,1,1,0,0,0,0,1,1,1,1,1,1,1,1]","mutagen_history":"[1,1,0,1,1,0,0,0,0,1,1,1,1,1,1,1,1]","location_rts":"[949,629,38628,3281,662,460,656,514,541,3162,578,617,613,571,4938,716,1492]","trial_type":"fractal-mutation","trial_index":75,"time_elapsed":1687252,"internal_node_id":"0.0-5.0-21.0"},{"group":"hexagon_bi","fractal_assignment":["../images/ylw_slt.png","../images/org_blu.png","../images/cyn_red.png","../images/pnk_blu.png","../images/blu_wht.png","../images/gry_blk.png"],"mutagen_generator_assignment":[0,1],"goal":3,"start":1,"action_noise":0.15,"location_history":"[1,2,3]","action_history":"[1,1]","mutagen_history":"[1,1]","location_rts":"[1452,730]","trial_type":"fractal-mutation","trial_index":76,"time_elapsed":1695036,"internal_node_id":"0.0-5.0-22.0"},{"group":"hexagon_bi","fractal_assignment":["../images/ylw_slt.png","../images/org_blu.png","../images/cyn_red.png","../images/pnk_blu.png","../images/blu_wht.png","../images/gry_blk.png"],"mutagen_generator_assignment":[0,1],"goal":2,"start":3,"action_noise":0.15,"location_history":"[3,2]","action_history":"[1]","mutagen_history":"[1]","location_rts":"[1141]","trial_type":"fractal-mutation","trial_index":77,"time_elapsed":1700732,"internal_node_id":"0.0-5.0-23.0"},{"group":"hexagon_bi","fractal_assignment":["../images/ylw_slt.png","../images/org_blu.png","../images/cyn_red.png","../images/pnk_blu.png","../images/blu_wht.png","../images/gry_blk.png"],"mutagen_generator_assignment":[0,1],"goal":0,"start":2,"action_noise":0.15,"location_history":"[2,1,0]","action_history":"[1,1]","mutagen_history":"[1,1]","location_rts":"[1273,532]","trial_type":"fractal-mutation","trial_index":78,"time_elapsed":1708142,"internal_node_id":"0.0-5.0-24.0"},{"group":"hexagon_bi","fractal_assignment":["../images/ylw_slt.png","../images/org_blu.png","../images/cyn_red.png","../images/pnk_blu.png","../images/blu_wht.png","../images/gry_blk.png"],"mutagen_generator_assignment":[0,1],"goal":5,"start":0,"action_noise":0.15,"location_history":"[0,1,0,5]","action_history":"[1,1,1]","mutagen_history":"[1,1,1]","location_rts":"[1106,615,459]","trial_type":"fractal-mutation","trial_index":79,"time_elapsed":1716969,"internal_node_id":"0.0-5.0-25.0"},{"group":"hexagon_bi","fractal_assignment":["../images/ylw_slt.png","../images/org_blu.png","../images/cyn_red.png","../images/pnk_blu.png","../images/blu_wht.png","../images/gry_blk.png"],"mutagen_generator_assignment":[0,1],"goal":2,"start":5,"action_noise":0.15,"location_history":"[5,4,3,2]","action_history":"[1,1,1]","mutagen_history":"[1,1,1]","location_rts":"[506,1477,610]","trial_type":"fractal-mutation","trial_index":80,"time_elapsed":1726226,"internal_node_id":"0.0-5.0-26.0"},{"group":"hexagon_bi","fractal_assignment":["../images/ylw_slt.png","../images/org_blu.png","../images/cyn_red.png","../images/pnk_blu.png","../images/blu_wht.png","../images/gry_blk.png"],"mutagen_generator_assignment":[0,1],"goal":3,"start":2,"action_noise":0.15,"location_history":"[2,3]","action_history":"[1]","mutagen_history":"[1]","location_rts":"[3381]","trial_type":"fractal-mutation","trial_index":81,"time_elapsed":1734162,"internal_node_id":"0.0-5.0-27.0"},{"group":"hexagon_bi","fractal_assignment":["../images/ylw_slt.png","../images/org_blu.png","../images/cyn_red.png","../images/pnk_blu.png","../images/blu_wht.png","../images/gry_blk.png"],"mutagen_generator_assignment":[0,1],"goal":0,"start":3,"action_noise":0.15,"location_history":"[3,2,1,0]","action_history":"[1,1,1]","mutagen_history":"[1,1,1]","location_rts":"[722,395,499]","trial_type":"fractal-mutation","trial_index":82,"time_elapsed":1742422,"internal_node_id":"0.0-5.0-28.0"},{"group":"hexagon_bi","fractal_assignment":["../images/ylw_slt.png","../images/org_blu.png","../images/cyn_red.png","../images/pnk_blu.png","../images/blu_wht.png","../images/gry_blk.png"],"mutagen_generator_assignment":[0,1],"goal":1,"start":0,"action_noise":0.15,"location_history":"[0,5,0,5,4,5,4,5,4,5,4,5,4,3,4,3,2,3,2,3,4,5,4,3,2,3,4,3,2,1]","action_history":"[0,0,0,1,1,1,1,1,1,1,0,0,0,0,0,1,1,1,1,1,1,1,0,1,0,0,1,1,1]","mutagen_history":"[0,0,0,1,1,1,1,1,1,1,0,0,0,0,0,1,1,1,1,1,1,1,0,1,0,0,1,1,1]","location_rts":"[9337,1513,486,1287,409,487,385,453,428,473,356,458,667,635,2818,1131,759,13437,2659,1921,723,476,452,517,700,3184,4544,771,667]","trial_type":"fractal-mutation","trial_index":83,"time_elapsed":1828349,"internal_node_id":"0.0-5.0-29.0"},{"group":"hexagon_bi","fractal_assignment":["../images/ylw_slt.png","../images/org_blu.png","../images/cyn_red.png","../images/pnk_blu.png","../images/blu_wht.png","../images/gry_blk.png"],"mutagen_generator_assignment":[0,1],"goal":4,"start":1,"action_noise":0.15,"location_history":"[1,0,1,2,3,2,3,2,1,0,1,0,1,0,1,2,1,2,1,2,1,2,1,2,3,2,1,2,1,0,1,2,1,2,1,0,1,0,1,0,1,2,1,2,3,2,3,2,3,2,1,2,1,2,1,2,1,2,3,2,3,2,3,2,1,2,3,4]","action_history":"[0,0,0,0,1,1,1,1,1,1,1,1,1,1,0,0,0,0,0,0,0,0,1,1,1,0,0,0,1,0,1,0,0,0,1,1,1,1,1,0,0,1,0,1,1,1,1,1,1,0,0,0,0,0,0,0,0,1,1,1,1,1,1,0,0,0,0]","mutagen_history":"[0,0,0,0,1,1,1,1,1,1,1,1,1,1,0,0,0,0,0,0,0,0,1,1,1,0,0,0,1,0,1,0,0,0,1,1,1,1,1,0,0,1,0,1,1,1,1,1,1,0,0,0,0,0,0,0,0,1,1,1,1,1,1,0,0,0,0]","location_rts":"[11262,1984,502,525,411,722,492,493,468,381,543,4550,2058,412,415,604,446,926,547,1350,531,634,2490,763,3815,979,513,2101,921,621,566,20212,159,568,597,385,536,407,368,422,401,512,694,4743,659,450,603,428,390,433,458,674,256,12745,448,675,530,1569,105,603,831,2479,7028,12460,613,298,316]","trial_type":"fractal-mutation","trial_index":84,"time_elapsed":2019712,"internal_node_id":"0.0-5.0-30.0"},{"group":"hexagon_bi","fractal_assignment":["../images/ylw_slt.png","../images/org_blu.png","../images/cyn_red.png","../images/pnk_blu.png","../images/blu_wht.png","../images/gry_blk.png"],"mutagen_generator_assignment":[0,1],"goal":5,"start":4,"action_noise":0.15,"location_history":"[4,3,4,3,2,3,2,3,2,3,4,5]","action_history":"[0,0,0,1,1,1,1,1,0,1,1]","mutagen_history":"[0,0,0,1,1,1,1,1,0,1,1]","location_rts":"[945,414,438,1120,415,734,563,1432,10823,1518,544]","trial_type":"fractal-mutation","trial_index":85,"time_elapsed":2053619,"internal_node_id":"0.0-5.0-31.0"},{"group":"hexagon_bi","fractal_assignment":["../images/ylw_slt.png","../images/org_blu.png","../images/cyn_red.png","../images/pnk_blu.png","../images/blu_wht.png","../images/gry_blk.png"],"mutagen_generator_assignment":[0,1],"goal":0,"start":5,"action_noise":0.15,"location_history":"[5,4,5,0]","action_history":"[1,1,0]","mutagen_history":"[1,1,0]","location_rts":"[1155,7324,799]","trial_type":"fractal-mutation","trial_index":86,"time_elapsed":2069526,"internal_node_id":"0.0-5.0-32.0"},{"group":"hexagon_bi","fractal_assignment":["../images/ylw_slt.png","../images/org_blu.png","../images/cyn_red.png","../images/pnk_blu.png","../images/blu_wht.png","../images/gry_blk.png"],"mutagen_generator_assignment":[0,1],"goal":3,"start":0,"action_noise":0.15,"location_history":"[0,1,0,1,0,5,0,5,4,3]","action_history":"[1,1,1,0,0,0,0,1,0]","mutagen_history":"[1,1,1,0,0,0,0,1,0]","location_rts":"[8639,419,419,445,738,653,400,517,637]","trial_type":"fractal-mutation","trial_index":87,"time_elapsed":2095253,"internal_node_id":"0.0-5.0-33.0"},{"group":"hexagon_bi","fractal_assignment":["../images/ylw_slt.png","../images/org_blu.png","../images/cyn_red.png","../images/pnk_blu.png","../images/blu_wht.png","../images/gry_blk.png"],"mutagen_generator_assignment":[0,1],"goal":1,"start":3,"action_noise":0.15,"location_history":"[3,4,3,4,3,4,5,4,3,2,1]","action_history":"[1,0,0,0,0,0,1,1,1,1]","mutagen_history":"[1,0,0,0,0,0,1,1,1,1]","location_rts":"[6782,12778,269,623,434,548,792,507,427,878]","trial_type":"fractal-mutation","trial_index":88,"time_elapsed":2133194,"internal_node_id":"0.0-5.0-34.0"},{"group":"hexagon_bi","fractal_assignment":["../images/ylw_slt.png","../images/org_blu.png","../images/cyn_red.png","../images/pnk_blu.png","../images/blu_wht.png","../images/gry_blk.png"],"mutagen_generator_assignment":[0,1],"goal":2,"start":1,"action_noise":0.15,"location_history":"[1,0,1,0,5,4,5,4,5,4,5,0,5,4,5,0,5,0,1,0,5,0,5,0,5,0,5,0,1,0,1,2]","action_history":"[1,1,1,1,1,1,1,1,1,1,0,0,1,1,0,0,0,1,1,0,0,0,0,0,0,0,0,1,1,1,0]","mutagen_history":"[1,1,1,1,1,1,1,1,1,1,0,0,1,1,0,0,0,1,1,0,0,0,0,0,0,0,0,1,1,1,0]","location_rts":"[2904,7312,770,3778,3126,2108,807,425,435,340,720,433,643,436,510,293,466,435,423,485,108,58,266,180,113,240,8299,1548,474,6479,520]","trial_type":"fractal-mutation","trial_index":89,"time_elapsed":2214108,"internal_node_id":"0.0-5.0-35.0"},{"group":"hexagon_bi","fractal_assignment":["../images/ylw_slt.png","../images/org_blu.png","../images/cyn_red.png","../images/pnk_blu.png","../images/blu_wht.png","../images/gry_blk.png"],"mutagen_generator_assignment":[0,1],"goal":4,"start":2,"action_noise":0.15,"location_history":"[2,3,4]","action_history":"[1,1]","mutagen_history":"[1,1]","location_rts":"[3703,549]","trial_type":"fractal-mutation","trial_index":90,"time_elapsed":2223959,"internal_node_id":"0.0-5.0-36.0"},{"group":"hexagon_bi","fractal_assignment":["../images/ylw_slt.png","../images/org_blu.png","../images/cyn_red.png","../images/pnk_blu.png","../images/blu_wht.png","../images/gry_blk.png"],"mutagen_generator_assignment":[0,1],"goal":5,"start":4,"action_noise":0.15,"location_history":"[4,3,4,5]","action_history":"[0,0,1]","mutagen_history":"[0,0,1]","location_rts":"[4014,635,3807]","trial_type":"fractal-mutation","trial_index":91,"time_elapsed":2239038,"internal_node_id":"0.0-5.0-37.0"},{"group":"hexagon_bi","fractal_assignment":["../images/ylw_slt.png","../images/org_blu.png","../images/cyn_red.png","../images/pnk_blu.png","../images/blu_wht.png","../images/gry_blk.png"],"mutagen_generator_assignment":[0,1],"goal":1,"start":5,"action_noise":0.15,"location_history":"[5,0,1]","action_history":"[0,1]","mutagen_history":"[0,1]","location_rts":"[465,659]","trial_type":"fractal-mutation","trial_index":92,"time_elapsed":2245767,"internal_node_id":"0.0-5.0-38.0"},{"group":"hexagon_bi","fractal_assignment":["../images/ylw_slt.png","../images/org_blu.png","../images/cyn_red.png","../images/pnk_blu.png","../images/blu_wht.png","../images/gry_blk.png"],"mutagen_generator_assignment":[0,1],"goal":4,"start":1,"action_noise":0.15,"location_history":"[1,2,1,2,3,4]","action_history":"[0,0,1,1,0]","mutagen_history":"[0,0,1,1,0]","location_rts":"[6315,10567,1228,559,444]","trial_type":"fractal-mutation","trial_index":93,"time_elapsed":2273579,"internal_node_id":"0.0-5.0-39.0"},{"group":"hexagon_bi","fractal_assignment":["../images/ylw_slt.png","../images/org_blu.png","../images/cyn_red.png","../images/pnk_blu.png","../images/blu_wht.png","../images/gry_blk.png"],"mutagen_generator_assignment":[0,1],"goal":3,"start":4,"action_noise":0.15,"location_history":"[4,5,4,5,4,3]","action_history":"[1,1,1,1,0]","mutagen_history":"[1,1,1,1,0]","location_rts":"[1119,442,420,373,378]","trial_type":"fractal-mutation","trial_index":94,"time_elapsed":2285043,"internal_node_id":"0.0-5.0-40.0"},{"group":"hexagon_bi","fractal_assignment":["../images/ylw_slt.png","../images/org_blu.png","../images/cyn_red.png","../images/pnk_blu.png","../images/blu_wht.png","../images/gry_blk.png"],"mutagen_generator_assignment":[0,1],"goal":2,"start":3,"action_noise":0.15,"location_history":"[3,2]","action_history":"[1]","mutagen_history":"[1]","location_rts":"[10760]","trial_type":"fractal-mutation","trial_index":95,"time_elapsed":2300363,"internal_node_id":"0.0-5.0-41.0"},{"group":"hexagon_bi","fractal_assignment":["../images/ylw_slt.png","../images/org_blu.png","../images/cyn_red.png","../images/pnk_blu.png","../images/blu_wht.png","../images/gry_blk.png"],"mutagen_generator_assignment":[0,1],"goal":0,"start":2,"action_noise":0.15,"location_history":"[2,3,4,3,4,3,4,3,2,3,4,5,4,3,2,3,2,3,2,3,4,5,4,5,0]","action_history":"[1,0,0,0,0,0,1,1,1,1,1,1,1,1,1,1,1,1,1,1,1,1,1,0]","mutagen_history":"[1,0,0,0,0,0,1,1,1,1,1,1,1,1,1,1,1,1,1,1,1,1,1,0]","location_rts":"[556,1507,450,432,558,1193,550,1064,569,879,711,584,929,468,434,307,509,458,407,524,808,603,592,514]","trial_type":"fractal-mutation","trial_index":96,"time_elapsed":2344484,"internal_node_id":"0.0-5.0-42.0"},{"group":"hexagon_bi","fractal_assignment":["../images/ylw_slt.png","../images/org_blu.png","../images/cyn_red.png","../images/pnk_blu.png","../images/blu_wht.png","../images/gry_blk.png"],"mutagen_generator_assignment":[0,1],"goal":5,"start":0,"action_noise":0.15,"location_history":"[0,1,0,5]","action_history":"[1,1,0]","mutagen_history":"[1,1,0]","location_rts":"[813,517,2255]","trial_type":"fractal-mutation","trial_index":97,"time_elapsed":2354711,"internal_node_id":"0.0-5.0-43.0"},{"group":"hexagon_bi","fractal_assignment":["../images/ylw_slt.png","../images/org_blu.png","../images/cyn_red.png","../images/pnk_blu.png","../images/blu_wht.png","../images/gry_blk.png"],"mutagen_generator_assignment":[0,1],"goal":0,"start":5,"action_noise":0.15,"location_history":"[5,4,5,4,3,4,3,4,5,4,3,4,3,4,5,4,5,4,5,4,5,0]","action_history":"[1,1,1,0,0,0,1,1,1,0,0,0,0,1,1,1,1,1,1,1,0]","mutagen_history":"[1,1,1,0,0,0,1,1,1,0,0,0,0,1,1,1,1,1,1,1,0]","location_rts":"[3022,753,388,494,538,606,448,482,578,644,477,415,402,30,415,505,9308,388,308,254,344]","trial_type":"fractal-mutation","trial_index":98,"time_elapsed":2400908,"internal_node_id":"0.0-5.0-44.0"},{"group":"hexagon_bi","fractal_assignment":["../images/ylw_slt.png","../images/org_blu.png","../images/cyn_red.png","../images/pnk_blu.png","../images/blu_wht.png","../images/gry_blk.png"],"mutagen_generator_assignment":[0,1],"goal":2,"start":0,"action_noise":0.15,"location_history":"[0,1,0,1,0,1,0,1,2]","action_history":"[1,1,1,1,1,1,1,0]","mutagen_history":"[1,1,1,1,1,1,1,0]","location_rts":"[1162,472,443,359,390,436,485,520]","trial_type":"fractal-mutation","trial_index":99,"time_elapsed":2417058,"internal_node_id":"0.0-5.0-45.0"},{"group":"hexagon_bi","fractal_assignment":["../images/ylw_slt.png","../images/org_blu.png","../images/cyn_red.png","../images/pnk_blu.png","../images/blu_wht.png","../images/gry_blk.png"],"mutagen_generator_assignment":[0,1],"goal":4,"start":2,"action_noise":0.15,"location_history":"[2,3,2,3,2,1,2,1,2,1,2,1,2,3,2,3,2,3,2,1,0,1,0,1,0,5,4]","action_history":"[1,1,1,1,1,0,0,0,0,0,0,0,0,1,1,1,1,1,1,1,1,1,1,1,1,1]","mutagen_history":"[1,1,1,1,1,0,0,0,0,0,0,0,0,1,1,1,1,1,1,1,1,1,1,1,1,1]","location_rts":"[4863,459,303,260,277,425,531,348,415,368,321,424,529,916,496,786,3883,866,503,813,489,207,1861,593,8892,453]","trial_type":"fractal-mutation","trial_index":100,"time_elapsed":2477958,"internal_node_id":"0.0-5.0-46.0"},{"group":"hexagon_bi","fractal_assignment":["../images/ylw_slt.png","../images/org_blu.png","../images/cyn_red.png","../images/pnk_blu.png","../images/blu_wht.png","../images/gry_blk.png"],"mutagen_generator_assignment":[0,1],"goal":1,"start":4,"action_noise":0.15,"location_history":"[4,3,4,3,4,3,4,5,4,3,2,3,2,1]","action_history":"[0,0,0,0,0,0,0,1,1,1,1,1,1]","mutagen_history":"[0,0,0,0,0,0,0,1,1,1,1,1,1]","location_rts":"[2199,945,3773,303,436,175,530,632,473,423,379,433,1183]","trial_type":"fractal-mutation","trial_index":101,"time_elapsed":2506882,"internal_node_id":"0.0-5.0-47.0"},{"group":"hexagon_bi","fractal_assignment":["../images/ylw_slt.png","../images/org_blu.png","../images/cyn_red.png","../images/pnk_blu.png","../images/blu_wht.png","../images/gry_blk.png"],"mutagen_generator_assignment":[0,1],"goal":5,"start":1,"action_noise":0.15,"location_history":"[1,2,3,2,3,2,3,4,3,2,3,2,1,2,1,2,1,2,3,4,3,2,1,2,3,2,3,2,3,2,1,0,5]","action_history":"[1,1,1,1,1,1,1,1,1,1,1,0,0,0,0,0,0,0,0,0,0,0,0,0,1,1,1,1,1,1,0,0]","mutagen_history":"[1,1,1,1,1,1,1,1,1,1,1,0,0,0,0,0,0,0,0,0,0,0,0,0,1,1,1,1,1,1,0,0]","location_rts":"[5740,1092,577,417,374,46119,1344,1327,870,717,738,1225,1103,636,3031,2086,519,428,405,294,467,513,471,356,1693,980,2424,415,289,488,193,391]","trial_type":"fractal-mutation","trial_index":102,"time_elapsed":2621469,"internal_node_id":"0.0-5.0-48.0"},{"group":"hexagon_bi","fractal_assignment":["../images/ylw_slt.png","../images/org_blu.png","../images/cyn_red.png","../images/pnk_blu.png","../images/blu_wht.png","../images/gry_blk.png"],"mutagen_generator_assignment":[0,1],"goal":3,"start":5,"action_noise":0.15,"location_history":"[5,0,5,0,1,0,5,4,5,0,5,0,1,0,1,0,1,0,1,0,1,0,1,2,1,2,1,0,1,0,5,0,5,0,5,0,1,0,1,0,1,0,1,0,1,0,1,0,1,0,1,0,5,0,5,0,1,0,1,2,1,2,3]","action_history":"[0,0,0,1,1,0,1,1,0,0,0,1,1,1,1,1,1,1,1,1,1,1,0,0,0,0,1,1,1,1,0,0,0,0,0,1,1,1,1,1,1,1,1,1,1,1,1,1,1,1,1,0,0,0,0,1,1,1,0,0,0,0]","mutagen_history":"[0,0,0,1,1,0,1,1,0,0,0,1,1,1,1,1,1,1,1,1,1,1,0,0,0,0,1,1,1,1,0,0,0,0,0,1,1,1,1,1,1,1,1,1,1,1,1,1,1,1,1,0,0,0,0,1,1,1,0,0,0,0]","location_rts":"[2674,552,474,649,9105,493,6191,514,422,375,459,600,1507,294,10138,477,756,318,294,349,390,425,1030,326,464,327,17150,440,395,269,1086,512,346,297,451,477,493,909,288,351,374,300,230,393,611,91,15622,532,266,283,269,572,466,394,447,1314,15,337,424,138,11018,644]","trial_type":"fractal-mutation","trial_index":103,"time_elapsed":2787475,"internal_node_id":"0.0-5.0-49.0"},{"view_history":"[{\"page_index\":0,\"viewing_time\":8702}]","rt":8704,"trial_type":"instructions","trial_index":104,"time_elapsed":2797179,"internal_node_id":"0.0-6.0"},{"rt":35613,"responses":"{\"Q0\":\"no, wish I could figure it out better. Maybe tomorrow\"}","trial_type":"survey-text","trial_index":105,"time_elapsed":2833801,"internal_node_id":"0.0-7.0"}]