[{"view_history":"[{\"page_index\":0,\"viewing_time\":1857},{\"page_index\":1,\"viewing_time\":109918}]","rt":111777,"trial_type":"instructions","trial_index":0,"time_elapsed":111778,"internal_node_id":"0.0-0.0"},{"view_history":"[{\"page_index\":0,\"viewing_time\":5166},{\"page_index\":1,\"viewing_time\":50402}]","rt":55578,"trial_type":"instructions","trial_index":1,"time_elapsed":168364,"internal_node_id":"0.0-1.0"},{"group":"hexagon_tri","room_assignment":["red","purple","grey","blue","yellow","green"],"door_color_assignment":["white","black"],"door_generator_assignment":[0,1],"goal":3,"start":5,"action_noise":0.15,"location_history":"[5,4,2,3]","action_history":"[0,1,1]","door_history":"[0,1,1]","location_rts":"[4110,2403,1443]","trial_type":"two-door-navigation","trial_index":2,"time_elapsed":183401,"internal_node_id":"0.0-2.0-0.0"},{"group":"hexagon_tri","room_assignment":["red","purple","grey","blue","yellow","green"],"door_color_assignment":["white","black"],"door_generator_assignment":[0,1],"goal":1,"start":3,"action_noise":0.15,"location_history":"[3,2,3,4,2,3,2,1]","action_history":"[0,1,1,1,1,0,0]","door_history":"[0,1,1,1,1,0,0]","location_rts":"[3344,936,2842,2373,1039,1097,380]","trial_type":"two-door-navigation","trial_index":3,"time_elapsed":206901,"internal_node_id":"0.0-2.0-1.0"},{"group":"hexagon_tri","room_assignment":["red","purple","grey","blue","yellow","green"],"door_color_assignment":["white","black"],"door_generator_assignment":[0,1],"goal":0,"start":1,"action_noise":0.15,"location_history":"[1,3,4,0]","action_history":"[1,1,0]","door_history":"[1,1,0]","location_rts":"[2976,558,1429]","trial_type":"two-door-navigation","trial_index":4,"time_elapsed":218511,"internal_node_id":"0.0-2.0-2.0"},{"group":"hexagon_tri","room_assignment":["red","purple","grey","blue","yellow","green"],"door_color_assignment":["white","black"],"door_generator_assignment":[0,1],"goal":3,"start":0,"action_noise":0.15,"location_history":"[0,1,3]","action_history":"[1,0]","door_history":"[1,0]","location_rts":"[5789,1518]","trial_type":"two-door-navigation","trial_index":5,"time_elapsed":231566,"internal_node_id":"0.0-2.0-3.0"},{"group":"hexagon_tri","room_assignment":["red","purple","grey","blue","yellow","green"],"door_color_assignment":["white","black"],"door_generator_assignment":[0,1],"goal":4,"start":3,"action_noise":0.15,"location_history":"[3,4]","action_history":"[1]","door_history":"[1]","location_rts":"[2925]","trial_type":"two-door-navigation","trial_index":6,"time_elapsed":239123,"internal_node_id":"0.0-2.0-4.0"},{"group":"hexagon_tri","room_assignment":["red","purple","grey","blue","yellow","green"],"door_color_assignment":["white","black"],"door_generator_assignment":[0,1],"goal":2,"start":4,"action_noise":0.15,"location_history":"[4,0,5,4,2]","action_history":"[0,0,0,1]","door_history":"[0,0,0,1]","location_rts":"[1954,906,951,1261]","trial_type":"two-door-navigation","trial_index":7,"time_elapsed":251955,"internal_node_id":"0.0-2.0-5.0"},{"group":"hexagon_tri","room_assignment":["red","purple","grey","blue","yellow","green"],"door_color_assignment":["white","black"],"door_generator_assignment":[0,1],"goal":1,"start":2,"action_noise":0.15,"location_history":"[2,1]","action_history":"[0]","door_history":"[0]","location_rts":"[2517]","trial_type":"two-door-navigation","trial_index":8,"time_elapsed":259096,"internal_node_id":"0.0-2.0-6.0"},{"group":"hexagon_tri","room_assignment":["red","purple","grey","blue","yellow","green"],"door_color_assignment":["white","black"],"door_generator_assignment":[0,1],"goal":5,"start":1,"action_noise":0.15,"location_history":"[1,3,4,0,1,5]","action_history":"[0,1,1,1,1]","door_history":"[0,1,1,1,1]","location_rts":"[2852,801,705,928,2062]","trial_type":"two-door-navigation","trial_index":9,"time_elapsed":275292,"internal_node_id":"0.0-2.0-7.0"},{"group":"hexagon_tri","room_assignment":["red","purple","grey","blue","yellow","green"],"door_color_assignment":["white","black"],"door_generator_assignment":[0,1],"goal":4,"start":5,"action_noise":0.15,"location_history":"[5,0,5,4]","action_history":"[1,0,0]","door_history":"[1,0,0]","location_rts":"[1921,564,2724]","trial_type":"two-door-navigation","trial_index":10,"time_elapsed":287292,"internal_node_id":"0.0-2.0-8.0"},{"group":"hexagon_tri","room_assignment":["red","purple","grey","blue","yellow","green"],"door_color_assignment":["white","black"],"door_generator_assignment":[0,1],"goal":2,"start":4,"action_noise":0.15,"location_history":"[4,2]","action_history":"[1]","door_history":"[1]","location_rts":"[3816]","trial_type":"two-door-navigation","trial_index":11,"time_elapsed":295763,"internal_node_id":"0.0-2.0-9.0"},{"group":"hexagon_tri","room_assignment":["red","purple","grey","blue","yellow","green"],"door_color_assignment":["white","black"],"door_generator_assignment":[0,1],"goal":0,"start":2,"action_noise":0.15,"location_history":"[2,1,3,2,3,4,2,1,3,2,3,4,2,3,4,0]","action_history":"[0,0,0,0,1,1,1,0,0,1,1,1,1,1,0]","door_history":"[0,0,0,0,1,1,1,0,0,1,1,1,1,1,0]","location_rts":"[2113,827,1162,1282,722,683,811,941,1434,690,448,905,1053,898,371]","trial_type":"two-door-navigation","trial_index":12,"time_elapsed":330139,"internal_node_id":"0.0-2.0-10.0"},{"group":"hexagon_tri","room_assignment":["red","purple","grey","blue","yellow","green"],"door_color_assignment":["white","black"],"door_generator_assignment":[0,1],"goal":1,"start":0,"action_noise":0.15,"location_history":"[0,1]","action_history":"[1]","door_history":"[1]","location_rts":"[2777]","trial_type":"two-door-navigation","trial_index":13,"time_elapsed":337455,"internal_node_id":"0.0-2.0-11.0"},{"group":"hexagon_tri","room_assignment":["red","purple","grey","blue","yellow","green"],"door_color_assignment":["white","black"],"door_generator_assignment":[0,1],"goal":3,"start":1,"action_noise":0.15,"location_history":"[1,5,4,0,1,5,0,5,4,0,5,0,1,3]","action_history":"[1,0,0,1,1,0,0,0,0,0,1,1,0]","door_history":"[1,0,0,1,1,0,0,0,0,0,1,1,0]","location_rts":"[3421,643,886,2215,1180,796,1258,858,680,1148,551,964,1192]","trial_type":"two-door-navigation","trial_index":14,"time_elapsed":371511,"internal_node_id":"0.0-2.0-12.0"},{"group":"hexagon_tri","room_assignment":["red","purple","grey","blue","yellow","green"],"door_color_assignment":["white","black"],"door_generator_assignment":[0,1],"goal":5,"start":3,"action_noise":0.15,"location_history":"[3,4,2,1,5]","action_history":"[1,1,0,1]","door_history":"[1,1,0,1]","location_rts":"[2869,3554,924,1117]","trial_type":"two-door-navigation","trial_index":15,"time_elapsed":387915,"internal_node_id":"0.0-2.0-13.0"},{"group":"hexagon_tri","room_assignment":["red","purple","grey","blue","yellow","green"],"door_color_assignment":["white","black"],"door_generator_assignment":[0,1],"goal":4,"start":5,"action_noise":0.15,"location_history":"[5,0,5,0,5,0,5,0,5,0,1,5,0,1,3,4]","action_history":"[1,1,1,0,1,1,0,0,0,1,1,1,1,0,1]","door_history":"[1,1,1,0,1,1,0,0,0,1,1,1,1,0,1]","location_rts":"[6638,880,872,298,2489,1391,163,280,571,1573,1957,716,895,385,1785]","trial_type":"two-door-navigation","trial_index":16,"time_elapsed":429375,"internal_node_id":"0.0-2.0-14.0"},{"group":"hexagon_tri","room_assignment":["red","purple","grey","blue","yellow","green"],"door_color_assignment":["white","black"],"door_generator_assignment":[0,1],"goal":0,"start":4,"action_noise":0.15,"location_history":"[4,0]","action_history":"[0]","door_history":"[0]","location_rts":"[5125]","trial_type":"two-door-navigation","trial_index":17,"time_elapsed":439170,"internal_node_id":"0.0-2.0-15.0"},{"group":"hexagon_tri","room_assignment":["red","purple","grey","blue","yellow","green"],"door_color_assignment":["white","black"],"door_generator_assignment":[0,1],"goal":3,"start":0,"action_noise":0.15,"location_history":"[0,1,3]","action_history":"[1,0]","door_history":"[1,0]","location_rts":"[3826,1751]","trial_type":"two-door-navigation","trial_index":18,"time_elapsed":450385,"internal_node_id":"0.0-2.0-16.0"},{"group":"hexagon_tri","room_assignment":["red","purple","grey","blue","yellow","green"],"door_color_assignment":["white","black"],"door_generator_assignment":[0,1],"goal":1,"start":3,"action_noise":0.15,"location_history":"[3,4,0,5,4,2,3,2,3,4,0,1]","action_history":"[1,0,0,0,1,1,0,1,0,0,1]","door_history":"[1,0,0,0,1,1,0,1,0,0,1]","location_rts":"[4108,1078,1209,1289,394,733,954,2723,1765,451,1756]","trial_type":"two-door-navigation","trial_index":19,"time_elapsed":482367,"internal_node_id":"0.0-2.0-17.0"},{"group":"hexagon_tri","room_assignment":["red","purple","grey","blue","yellow","green"],"door_color_assignment":["white","black"],"door_generator_assignment":[0,1],"goal":5,"start":1,"action_noise":0.15,"location_history":"[1,3,4,2,3,4,0,5]","action_history":"[0,1,1,1,1,0,0]","door_history":"[0,1,1,1,1,0,0]","location_rts":"[3501,698,1187,2977,7893,3750,3955]","trial_type":"two-door-navigation","trial_index":20,"time_elapsed":517305,"internal_node_id":"0.0-2.0-18.0"},{"group":"hexagon_tri","room_assignment":["red","purple","grey","blue","yellow","green"],"door_color_assignment":["white","black"],"door_generator_assignment":[0,1],"goal":2,"start":5,"action_noise":0.15,"location_history":"[5,4,0,1,5,4,2]","action_history":"[0,0,0,1,0,1]","door_history":"[0,0,0,1,0,1]","location_rts":"[10407,6841,1242,2984,1639,851]","trial_type":"two-door-navigation","trial_index":21,"time_elapsed":551453,"internal_node_id":"0.0-2.0-19.0"},{"group":"hexagon_tri","room_assignment":["red","purple","grey","blue","yellow","green"],"door_color_assignment":["white","black"],"door_generator_assignment":[0,1],"goal":4,"start":2,"action_noise":0.15,"location_history":"[2,3,2,1,5,4]","action_history":"[1,0,0,1,1]","door_history":"[1,0,0,1,1]","location_rts":"[2212,2010,3941,1924,647]","trial_type":"two-door-navigation","trial_index":22,"time_elapsed":572226,"internal_node_id":"0.0-2.0-20.0"},{"group":"hexagon_tri","room_assignment":["red","purple","grey","blue","yellow","green"],"door_color_assignment":["white","black"],"door_generator_assignment":[0,1],"goal":1,"start":4,"action_noise":0.15,"location_history":"[4,0,5,4,2,3,2,1]","action_history":"[1,0,0,1,1,0,0]","door_history":"[1,0,0,1,1,0,0]","location_rts":"[1818,866,1117,729,511,1650,1374]","trial_type":"two-door-navigation","trial_index":23,"time_elapsed":591324,"internal_node_id":"0.0-2.0-21.0"},{"group":"hexagon_tri","room_assignment":["red","purple","grey","blue","yellow","green"],"door_color_assignment":["white","black"],"door_generator_assignment":[0,1],"goal":3,"start":1,"action_noise":0.15,"location_history":"[1,3]","action_history":"[0]","door_history":"[0]","location_rts":"[2848]","trial_type":"two-door-navigation","trial_index":24,"time_elapsed":598806,"internal_node_id":"0.0-2.0-22.0"},{"group":"hexagon_tri","room_assignment":["red","purple","grey","blue","yellow","green"],"door_color_assignment":["white","black"],"door_generator_assignment":[0,1],"goal":2,"start":3,"action_noise":0.15,"location_history":"[3,2]","action_history":"[1]","door_history":"[1]","location_rts":"[1719]","trial_type":"two-door-navigation","trial_index":25,"time_elapsed":605462,"internal_node_id":"0.0-2.0-23.0"},{"group":"hexagon_tri","room_assignment":["red","purple","grey","blue","yellow","green"],"door_color_assignment":["white","black"],"door_generator_assignment":[0,1],"goal":0,"start":2,"action_noise":0.15,"location_history":"[2,3,4,0]","action_history":"[1,1,0]","door_history":"[1,1,0]","location_rts":"[6990,1296,1045]","trial_type":"two-door-navigation","trial_index":26,"time_elapsed":621508,"internal_node_id":"0.0-2.0-24.0"},{"group":"hexagon_tri","room_assignment":["red","purple","grey","blue","yellow","green"],"door_color_assignment":["white","black"],"door_generator_assignment":[0,1],"goal":5,"start":0,"action_noise":0.15,"location_history":"[0,1,5]","action_history":"[1,1]","door_history":"[1,1]","location_rts":"[2241,1552]","trial_type":"two-door-navigation","trial_index":27,"time_elapsed":631066,"internal_node_id":"0.0-2.0-25.0"},{"group":"hexagon_tri","room_assignment":["red","purple","grey","blue","yellow","green"],"door_color_assignment":["white","black"],"door_generator_assignment":[0,1],"goal":2,"start":5,"action_noise":0.15,"location_history":"[5,0,5,0,5,4,2]","action_history":"[1,1,1,0,0,1]","door_history":"[1,1,1,0,0,1]","location_rts":"[2874,1180,1461,259,1655,1392]","trial_type":"two-door-navigation","trial_index":28,"time_elapsed":649844,"internal_node_id":"0.0-2.0-26.0"},{"group":"hexagon_tri","room_assignment":["red","purple","grey","blue","yellow","green"],"door_color_assignment":["white","black"],"door_generator_assignment":[0,1],"goal":3,"start":2,"action_noise":0.15,"location_history":"[2,1,5,4,2,3]","action_history":"[0,1,0,1,1]","door_history":"[0,1,0,1,1]","location_rts":"[11873,12355,8669,9810,7997]","trial_type":"two-door-navigation","trial_index":29,"time_elapsed":709397,"internal_node_id":"0.0-2.0-27.0"},{"group":"hexagon_tri","room_assignment":["red","purple","grey","blue","yellow","green"],"door_color_assignment":["white","black"],"door_generator_assignment":[0,1],"goal":0,"start":3,"action_noise":0.15,"location_history":"[3,4,0]","action_history":"[1,0]","door_history":"[1,0]","location_rts":"[7398,5684]","trial_type":"two-door-navigation","trial_index":30,"time_elapsed":728094,"internal_node_id":"0.0-2.0-28.0"},{"group":"hexagon_tri","room_assignment":["red","purple","grey","blue","yellow","green"],"door_color_assignment":["white","black"],"door_generator_assignment":[0,1],"goal":1,"start":0,"action_noise":0.15,"location_history":"[0,5,4,0,1]","action_history":"[0,0,0,1]","door_history":"[0,0,0,1]","location_rts":"[6662,3237,8943,1905]","trial_type":"two-door-navigation","trial_index":31,"time_elapsed":756632,"internal_node_id":"0.0-2.0-29.0"},{"group":"hexagon_tri","room_assignment":["red","purple","grey","blue","yellow","green"],"door_color_assignment":["white","black"],"door_generator_assignment":[0,1],"goal":4,"start":1,"action_noise":0.15,"location_history":"[1,5,4]","action_history":"[1,0]","door_history":"[1,0]","location_rts":"[8302,600]","trial_type":"two-door-navigation","trial_index":32,"time_elapsed":771311,"internal_node_id":"0.0-2.0-30.0"},{"group":"hexagon_tri","room_assignment":["red","purple","grey","blue","yellow","green"],"door_color_assignment":["white","black"],"door_generator_assignment":[0,1],"goal":5,"start":4,"action_noise":0.15,"location_history":"[4,0,1,5]","action_history":"[0,0,1]","door_history":"[0,0,1]","location_rts":"[13145,250,6658]","trial_type":"two-door-navigation","trial_index":33,"time_elapsed":798124,"internal_node_id":"0.0-2.0-31.0"},{"group":"hexagon_tri","room_assignment":["red","purple","grey","blue","yellow","green"],"door_color_assignment":["white","black"],"door_generator_assignment":[0,1],"goal":0,"start":5,"action_noise":0.15,"location_history":"[5,0]","action_history":"[0]","door_history":"[0]","location_rts":"[11087]","trial_type":"two-door-navigation","trial_index":34,"time_elapsed":813969,"internal_node_id":"0.0-2.0-32.0"},{"group":"hexagon_tri","room_assignment":["red","purple","grey","blue","yellow","green"],"door_color_assignment":["white","black"],"door_generator_assignment":[0,1],"goal":3,"start":0,"action_noise":0.15,"location_history":"[0,5,0,1,3]","action_history":"[0,1,1,0]","door_history":"[0,1,1,0]","location_rts":"[10331,5985,8536,2641]","trial_type":"two-door-navigation","trial_index":35,"time_elapsed":849297,"internal_node_id":"0.0-2.0-33.0"},{"group":"hexagon_tri","room_assignment":["red","purple","grey","blue","yellow","green"],"door_color_assignment":["white","black"],"door_generator_assignment":[0,1],"goal":1,"start":3,"action_noise":0.15,"location_history":"[3,2,1]","action_history":"[0,0]","door_history":"[0,0]","location_rts":"[18339,7335]","trial_type":"two-door-navigation","trial_index":36,"time_elapsed":880691,"internal_node_id":"0.0-2.0-34.0"},{"group":"hexagon_tri","room_assignment":["red","purple","grey","blue","yellow","green"],"door_color_assignment":["white","black"],"door_generator_assignment":[0,1],"goal":2,"start":1,"action_noise":0.15,"location_history":"[1,5,4,2]","action_history":"[0,0,1]","door_history":"[0,0,1]","location_rts":"[14451,8783,648]","trial_type":"two-door-navigation","trial_index":37,"time_elapsed":911278,"internal_node_id":"0.0-2.0-35.0"},{"group":"hexagon_tri","room_assignment":["red","purple","grey","blue","yellow","green"],"door_color_assignment":["white","black"],"door_generator_assignment":[0,1],"goal":4,"start":2,"action_noise":0.15,"location_history":"[2,3,4]","action_history":"[1,1]","door_history":"[1,1]","location_rts":"[6214,1648]","trial_type":"two-door-navigation","trial_index":38,"time_elapsed":924870,"internal_node_id":"0.0-2.0-36.0"},{"group":"hexagon_tri","room_assignment":["red","purple","grey","blue","yellow","green"],"door_color_assignment":["white","black"],"door_generator_assignment":[0,1],"goal":5,"start":4,"action_noise":0.15,"location_history":"[4,0,5]","action_history":"[0,0]","door_history":"[0,0]","location_rts":"[5160,1111]","trial_type":"two-door-navigation","trial_index":39,"time_elapsed":936808,"internal_node_id":"0.0-2.0-37.0"},{"group":"hexagon_tri","room_assignment":["red","purple","grey","blue","yellow","green"],"door_color_assignment":["white","black"],"door_generator_assignment":[0,1],"goal":1,"start":5,"action_noise":0.15,"location_history":"[5,0,1]","action_history":"[1,1]","door_history":"[1,1]","location_rts":"[2565,1963]","trial_type":"two-door-navigation","trial_index":40,"time_elapsed":947021,"internal_node_id":"0.0-2.0-38.0"},{"group":"hexagon_tri","room_assignment":["red","purple","grey","blue","yellow","green"],"door_color_assignment":["white","black"],"door_generator_assignment":[0,1],"goal":4,"start":1,"action_noise":0.15,"location_history":"[1,3,4]","action_history":"[0,1]","door_history":"[0,1]","location_rts":"[7072,818]","trial_type":"two-door-navigation","trial_index":41,"time_elapsed":960511,"internal_node_id":"0.0-2.0-39.0"},{"group":"hexagon_tri","room_assignment":["red","purple","grey","blue","yellow","green"],"door_color_assignment":["white","black"],"door_generator_assignment":[0,1],"goal":3,"start":4,"action_noise":0.15,"location_history":"[4,2,3]","action_history":"[1,1]","door_history":"[1,1]","location_rts":"[2495,3327]","trial_type":"two-door-navigation","trial_index":42,"time_elapsed":972551,"internal_node_id":"0.0-2.0-40.0"},{"group":"hexagon_tri","room_assignment":["red","purple","grey","blue","yellow","green"],"door_color_assignment":["white","black"],"door_generator_assignment":[0,1],"goal":2,"start":3,"action_noise":0.15,"location_history":"[3,2]","action_history":"[0]","door_history":"[0]","location_rts":"[5683]","trial_type":"two-door-navigation","trial_index":43,"time_elapsed":982841,"internal_node_id":"0.0-2.0-41.0"},{"group":"hexagon_tri","room_assignment":["red","purple","grey","blue","yellow","green"],"door_color_assignment":["white","black"],"door_generator_assignment":[0,1],"goal":0,"start":2,"action_noise":0.15,"location_history":"[2,1,5,0]","action_history":"[0,0,1]","door_history":"[0,0,1]","location_rts":"[9747,17300,4812]","trial_type":"two-door-navigation","trial_index":44,"time_elapsed":1021409,"internal_node_id":"0.0-2.0-42.0"},{"group":"hexagon_tri","room_assignment":["red","purple","grey","blue","yellow","green"],"door_color_assignment":["white","black"],"door_generator_assignment":[0,1],"goal":5,"start":0,"action_noise":0.15,"location_history":"[0,5]","action_history":"[0]","door_history":"[0]","location_rts":"[5609]","trial_type":"two-door-navigation","trial_index":45,"time_elapsed":1031559,"internal_node_id":"0.0-2.0-43.0"},{"group":"hexagon_tri","room_assignment":["red","purple","grey","blue","yellow","green"],"door_color_assignment":["white","black"],"door_generator_assignment":[0,1],"goal":0,"start":5,"action_noise":0.15,"location_history":"[5,0]","action_history":"[1]","door_history":"[1]","location_rts":"[5797]","trial_type":"two-door-navigation","trial_index":46,"time_elapsed":1041935,"internal_node_id":"0.0-2.0-44.0"},{"group":"hexagon_tri","room_assignment":["red","purple","grey","blue","yellow","green"],"door_color_assignment":["white","black"],"door_generator_assignment":[0,1],"goal":2,"start":0,"action_noise":0.15,"location_history":"[0,1,3,2]","action_history":"[1,0,0]","door_history":"[1,0,0]","location_rts":"[3813,1818,2126]","trial_type":"two-door-navigation","trial_index":47,"time_elapsed":1056543,"internal_node_id":"0.0-2.0-45.0"},{"group":"hexagon_tri","room_assignment":["red","purple","grey","blue","yellow","green"],"door_color_assignment":["white","black"],"door_generator_assignment":[0,1],"goal":4,"start":2,"action_noise":0.15,"location_history":"[2,3,4]","action_history":"[1,1]","door_history":"[1,1]","location_rts":"[6003,1835]","trial_type":"two-door-navigation","trial_index":48,"time_elapsed":1070131,"internal_node_id":"0.0-2.0-46.0"},{"group":"hexagon_tri","room_assignment":["red","purple","grey","blue","yellow","green"],"door_color_assignment":["white","black"],"door_generator_assignment":[0,1],"goal":1,"start":4,"action_noise":0.15,"location_history":"[4,2,1]","action_history":"[1,0]","door_history":"[1,0]","location_rts":"[2586,1458]","trial_type":"two-door-navigation","trial_index":49,"time_elapsed":1079889,"internal_node_id":"0.0-2.0-47.0"},{"group":"hexagon_tri","room_assignment":["red","purple","grey","blue","yellow","green"],"door_color_assignment":["white","black"],"door_generator_assignment":[0,1],"goal":5,"start":1,"action_noise":0.15,"location_history":"[1,5]","action_history":"[1]","door_history":"[1]","location_rts":"[3997]","trial_type":"two-door-navigation","trial_index":50,"time_elapsed":1088456,"internal_node_id":"0.0-2.0-48.0"},{"group":"hexagon_tri","room_assignment":["red","purple","grey","blue","yellow","green"],"door_color_assignment":["white","black"],"door_generator_assignment":[0,1],"goal":3,"start":5,"action_noise":0.15,"location_history":"[5,0,5,0,1,3]","action_history":"[1,0,0,1,0]","door_history":"[1,0,0,1,0]","location_rts":"[5757,1034,3950,3039,710]","trial_type":"two-door-navigation","trial_index":51,"time_elapsed":1111949,"internal_node_id":"0.0-2.0-49.0"},{"view_history":"[{\"page_index\":0,\"viewing_time\":1293}]","rt":1294,"trial_type":"instructions","trial_index":52,"time_elapsed":1114243,"internal_node_id":"0.0-3.0"},{"view_history":"[{\"page_index\":0,\"viewing_time\":2883},{\"page_index\":1,\"viewing_time\":17158}]","rt":20042,"trial_type":"instructions","trial_index":53,"time_elapsed":1135286,"internal_node_id":"0.0-4.0"},{"group":"hexagon_tri","fractal_assignment":["../images/org_blu.png","../images/blu_wht.png","../images/pnk_blu.png","../images/gry_blk.png","../images/ylw_slt.png","../images/cyn_red.png"],"mutagen_generator_assignment":[1,0],"goal":3,"start":5,"action_noise":0.15,"location_history":"[5,0,1,5,4,2,3]","action_history":"[1,1,1,0,1,1]","mutagen_history":"[0,0,0,1,0,0]","location_rts":"[5533,971,536,812,828,814]","trial_type":"fractal-mutation","trial_index":54,"time_elapsed":1155187,"internal_node_id":"0.0-5.0-0.0"},{"group":"hexagon_tri","fractal_assignment":["../images/org_blu.png","../images/blu_wht.png","../images/pnk_blu.png","../images/gry_blk.png","../images/ylw_slt.png","../images/cyn_red.png"],"mutagen_generator_assignment":[1,0],"goal":1,"start":3,"action_noise":0.15,"location_history":"[3,2,3,2,1]","action_history":"[0,1,0,0]","mutagen_history":"[1,0,1,1]","location_rts":"[2605,456,1105,616]","trial_type":"fractal-mutation","trial_index":55,"time_elapsed":1167787,"internal_node_id":"0.0-5.0-1.0"},{"group":"hexagon_tri","fractal_assignment":["../images/org_blu.png","../images/blu_wht.png","../images/pnk_blu.png","../images/gry_blk.png","../images/ylw_slt.png","../images/cyn_red.png"],"mutagen_generator_assignment":[1,0],"goal":0,"start":1,"action_noise":0.15,"location_history":"[1,5,0]","action_history":"[1,1]","mutagen_history":"[0,0]","location_rts":"[2509,551]","trial_type":"fractal-mutation","trial_index":56,"time_elapsed":1176593,"internal_node_id":"0.0-5.0-2.0"},{"group":"hexagon_tri","fractal_assignment":["../images/org_blu.png","../images/blu_wht.png","../images/pnk_blu.png","../images/gry_blk.png","../images/ylw_slt.png","../images/cyn_red.png"],"mutagen_generator_assignment":[1,0],"goal":3,"start":0,"action_noise":0.15,"location_history":"[0,1,5,4,2,1,3]","action_history":"[1,0,0,1,1,1]","mutagen_history":"[0,1,1,0,0,0]","location_rts":"[3604,1158,971,1310,491,542]","trial_type":"fractal-mutation","trial_index":57,"time_elapsed":1195066,"internal_node_id":"0.0-5.0-3.0"},{"group":"hexagon_tri","fractal_assignment":["../images/org_blu.png","../images/blu_wht.png","../images/pnk_blu.png","../images/gry_blk.png","../images/ylw_slt.png","../images/cyn_red.png"],"mutagen_generator_assignment":[1,0],"goal":4,"start":3,"action_noise":0.15,"location_history":"[3,2,3,4]","action_history":"[0,1,1]","mutagen_history":"[1,0,0]","location_rts":"[1418,811,573]","trial_type":"fractal-mutation","trial_index":58,"time_elapsed":1204886,"internal_node_id":"0.0-5.0-4.0"},{"group":"hexagon_tri","fractal_assignment":["../images/org_blu.png","../images/blu_wht.png","../images/pnk_blu.png","../images/gry_blk.png","../images/ylw_slt.png","../images/cyn_red.png"],"mutagen_generator_assignment":[1,0],"goal":2,"start":4,"action_noise":0.15,"location_history":"[4,0,1,5,0,5,0,1,3,2]","action_history":"[0,1,1,1,0,0,1,0,1]","mutagen_history":"[1,0,0,0,1,1,0,1,0]","location_rts":"[2276,808,575,1391,595,1072,909,858,821]","trial_type":"fractal-mutation","trial_index":59,"time_elapsed":1227365,"internal_node_id":"0.0-5.0-5.0"},{"group":"hexagon_tri","fractal_assignment":["../images/org_blu.png","../images/blu_wht.png","../images/pnk_blu.png","../images/gry_blk.png","../images/ylw_slt.png","../images/cyn_red.png"],"mutagen_generator_assignment":[1,0],"goal":1,"start":2,"action_noise":0.15,"location_history":"[2,3,4,2,1]","action_history":"[1,1,1,0]","mutagen_history":"[0,0,0,1]","location_rts":"[2144,688,746,413]","trial_type":"fractal-mutation","trial_index":60,"time_elapsed":1239152,"internal_node_id":"0.0-5.0-6.0"},{"group":"hexagon_tri","fractal_assignment":["../images/org_blu.png","../images/blu_wht.png","../images/pnk_blu.png","../images/gry_blk.png","../images/ylw_slt.png","../images/cyn_red.png"],"mutagen_generator_assignment":[1,0],"goal":5,"start":1,"action_noise":0.15,"location_history":"[1,3,2,1,5]","action_history":"[0,1,0,0]","mutagen_history":"[1,0,1,1]","location_rts":"[1634,728,1041,615]","trial_type":"fractal-mutation","trial_index":61,"time_elapsed":1251255,"internal_node_id":"0.0-5.0-7.0"},{"group":"hexagon_tri","fractal_assignment":["../images/org_blu.png","../images/blu_wht.png","../images/pnk_blu.png","../images/gry_blk.png","../images/ylw_slt.png","../images/cyn_red.png"],"mutagen_generator_assignment":[1,0],"goal":4,"start":5,"action_noise":0.15,"location_history":"[5,4]","action_history":"[0]","mutagen_history":"[1]","location_rts":"[1272]","trial_type":"fractal-mutation","trial_index":62,"time_elapsed":1257181,"internal_node_id":"0.0-5.0-8.0"},{"group":"hexagon_tri","fractal_assignment":["../images/org_blu.png","../images/blu_wht.png","../images/pnk_blu.png","../images/gry_blk.png","../images/ylw_slt.png","../images/cyn_red.png"],"mutagen_generator_assignment":[1,0],"goal":2,"start":4,"action_noise":0.15,"location_history":"[4,2]","action_history":"[1]","mutagen_history":"[0]","location_rts":"[1096]","trial_type":"fractal-mutation","trial_index":63,"time_elapsed":1262906,"internal_node_id":"0.0-5.0-9.0"},{"group":"hexagon_tri","fractal_assignment":["../images/org_blu.png","../images/blu_wht.png","../images/pnk_blu.png","../images/gry_blk.png","../images/ylw_slt.png","../images/cyn_red.png"],"mutagen_generator_assignment":[1,0],"goal":0,"start":2,"action_noise":0.15,"location_history":"[2,3,4,2,1,3,2,3,4,2,1,5,4,2,3,2,1,5,0]","action_history":"[1,1,0,1,0,0,1,1,0,0,0,1,1,1,0,0,1,1]","mutagen_history":"[0,0,1,0,1,1,0,0,1,1,1,0,0,0,1,1,0,0]","location_rts":"[1351,839,696,929,1012,383,672,694,1067,833,593,790,638,947,948,889,681,906]","trial_type":"fractal-mutation","trial_index":64,"time_elapsed":1302303,"internal_node_id":"0.0-5.0-10.0"},{"group":"hexagon_tri","fractal_assignment":["../images/org_blu.png","../images/blu_wht.png","../images/pnk_blu.png","../images/gry_blk.png","../images/ylw_slt.png","../images/cyn_red.png"],"mutagen_generator_assignment":[1,0],"goal":1,"start":0,"action_noise":0.15,"location_history":"[0,1]","action_history":"[1]","mutagen_history":"[0]","location_rts":"[3119]","trial_type":"fractal-mutation","trial_index":65,"time_elapsed":1309978,"internal_node_id":"0.0-5.0-11.0"},{"group":"hexagon_tri","fractal_assignment":["../images/org_blu.png","../images/blu_wht.png","../images/pnk_blu.png","../images/gry_blk.png","../images/ylw_slt.png","../images/cyn_red.png"],"mutagen_generator_assignment":[1,0],"goal":3,"start":1,"action_noise":0.15,"location_history":"[1,3]","action_history":"[0]","mutagen_history":"[1]","location_rts":"[1599]","trial_type":"fractal-mutation","trial_index":66,"time_elapsed":1316310,"internal_node_id":"0.0-5.0-12.0"},{"group":"hexagon_tri","fractal_assignment":["../images/org_blu.png","../images/blu_wht.png","../images/pnk_blu.png","../images/gry_blk.png","../images/ylw_slt.png","../images/cyn_red.png"],"mutagen_generator_assignment":[1,0],"goal":5,"start":3,"action_noise":0.15,"location_history":"[3,2,1,3,4,0,5]","action_history":"[0,0,1,1,1,0]","mutagen_history":"[1,1,0,0,0,1]","location_rts":"[1607,1649,966,679,647,1773]","trial_type":"fractal-mutation","trial_index":67,"time_elapsed":1333916,"internal_node_id":"0.0-5.0-13.0"},{"group":"hexagon_tri","fractal_assignment":["../images/org_blu.png","../images/blu_wht.png","../images/pnk_blu.png","../images/gry_blk.png","../images/ylw_slt.png","../images/cyn_red.png"],"mutagen_generator_assignment":[1,0],"goal":4,"start":5,"action_noise":0.15,"location_history":"[5,4]","action_history":"[0]","mutagen_history":"[1]","location_rts":"[1725]","trial_type":"fractal-mutation","trial_index":68,"time_elapsed":1340177,"internal_node_id":"0.0-5.0-14.0"},{"group":"hexagon_tri","fractal_assignment":["../images/org_blu.png","../images/blu_wht.png","../images/pnk_blu.png","../images/gry_blk.png","../images/ylw_slt.png","../images/cyn_red.png"],"mutagen_generator_assignment":[1,0],"goal":0,"start":4,"action_noise":0.15,"location_history":"[4,0]","action_history":"[0]","mutagen_history":"[1]","location_rts":"[1555]","trial_type":"fractal-mutation","trial_index":69,"time_elapsed":1346339,"internal_node_id":"0.0-5.0-15.0"},{"group":"hexagon_tri","fractal_assignment":["../images/org_blu.png","../images/blu_wht.png","../images/pnk_blu.png","../images/gry_blk.png","../images/ylw_slt.png","../images/cyn_red.png"],"mutagen_generator_assignment":[1,0],"goal":3,"start":0,"action_noise":0.15,"location_history":"[0,1,5,4,0,1,5,4,2,3]","action_history":"[1,1,1,0,1,0,0,0,1]","mutagen_history":"[0,0,0,1,0,1,1,1,0]","location_rts":"[1536,1238,1073,1171,1281,1188,966,734,595]","trial_type":"fractal-mutation","trial_index":70,"time_elapsed":1369811,"internal_node_id":"0.0-5.0-16.0"},{"group":"hexagon_tri","fractal_assignment":["../images/org_blu.png","../images/blu_wht.png","../images/pnk_blu.png","../images/gry_blk.png","../images/ylw_slt.png","../images/cyn_red.png"],"mutagen_generator_assignment":[1,0],"goal":1,"start":3,"action_noise":0.15,"location_history":"[3,2,3,4,2,3,2,3,2,1]","action_history":"[0,1,1,1,0,0,1,0,0]","mutagen_history":"[1,0,0,0,1,1,0,1,1]","location_rts":"[1627,933,712,761,479,752,448,611,361]","trial_type":"fractal-mutation","trial_index":71,"time_elapsed":1389921,"internal_node_id":"0.0-5.0-17.0"},{"group":"hexagon_tri","fractal_assignment":["../images/org_blu.png","../images/blu_wht.png","../images/pnk_blu.png","../images/gry_blk.png","../images/ylw_slt.png","../images/cyn_red.png"],"mutagen_generator_assignment":[1,0],"goal":5,"start":1,"action_noise":0.15,"location_history":"[1,3,4,2,1,3,2,3,4,2,1,5]","action_history":"[0,1,1,0,0,0,1,1,1,0,1]","mutagen_history":"[1,0,0,1,1,1,0,0,0,1,0]","location_rts":"[1565,596,648,817,431,838,596,722,1409,1411,513]","trial_type":"fractal-mutation","trial_index":72,"time_elapsed":1415381,"internal_node_id":"0.0-5.0-18.0"},{"group":"hexagon_tri","fractal_assignment":["../images/org_blu.png","../images/blu_wht.png","../images/pnk_blu.png","../images/gry_blk.png","../images/ylw_slt.png","../images/cyn_red.png"],"mutagen_generator_assignment":[1,0],"goal":2,"start":5,"action_noise":0.15,"location_history":"[5,0,5,0,1,3,2]","action_history":"[1,0,0,1,1,0]","mutagen_history":"[0,1,1,0,0,1]","location_rts":"[4401,1201,665,856,1107,721]","trial_type":"fractal-mutation","trial_index":73,"time_elapsed":1434579,"internal_node_id":"0.0-5.0-19.0"},{"group":"hexagon_tri","fractal_assignment":["../images/org_blu.png","../images/blu_wht.png","../images/pnk_blu.png","../images/gry_blk.png","../images/ylw_slt.png","../images/cyn_red.png"],"mutagen_generator_assignment":[1,0],"goal":4,"start":2,"action_noise":0.15,"location_history":"[2,1,5,0,5,4]","action_history":"[0,1,1,0,0]","mutagen_history":"[1,0,0,1,1]","location_rts":"[1778,672,792,871,767]","trial_type":"fractal-mutation","trial_index":74,"time_elapsed":1448830,"internal_node_id":"0.0-5.0-20.0"},{"group":"hexagon_tri","fractal_assignment":["../images/org_blu.png","../images/blu_wht.png","../images/pnk_blu.png","../images/gry_blk.png","../images/ylw_slt.png","../images/cyn_red.png"],"mutagen_generator_assignment":[1,0],"goal":1,"start":4,"action_noise":0.15,"location_history":"[4,2,3,2,3,4,0,1]","action_history":"[1,1,0,1,1,0,1]","mutagen_history":"[0,0,1,0,0,1,0]","location_rts":"[1541,1171,581,1320,1095,298,999]","trial_type":"fractal-mutation","trial_index":75,"time_elapsed":1467324,"internal_node_id":"0.0-5.0-21.0"},{"group":"hexagon_tri","fractal_assignment":["../images/org_blu.png","../images/blu_wht.png","../images/pnk_blu.png","../images/gry_blk.png","../images/ylw_slt.png","../images/cyn_red.png"],"mutagen_generator_assignment":[1,0],"goal":3,"start":1,"action_noise":0.15,"location_history":"[1,5,4,0,1,5,0,5,4,0,5,4,2,3]","action_history":"[1,0,0,1,1,1,0,0,0,0,0,1,1]","mutagen_history":"[0,1,1,0,0,0,1,1,1,1,1,0,0]","location_rts":"[1463,2476,1390,642,924,880,914,707,549,2172,1436,416,1522]","trial_type":"fractal-mutation","trial_index":76,"time_elapsed":1501119,"internal_node_id":"0.0-5.0-22.0"},{"group":"hexagon_tri","fractal_assignment":["../images/org_blu.png","../images/blu_wht.png","../images/pnk_blu.png","../images/gry_blk.png","../images/ylw_slt.png","../images/cyn_red.png"],"mutagen_generator_assignment":[1,0],"goal":2,"start":3,"action_noise":0.15,"location_history":"[3,4,0,5,4,2]","action_history":"[1,1,0,0,1]","mutagen_history":"[0,0,1,1,0]","location_rts":"[781,1326,797,518,682]","trial_type":"fractal-mutation","trial_index":77,"time_elapsed":1514369,"internal_node_id":"0.0-5.0-23.0"},{"group":"hexagon_tri","fractal_assignment":["../images/org_blu.png","../images/blu_wht.png","../images/pnk_blu.png","../images/gry_blk.png","../images/ylw_slt.png","../images/cyn_red.png"],"mutagen_generator_assignment":[1,0],"goal":0,"start":2,"action_noise":0.15,"location_history":"[2,1,5,0]","action_history":"[0,1,1]","mutagen_history":"[1,0,0]","location_rts":"[2532,727,732]","trial_type":"fractal-mutation","trial_index":78,"time_elapsed":1525333,"internal_node_id":"0.0-5.0-24.0"},{"group":"hexagon_tri","fractal_assignment":["../images/org_blu.png","../images/blu_wht.png","../images/pnk_blu.png","../images/gry_blk.png","../images/ylw_slt.png","../images/cyn_red.png"],"mutagen_generator_assignment":[1,0],"goal":5,"start":0,"action_noise":0.15,"location_history":"[0,1,5]","action_history":"[1,1]","mutagen_history":"[0,0]","location_rts":"[1186,1327]","trial_type":"fractal-mutation","trial_index":79,"time_elapsed":1533578,"internal_node_id":"0.0-5.0-25.0"},{"group":"hexagon_tri","fractal_assignment":["../images/org_blu.png","../images/blu_wht.png","../images/pnk_blu.png","../images/gry_blk.png","../images/ylw_slt.png","../images/cyn_red.png"],"mutagen_generator_assignment":[1,0],"goal":2,"start":5,"action_noise":0.15,"location_history":"[5,0,1,5,0,5,4,2]","action_history":"[0,1,1,1,0,0,1]","mutagen_history":"[1,0,0,0,1,1,0]","location_rts":"[2576,851,704,737,645,473,797]","trial_type":"fractal-mutation","trial_index":80,"time_elapsed":1551816,"internal_node_id":"0.0-5.0-26.0"},{"group":"hexagon_tri","fractal_assignment":["../images/org_blu.png","../images/blu_wht.png","../images/pnk_blu.png","../images/gry_blk.png","../images/ylw_slt.png","../images/cyn_red.png"],"mutagen_generator_assignment":[1,0],"goal":3,"start":2,"action_noise":0.15,"location_history":"[2,3]","action_history":"[1]","mutagen_history":"[0]","location_rts":"[1777]","trial_type":"fractal-mutation","trial_index":81,"time_elapsed":1558147,"internal_node_id":"0.0-5.0-27.0"},{"group":"hexagon_tri","fractal_assignment":["../images/org_blu.png","../images/blu_wht.png","../images/pnk_blu.png","../images/gry_blk.png","../images/ylw_slt.png","../images/cyn_red.png"],"mutagen_generator_assignment":[1,0],"goal":0,"start":3,"action_noise":0.15,"location_history":"[3,2,3,2,1,5,0]","action_history":"[0,1,1,0,1,1]","mutagen_history":"[1,0,0,1,0,0]","location_rts":"[2024,741,594,2205,1210,674]","trial_type":"fractal-mutation","trial_index":82,"time_elapsed":1575858,"internal_node_id":"0.0-5.0-28.0"},{"group":"hexagon_tri","fractal_assignment":["../images/org_blu.png","../images/blu_wht.png","../images/pnk_blu.png","../images/gry_blk.png","../images/ylw_slt.png","../images/cyn_red.png"],"mutagen_generator_assignment":[1,0],"goal":1,"start":0,"action_noise":0.15,"location_history":"[0,1]","action_history":"[1]","mutagen_history":"[0]","location_rts":"[870]","trial_type":"fractal-mutation","trial_index":83,"time_elapsed":1581438,"internal_node_id":"0.0-5.0-29.0"},{"group":"hexagon_tri","fractal_assignment":["../images/org_blu.png","../images/blu_wht.png","../images/pnk_blu.png","../images/gry_blk.png","../images/ylw_slt.png","../images/cyn_red.png"],"mutagen_generator_assignment":[1,0],"goal":4,"start":1,"action_noise":0.15,"location_history":"[1,3,4]","action_history":"[0,1]","mutagen_history":"[1,0]","location_rts":"[1319,936]","trial_type":"fractal-mutation","trial_index":84,"time_elapsed":1589375,"internal_node_id":"0.0-5.0-30.0"},{"group":"hexagon_tri","fractal_assignment":["../images/org_blu.png","../images/blu_wht.png","../images/pnk_blu.png","../images/gry_blk.png","../images/ylw_slt.png","../images/cyn_red.png"],"mutagen_generator_assignment":[1,0],"goal":5,"start":4,"action_noise":0.15,"location_history":"[4,0,1,5]","action_history":"[0,1,1]","mutagen_history":"[1,0,0]","location_rts":"[3268,894,674]","trial_type":"fractal-mutation","trial_index":85,"time_elapsed":1601183,"internal_node_id":"0.0-5.0-31.0"},{"group":"hexagon_tri","fractal_assignment":["../images/org_blu.png","../images/blu_wht.png","../images/pnk_blu.png","../images/gry_blk.png","../images/ylw_slt.png","../images/cyn_red.png"],"mutagen_generator_assignment":[1,0],"goal":0,"start":5,"action_noise":0.15,"location_history":"[5,4,2,1,5,4,0]","action_history":"[0,1,1,1,0,0]","mutagen_history":"[1,0,0,0,1,1]","location_rts":"[829,989,679,982,527,606]","trial_type":"fractal-mutation","trial_index":86,"time_elapsed":1615815,"internal_node_id":"0.0-5.0-32.0"},{"group":"hexagon_tri","fractal_assignment":["../images/org_blu.png","../images/blu_wht.png","../images/pnk_blu.png","../images/gry_blk.png","../images/ylw_slt.png","../images/cyn_red.png"],"mutagen_generator_assignment":[1,0],"goal":3,"start":0,"action_noise":0.15,"location_history":"[0,5,0,1,5,4,0,5,4,0,1,5,0,5,4,2,3]","action_history":"[0,1,1,1,0,0,0,0,0,1,0,1,0,0,1,1]","mutagen_history":"[1,0,0,0,1,1,1,1,1,0,1,0,1,1,0,0]","location_rts":"[2008,671,1548,1606,442,272,1127,717,1625,866,1452,1178,1427,917,458,825]","trial_type":"fractal-mutation","trial_index":87,"time_elapsed":1653869,"internal_node_id":"0.0-5.0-33.0"},{"group":"hexagon_tri","fractal_assignment":["../images/org_blu.png","../images/blu_wht.png","../images/pnk_blu.png","../images/gry_blk.png","../images/ylw_slt.png","../images/cyn_red.png"],"mutagen_generator_assignment":[1,0],"goal":1,"start":3,"action_noise":0.15,"location_history":"[3,2,3,2,1]","action_history":"[0,1,1,0]","mutagen_history":"[1,0,0,1]","location_rts":"[1447,649,1538,1007]","trial_type":"fractal-mutation","trial_index":88,"time_elapsed":1666393,"internal_node_id":"0.0-5.0-34.0"},{"group":"hexagon_tri","fractal_assignment":["../images/org_blu.png","../images/blu_wht.png","../images/pnk_blu.png","../images/gry_blk.png","../images/ylw_slt.png","../images/cyn_red.png"],"mutagen_generator_assignment":[1,0],"goal":2,"start":1,"action_noise":0.15,"location_history":"[1,5,0,5,0,5,0,1,3,4,2]","action_history":"[1,0,0,1,0,1,1,0,1,1]","mutagen_history":"[0,1,1,0,1,0,0,1,0,0]","location_rts":"[4521,853,1094,541,1167,579,289,1343,1333,608]","trial_type":"fractal-mutation","trial_index":89,"time_elapsed":1693284,"internal_node_id":"0.0-5.0-35.0"},{"group":"hexagon_tri","fractal_assignment":["../images/org_blu.png","../images/blu_wht.png","../images/pnk_blu.png","../images/gry_blk.png","../images/ylw_slt.png","../images/cyn_red.png"],"mutagen_generator_assignment":[1,0],"goal":4,"start":2,"action_noise":0.15,"location_history":"[2,1,5,4]","action_history":"[0,1,1]","mutagen_history":"[1,0,0]","location_rts":"[2687,713,489]","trial_type":"fractal-mutation","trial_index":90,"time_elapsed":1703892,"internal_node_id":"0.0-5.0-36.0"},{"group":"hexagon_tri","fractal_assignment":["../images/org_blu.png","../images/blu_wht.png","../images/pnk_blu.png","../images/gry_blk.png","../images/ylw_slt.png","../images/cyn_red.png"],"mutagen_generator_assignment":[1,0],"goal":5,"start":4,"action_noise":0.15,"location_history":"[4,0,5]","action_history":"[1,0]","mutagen_history":"[0,1]","location_rts":"[2586,1104]","trial_type":"fractal-mutation","trial_index":91,"time_elapsed":1713377,"internal_node_id":"0.0-5.0-37.0"},{"group":"hexagon_tri","fractal_assignment":["../images/org_blu.png","../images/blu_wht.png","../images/pnk_blu.png","../images/gry_blk.png","../images/ylw_slt.png","../images/cyn_red.png"],"mutagen_generator_assignment":[1,0],"goal":1,"start":5,"action_noise":0.15,"location_history":"[5,4,0,1]","action_history":"[0,1,1]","mutagen_history":"[1,0,0]","location_rts":"[2536,908,648]","trial_type":"fractal-mutation","trial_index":92,"time_elapsed":1724243,"internal_node_id":"0.0-5.0-38.0"},{"group":"hexagon_tri","fractal_assignment":["../images/org_blu.png","../images/blu_wht.png","../images/pnk_blu.png","../images/gry_blk.png","../images/ylw_slt.png","../images/cyn_red.png"],"mutagen_generator_assignment":[1,0],"goal":4,"start":1,"action_noise":0.15,"location_history":"[1,5,0,5,4]","action_history":"[1,1,0,0]","mutagen_history":"[0,0,1,1]","location_rts":"[2513,528,825,916]","trial_type":"fractal-mutation","trial_index":93,"time_elapsed":1737186,"internal_node_id":"0.0-5.0-39.0"},{"group":"hexagon_tri","fractal_assignment":["../images/org_blu.png","../images/blu_wht.png","../images/pnk_blu.png","../images/gry_blk.png","../images/ylw_slt.png","../images/cyn_red.png"],"mutagen_generator_assignment":[1,0],"goal":3,"start":4,"action_noise":0.15,"location_history":"[4,2,3]","action_history":"[0,0]","mutagen_history":"[1,1]","location_rts":"[1235,863]","trial_type":"fractal-mutation","trial_index":94,"time_elapsed":1745220,"internal_node_id":"0.0-5.0-40.0"},{"group":"hexagon_tri","fractal_assignment":["../images/org_blu.png","../images/blu_wht.png","../images/pnk_blu.png","../images/gry_blk.png","../images/ylw_slt.png","../images/cyn_red.png"],"mutagen_generator_assignment":[1,0],"goal":2,"start":3,"action_noise":0.15,"location_history":"[3,2]","action_history":"[0]","mutagen_history":"[1]","location_rts":"[1148]","trial_type":"fractal-mutation","trial_index":95,"time_elapsed":1751034,"internal_node_id":"0.0-5.0-41.0"},{"group":"hexagon_tri","fractal_assignment":["../images/org_blu.png","../images/blu_wht.png","../images/pnk_blu.png","../images/gry_blk.png","../images/ylw_slt.png","../images/cyn_red.png"],"mutagen_generator_assignment":[1,0],"goal":0,"start":2,"action_noise":0.15,"location_history":"[2,1,5,0]","action_history":"[1,1,0]","mutagen_history":"[0,0,1]","location_rts":"[2293,1131,541]","trial_type":"fractal-mutation","trial_index":96,"time_elapsed":1762159,"internal_node_id":"0.0-5.0-42.0"},{"group":"hexagon_tri","fractal_assignment":["../images/org_blu.png","../images/blu_wht.png","../images/pnk_blu.png","../images/gry_blk.png","../images/ylw_slt.png","../images/cyn_red.png"],"mutagen_generator_assignment":[1,0],"goal":5,"start":0,"action_noise":0.15,"location_history":"[0,5]","action_history":"[0]","mutagen_history":"[1]","location_rts":"[1126]","trial_type":"fractal-mutation","trial_index":97,"time_elapsed":1768068,"internal_node_id":"0.0-5.0-43.0"},{"group":"hexagon_tri","fractal_assignment":["../images/org_blu.png","../images/blu_wht.png","../images/pnk_blu.png","../images/gry_blk.png","../images/ylw_slt.png","../images/cyn_red.png"],"mutagen_generator_assignment":[1,0],"goal":0,"start":5,"action_noise":0.15,"location_history":"[5,0]","action_history":"[1]","mutagen_history":"[0]","location_rts":"[1374]","trial_type":"fractal-mutation","trial_index":98,"time_elapsed":1774055,"internal_node_id":"0.0-5.0-44.0"},{"group":"hexagon_tri","fractal_assignment":["../images/org_blu.png","../images/blu_wht.png","../images/pnk_blu.png","../images/gry_blk.png","../images/ylw_slt.png","../images/cyn_red.png"],"mutagen_generator_assignment":[1,0],"goal":2,"start":0,"action_noise":0.15,"location_history":"[0,5,4,0,1,5,4,2]","action_history":"[0,0,0,1,1,0,1]","mutagen_history":"[1,1,1,0,0,1,0]","location_rts":"[4074,733,1473,1149,631,925,1479]","trial_type":"fractal-mutation","trial_index":99,"time_elapsed":1795517,"internal_node_id":"0.0-5.0-45.0"},{"group":"hexagon_tri","fractal_assignment":["../images/org_blu.png","../images/blu_wht.png","../images/pnk_blu.png","../images/gry_blk.png","../images/ylw_slt.png","../images/cyn_red.png"],"mutagen_generator_assignment":[1,0],"goal":4,"start":2,"action_noise":0.15,"location_history":"[2,1,5,4]","action_history":"[0,1,1]","mutagen_history":"[1,0,0]","location_rts":"[1342,677,532]","trial_type":"fractal-mutation","trial_index":100,"time_elapsed":1804789,"internal_node_id":"0.0-5.0-46.0"},{"group":"hexagon_tri","fractal_assignment":["../images/org_blu.png","../images/blu_wht.png","../images/pnk_blu.png","../images/gry_blk.png","../images/ylw_slt.png","../images/cyn_red.png"],"mutagen_generator_assignment":[1,0],"goal":1,"start":4,"action_noise":0.15,"location_history":"[4,0,1]","action_history":"[0,1]","mutagen_history":"[1,0]","location_rts":"[3304,1210]","trial_type":"fractal-mutation","trial_index":101,"time_elapsed":1815027,"internal_node_id":"0.0-5.0-47.0"},{"group":"hexagon_tri","fractal_assignment":["../images/org_blu.png","../images/blu_wht.png","../images/pnk_blu.png","../images/gry_blk.png","../images/ylw_slt.png","../images/cyn_red.png"],"mutagen_generator_assignment":[1,0],"goal":5,"start":1,"action_noise":0.15,"location_history":"[1,3,4,2,1,3,2,1,3,4,0,1,3,2,1,3,2,1,3,4,0,5]","action_history":"[0,1,1,0,0,0,0,1,1,0,1,0,0,1,0,0,0,0,1,0,1]","mutagen_history":"[1,0,0,1,1,1,1,0,0,1,0,1,1,0,1,1,1,1,0,1,0]","location_rts":"[1728,532,1204,473,596,668,1039,607,709,1915,789,925,727,416,1365,793,645,892,769,2396,1897]","trial_type":"fractal-mutation","trial_index":102,"time_elapsed":1862604,"internal_node_id":"0.0-5.0-48.0"},{"group":"hexagon_tri","fractal_assignment":["../images/org_blu.png","../images/blu_wht.png","../images/pnk_blu.png","../images/gry_blk.png","../images/ylw_slt.png","../images/cyn_red.png"],"mutagen_generator_assignment":[1,0],"goal":3,"start":5,"action_noise":0.15,"location_history":"[5,0,1,3]","action_history":"[0,1,0]","mutagen_history":"[1,0,1]","location_rts":"[41565,2022,2257]","trial_type":"fractal-mutation","trial_index":103,"time_elapsed":1915279,"internal_node_id":"0.0-5.0-49.0"},{"view_history":"[{\"page_index\":0,\"viewing_time\":10544}]","rt":10546,"trial_type":"instructions","trial_index":104,"time_elapsed":1926827,"internal_node_id":"0.0-6.0"},{"rt":7094,"responses":"{\"Q0\":\"\"}","trial_type":"survey-text","trial_index":105,"time_elapsed":1934959,"internal_node_id":"0.0-7.0"}]