[{"view_history":"[{\"page_index\":0,\"viewing_time\":6599},{\"page_index\":1,\"viewing_time\":7474}]","rt":14074,"trial_type":"instructions","trial_index":0,"time_elapsed":14076,"internal_node_id":"0.0-0.0"},{"view_history":"[{\"page_index\":0,\"viewing_time\":2035},{\"page_index\":1,\"viewing_time\":3948}]","rt":5984,"trial_type":"instructions","trial_index":1,"time_elapsed":21172,"internal_node_id":"0.0-1.0"},{"group":"hexagon_bi","room_assignment":["yellow","red","blue","grey","green","purple"],"door_color_assignment":["white","black"],"door_generator_assignment":[0,1],"goal":3,"start":5,"action_noise":0.15,"location_history":"[5,0,1,2,1,2,1,0,1,2,1,2,1,0,5,4,3]","action_history":"[1,0,0,1,0,0,1,1,0,1,0,1,1,0,1,0]","door_history":"[1,0,0,1,0,0,1,1,0,1,0,1,1,0,1,0]","location_rts":"[1155,1253,1122,558,1591,1235,770,1156,1240,1507,865,1279,454,338,835,1871]","trial_type":"two-door-navigation","trial_index":2,"time_elapsed":61434,"internal_node_id":"0.0-2.0-0.0"},{"group":"hexagon_bi","room_assignment":["yellow","red","blue","grey","green","purple"],"door_color_assignment":["white","black"],"door_generator_assignment":[0,1],"goal":1,"start":3,"action_noise":0.15,"location_history":"[3,2,3,4,5,4,5,0,5,0,1]","action_history":"[1,1,0,1,1,1,0,0,0,1]","door_history":"[1,1,0,1,1,1,0,0,0,1]","location_rts":"[2385,1164,1233,1516,531,576,337,1205,1984,484]","trial_type":"two-door-navigation","trial_index":3,"time_elapsed":88971,"internal_node_id":"0.0-2.0-1.0"},{"group":"hexagon_bi","room_assignment":["yellow","red","blue","grey","green","purple"],"door_color_assignment":["white","black"],"door_generator_assignment":[0,1],"goal":0,"start":1,"action_noise":0.15,"location_history":"[1,2,3,2,1,2,3,2,3,2,1,2,1,0]","action_history":"[0,1,1,0,0,0,1,1,1,0,0,0,1]","door_history":"[0,1,1,0,0,0,1,1,1,0,0,0,1]","location_rts":"[2064,1957,1919,1161,1278,435,420,1275,526,335,1321,397,1011]","trial_type":"two-door-navigation","trial_index":4,"time_elapsed":121709,"internal_node_id":"0.0-2.0-2.0"},{"group":"hexagon_bi","room_assignment":["yellow","red","blue","grey","green","purple"],"door_color_assignment":["white","black"],"door_generator_assignment":[0,1],"goal":3,"start":0,"action_noise":0.15,"location_history":"[0,1,0,5,0,1,2,1,2,3]","action_history":"[1,1,0,0,1,0,0,0,1]","door_history":"[1,1,0,0,1,0,0,0,1]","location_rts":"[2052,983,1194,1715,2189,1288,928,601,543]","trial_type":"two-door-navigation","trial_index":5,"time_elapsed":147193,"internal_node_id":"0.0-2.0-3.0"},{"group":"hexagon_bi","room_assignment":["yellow","red","blue","grey","green","purple"],"door_color_assignment":["white","black"],"door_generator_assignment":[0,1],"goal":4,"start":3,"action_noise":0.15,"location_history":"[3,2,1,2,1,0,1,0,5,4]","action_history":"[1,0,0,0,1,0,1,0,1]","door_history":"[1,0,0,0,1,0,1,0,1]","location_rts":"[2034,1195,529,1118,340,736,1446,853,1140]","trial_type":"two-door-navigation","trial_index":6,"time_elapsed":170927,"internal_node_id":"0.0-2.0-4.0"},{"group":"hexagon_bi","room_assignment":["yellow","red","blue","grey","green","purple"],"door_color_assignment":["white","black"],"door_generator_assignment":[0,1],"goal":2,"start":4,"action_noise":0.15,"location_history":"[4,3,2]","action_history":"[0,1]","door_history":"[0,1]","location_rts":"[1422,1153]","trial_type":"two-door-navigation","trial_index":7,"time_elapsed":179088,"internal_node_id":"0.0-2.0-5.0"},{"group":"hexagon_bi","room_assignment":["yellow","red","blue","grey","green","purple"],"door_color_assignment":["white","black"],"door_generator_assignment":[0,1],"goal":1,"start":2,"action_noise":0.15,"location_history":"[2,3,4,3,2,1]","action_history":"[1,0,0,1,0]","door_history":"[1,0,0,1,0]","location_rts":"[1024,950,1996,431,1300]","trial_type":"two-door-navigation","trial_index":8,"time_elapsed":194146,"internal_node_id":"0.0-2.0-6.0"},{"group":"hexagon_bi","room_assignment":["yellow","red","blue","grey","green","purple"],"door_color_assignment":["white","black"],"door_generator_assignment":[0,1],"goal":5,"start":1,"action_noise":0.15,"location_history":"[1,2,3,4,5]","action_history":"[0,1,0,1]","door_history":"[0,1,0,1]","location_rts":"[1651,1806,1079,709]","trial_type":"two-door-navigation","trial_index":9,"time_elapsed":207688,"internal_node_id":"0.0-2.0-7.0"},{"group":"hexagon_bi","room_assignment":["yellow","red","blue","grey","green","purple"],"door_color_assignment":["white","black"],"door_generator_assignment":[0,1],"goal":4,"start":5,"action_noise":0.15,"location_history":"[5,4]","action_history":"[1]","door_history":"[1]","location_rts":"[2185]","trial_type":"two-door-navigation","trial_index":10,"time_elapsed":214432,"internal_node_id":"0.0-2.0-8.0"},{"group":"hexagon_bi","room_assignment":["yellow","red","blue","grey","green","purple"],"door_color_assignment":["white","black"],"door_generator_assignment":[0,1],"goal":2,"start":4,"action_noise":0.15,"location_history":"[4,5,0,1,0,5,0,1,2]","action_history":"[1,0,1,1,0,0,1,0]","door_history":"[1,0,1,1,0,0,1,0]","location_rts":"[1332,1605,1591,552,325,1425,604,1525]","trial_type":"two-door-navigation","trial_index":11,"time_elapsed":235990,"internal_node_id":"0.0-2.0-9.0"},{"group":"hexagon_bi","room_assignment":["yellow","red","blue","grey","green","purple"],"door_color_assignment":["white","black"],"door_generator_assignment":[0,1],"goal":0,"start":2,"action_noise":0.15,"location_history":"[2,1,2,3,2,1,0]","action_history":"[0,0,1,1,0,1]","door_history":"[0,0,1,1,0,1]","location_rts":"[1528,998,440,2456,681,1144]","trial_type":"two-door-navigation","trial_index":12,"time_elapsed":253956,"internal_node_id":"0.0-2.0-10.0"},{"group":"hexagon_bi","room_assignment":["yellow","red","blue","grey","green","purple"],"door_color_assignment":["white","black"],"door_generator_assignment":[0,1],"goal":1,"start":0,"action_noise":0.15,"location_history":"[0,1]","action_history":"[0]","door_history":"[0]","location_rts":"[1731]","trial_type":"two-door-navigation","trial_index":13,"time_elapsed":260441,"internal_node_id":"0.0-2.0-11.0"},{"group":"hexagon_bi","room_assignment":["yellow","red","blue","grey","green","purple"],"door_color_assignment":["white","black"],"door_generator_assignment":[0,1],"goal":3,"start":1,"action_noise":0.15,"location_history":"[1,2,3]","action_history":"[0,1]","door_history":"[0,1]","location_rts":"[3476,2599]","trial_type":"two-door-navigation","trial_index":14,"time_elapsed":272232,"internal_node_id":"0.0-2.0-12.0"},{"group":"hexagon_bi","room_assignment":["yellow","red","blue","grey","green","purple"],"door_color_assignment":["white","black"],"door_generator_assignment":[0,1],"goal":5,"start":3,"action_noise":0.15,"location_history":"[3,2,3,2,1,2,3,4,5]","action_history":"[1,0,1,0,0,1,0,1]","door_history":"[1,0,1,0,0,1,0,1]","location_rts":"[1581,573,2045,881,1071,713,881,944]","trial_type":"two-door-navigation","trial_index":15,"time_elapsed":294351,"internal_node_id":"0.0-2.0-13.0"},{"group":"hexagon_bi","room_assignment":["yellow","red","blue","grey","green","purple"],"door_color_assignment":["white","black"],"door_generator_assignment":[0,1],"goal":4,"start":5,"action_noise":0.15,"location_history":"[5,0,5,0,1,0,5,4]","action_history":"[1,1,1,0,1,0,1]","door_history":"[1,1,1,0,1,0,1]","location_rts":"[1361,882,481,1228,965,1203,984]","trial_type":"two-door-navigation","trial_index":16,"time_elapsed":313200,"internal_node_id":"0.0-2.0-14.0"},{"group":"hexagon_bi","room_assignment":["yellow","red","blue","grey","green","purple"],"door_color_assignment":["white","black"],"door_generator_assignment":[0,1],"goal":0,"start":4,"action_noise":0.15,"location_history":"[4,3,4,5,4,5,4,3,4,3,2,3,2,1,0]","action_history":"[0,1,0,0,0,1,0,0,0,1,1,1,0,1]","door_history":"[0,1,0,0,0,1,0,0,0,1,1,1,0,1]","location_rts":"[1577,1259,1082,1294,386,362,421,1081,1635,1034,1148,462,314,1792]","trial_type":"two-door-navigation","trial_index":17,"time_elapsed":348788,"internal_node_id":"0.0-2.0-15.0"},{"group":"hexagon_bi","room_assignment":["yellow","red","blue","grey","green","purple"],"door_color_assignment":["white","black"],"door_generator_assignment":[0,1],"goal":3,"start":0,"action_noise":0.15,"location_history":"[0,5,4,3]","action_history":"[0,1,0]","door_history":"[0,1,0]","location_rts":"[2368,2675,1341]","trial_type":"two-door-navigation","trial_index":18,"time_elapsed":362929,"internal_node_id":"0.0-2.0-16.0"},{"group":"hexagon_bi","room_assignment":["yellow","red","blue","grey","green","purple"],"door_color_assignment":["white","black"],"door_generator_assignment":[0,1],"goal":1,"start":3,"action_noise":0.15,"location_history":"[3,4,3,2,3,4,5,0,1]","action_history":"[0,0,1,0,0,1,0,1]","door_history":"[0,0,1,0,0,1,0,1]","location_rts":"[2004,1151,585,1368,720,298,827,1723]","trial_type":"two-door-navigation","trial_index":19,"time_elapsed":387183,"internal_node_id":"0.0-2.0-17.0"},{"group":"hexagon_bi","room_assignment":["yellow","red","blue","grey","green","purple"],"door_color_assignment":["white","black"],"door_generator_assignment":[0,1],"goal":5,"start":1,"action_noise":0.15,"location_history":"[1,0,5]","action_history":"[1,0]","door_history":"[1,0]","location_rts":"[1617,532]","trial_type":"two-door-navigation","trial_index":20,"time_elapsed":395006,"internal_node_id":"0.0-2.0-18.0"},{"group":"hexagon_bi","room_assignment":["yellow","red","blue","grey","green","purple"],"door_color_assignment":["white","black"],"door_generator_assignment":[0,1],"goal":2,"start":5,"action_noise":0.15,"location_history":"[5,0,1,2]","action_history":"[0,1,0]","door_history":"[0,1,0]","location_rts":"[1722,570,1170]","trial_type":"two-door-navigation","trial_index":21,"time_elapsed":405295,"internal_node_id":"0.0-2.0-19.0"},{"group":"hexagon_bi","room_assignment":["yellow","red","blue","grey","green","purple"],"door_color_assignment":["white","black"],"door_generator_assignment":[0,1],"goal":4,"start":2,"action_noise":0.15,"location_history":"[2,3,4]","action_history":"[1,0]","door_history":"[1,0]","location_rts":"[1794,489]","trial_type":"two-door-navigation","trial_index":22,"time_elapsed":413442,"internal_node_id":"0.0-2.0-20.0"},{"group":"hexagon_bi","room_assignment":["yellow","red","blue","grey","green","purple"],"door_color_assignment":["white","black"],"door_generator_assignment":[0,1],"goal":1,"start":4,"action_noise":0.15,"location_history":"[4,3,2,1]","action_history":"[0,1,0]","door_history":"[0,1,0]","location_rts":"[2046,1238,1410]","trial_type":"two-door-navigation","trial_index":23,"time_elapsed":425070,"internal_node_id":"0.0-2.0-21.0"},{"group":"hexagon_bi","room_assignment":["yellow","red","blue","grey","green","purple"],"door_color_assignment":["white","black"],"door_generator_assignment":[0,1],"goal":3,"start":1,"action_noise":0.15,"location_history":"[1,2,3]","action_history":"[0,1]","door_history":"[0,1]","location_rts":"[1065,1347]","trial_type":"two-door-navigation","trial_index":24,"time_elapsed":433162,"internal_node_id":"0.0-2.0-22.0"},{"group":"hexagon_bi","room_assignment":["yellow","red","blue","grey","green","purple"],"door_color_assignment":["white","black"],"door_generator_assignment":[0,1],"goal":2,"start":3,"action_noise":0.15,"location_history":"[3,4,3,2]","action_history":"[1,0,1]","door_history":"[1,0,1]","location_rts":"[1665,710,1236]","trial_type":"two-door-navigation","trial_index":25,"time_elapsed":443605,"internal_node_id":"0.0-2.0-23.0"},{"group":"hexagon_bi","room_assignment":["yellow","red","blue","grey","green","purple"],"door_color_assignment":["white","black"],"door_generator_assignment":[0,1],"goal":0,"start":2,"action_noise":0.15,"location_history":"[2,1,0]","action_history":"[0,1]","door_history":"[0,1]","location_rts":"[2103,1307]","trial_type":"two-door-navigation","trial_index":26,"time_elapsed":452878,"internal_node_id":"0.0-2.0-24.0"},{"group":"hexagon_bi","room_assignment":["yellow","red","blue","grey","green","purple"],"door_color_assignment":["white","black"],"door_generator_assignment":[0,1],"goal":5,"start":0,"action_noise":0.15,"location_history":"[0,1,2,3,4,5]","action_history":"[1,0,1,0,1]","door_history":"[1,0,1,0,1]","location_rts":"[1746,470,1105,2330,1023]","trial_type":"two-door-navigation","trial_index":27,"time_elapsed":468559,"internal_node_id":"0.0-2.0-25.0"},{"group":"hexagon_bi","room_assignment":["yellow","red","blue","grey","green","purple"],"door_color_assignment":["white","black"],"door_generator_assignment":[0,1],"goal":2,"start":5,"action_noise":0.15,"location_history":"[5,4,3,2]","action_history":"[1,0,1]","door_history":"[1,0,1]","location_rts":"[1130,356,1255]","trial_type":"two-door-navigation","trial_index":28,"time_elapsed":478328,"internal_node_id":"0.0-2.0-26.0"},{"group":"hexagon_bi","room_assignment":["yellow","red","blue","grey","green","purple"],"door_color_assignment":["white","black"],"door_generator_assignment":[0,1],"goal":3,"start":2,"action_noise":0.15,"location_history":"[2,3]","action_history":"[1]","door_history":"[1]","location_rts":"[1994]","trial_type":"two-door-navigation","trial_index":29,"time_elapsed":484964,"internal_node_id":"0.0-2.0-27.0"},{"group":"hexagon_bi","room_assignment":["yellow","red","blue","grey","green","purple"],"door_color_assignment":["white","black"],"door_generator_assignment":[0,1],"goal":0,"start":3,"action_noise":0.15,"location_history":"[3,4,3,2,1,0]","action_history":"[0,0,1,0,1]","door_history":"[0,0,1,0,1]","location_rts":"[2226,1501,685,1329,1124]","trial_type":"two-door-navigation","trial_index":30,"time_elapsed":501422,"internal_node_id":"0.0-2.0-28.0"},{"group":"hexagon_bi","room_assignment":["yellow","red","blue","grey","green","purple"],"door_color_assignment":["white","black"],"door_generator_assignment":[0,1],"goal":1,"start":0,"action_noise":0.15,"location_history":"[0,1]","action_history":"[1]","door_history":"[1]","location_rts":"[1081]","trial_type":"two-door-navigation","trial_index":31,"time_elapsed":507058,"internal_node_id":"0.0-2.0-29.0"},{"group":"hexagon_bi","room_assignment":["yellow","red","blue","grey","green","purple"],"door_color_assignment":["white","black"],"door_generator_assignment":[0,1],"goal":4,"start":1,"action_noise":0.15,"location_history":"[1,2,3,4]","action_history":"[0,1,0]","door_history":"[0,1,0]","location_rts":"[3024,1543,916]","trial_type":"two-door-navigation","trial_index":32,"time_elapsed":519405,"internal_node_id":"0.0-2.0-30.0"},{"group":"hexagon_bi","room_assignment":["yellow","red","blue","grey","green","purple"],"door_color_assignment":["white","black"],"door_generator_assignment":[0,1],"goal":5,"start":4,"action_noise":0.15,"location_history":"[4,5]","action_history":"[1]","door_history":"[1]","location_rts":"[2390]","trial_type":"two-door-navigation","trial_index":33,"time_elapsed":526546,"internal_node_id":"0.0-2.0-31.0"},{"group":"hexagon_bi","room_assignment":["yellow","red","blue","grey","green","purple"],"door_color_assignment":["white","black"],"door_generator_assignment":[0,1],"goal":0,"start":5,"action_noise":0.15,"location_history":"[5,0]","action_history":"[0]","door_history":"[0]","location_rts":"[2241]","trial_type":"two-door-navigation","trial_index":34,"time_elapsed":533470,"internal_node_id":"0.0-2.0-32.0"},{"group":"hexagon_bi","room_assignment":["yellow","red","blue","grey","green","purple"],"door_color_assignment":["white","black"],"door_generator_assignment":[0,1],"goal":3,"start":0,"action_noise":0.15,"location_history":"[0,1,0,5,0,1,2,1,0,1,2,1,2,3]","action_history":"[0,1,0,0,1,0,0,1,1,0,0,0,1]","door_history":"[0,1,0,0,1,0,0,1,1,0,0,0,1]","location_rts":"[1998,1969,2679,1761,1889,1059,852,298,526,413,876,431,376]","trial_type":"two-door-navigation","trial_index":35,"time_elapsed":566292,"internal_node_id":"0.0-2.0-33.0"},{"group":"hexagon_bi","room_assignment":["yellow","red","blue","grey","green","purple"],"door_color_assignment":["white","black"],"door_generator_assignment":[0,1],"goal":1,"start":3,"action_noise":0.15,"location_history":"[3,4,3,2,1]","action_history":"[1,0,1,0]","door_history":"[1,0,1,0]","location_rts":"[3928,1080,1039,2509]","trial_type":"two-door-navigation","trial_index":36,"time_elapsed":582724,"internal_node_id":"0.0-2.0-34.0"},{"group":"hexagon_bi","room_assignment":["yellow","red","blue","grey","green","purple"],"door_color_assignment":["white","black"],"door_generator_assignment":[0,1],"goal":2,"start":1,"action_noise":0.15,"location_history":"[1,2]","action_history":"[0]","door_history":"[0]","location_rts":"[2347]","trial_type":"two-door-navigation","trial_index":37,"time_elapsed":589861,"internal_node_id":"0.0-2.0-35.0"},{"group":"hexagon_bi","room_assignment":["yellow","red","blue","grey","green","purple"],"door_color_assignment":["white","black"],"door_generator_assignment":[0,1],"goal":4,"start":2,"action_noise":0.15,"location_history":"[2,1,0,1,2,1,2,3,4]","action_history":"[1,0,1,0,1,0,1,0]","door_history":"[1,0,1,0,1,0,1,0]","location_rts":"[1859,1249,1248,1464,1494,1125,1133,2400]","trial_type":"two-door-navigation","trial_index":38,"time_elapsed":614491,"internal_node_id":"0.0-2.0-36.0"},{"group":"hexagon_bi","room_assignment":["yellow","red","blue","grey","green","purple"],"door_color_assignment":["white","black"],"door_generator_assignment":[0,1],"goal":5,"start":4,"action_noise":0.15,"location_history":"[4,5]","action_history":"[1]","door_history":"[1]","location_rts":"[1998]","trial_type":"two-door-navigation","trial_index":39,"time_elapsed":621120,"internal_node_id":"0.0-2.0-37.0"},{"group":"hexagon_bi","room_assignment":["yellow","red","blue","grey","green","purple"],"door_color_assignment":["white","black"],"door_generator_assignment":[0,1],"goal":1,"start":5,"action_noise":0.15,"location_history":"[5,0,1]","action_history":"[0,1]","door_history":"[0,1]","location_rts":"[2350,2761]","trial_type":"two-door-navigation","trial_index":40,"time_elapsed":632154,"internal_node_id":"0.0-2.0-38.0"},{"group":"hexagon_bi","room_assignment":["yellow","red","blue","grey","green","purple"],"door_color_assignment":["white","black"],"door_generator_assignment":[0,1],"goal":4,"start":1,"action_noise":0.15,"location_history":"[1,2,3,2,3,4]","action_history":"[0,1,1,1,0]","door_history":"[0,1,1,1,0]","location_rts":"[2080,1982,2640,385,494]","trial_type":"two-door-navigation","trial_index":41,"time_elapsed":649192,"internal_node_id":"0.0-2.0-39.0"},{"group":"hexagon_bi","room_assignment":["yellow","red","blue","grey","green","purple"],"door_color_assignment":["white","black"],"door_generator_assignment":[0,1],"goal":3,"start":4,"action_noise":0.15,"location_history":"[4,3]","action_history":"[0]","door_history":"[0]","location_rts":"[1924]","trial_type":"two-door-navigation","trial_index":42,"time_elapsed":656281,"internal_node_id":"0.0-2.0-40.0"},{"group":"hexagon_bi","room_assignment":["yellow","red","blue","grey","green","purple"],"door_color_assignment":["white","black"],"door_generator_assignment":[0,1],"goal":2,"start":3,"action_noise":0.15,"location_history":"[3,2]","action_history":"[1]","door_history":"[1]","location_rts":"[2317]","trial_type":"two-door-navigation","trial_index":43,"time_elapsed":663154,"internal_node_id":"0.0-2.0-41.0"},{"group":"hexagon_bi","room_assignment":["yellow","red","blue","grey","green","purple"],"door_color_assignment":["white","black"],"door_generator_assignment":[0,1],"goal":0,"start":2,"action_noise":0.15,"location_history":"[2,3,4,5,0]","action_history":"[1,0,1,0]","door_history":"[1,0,1,0]","location_rts":"[2704,987,922,382]","trial_type":"two-door-navigation","trial_index":44,"time_elapsed":676302,"internal_node_id":"0.0-2.0-42.0"},{"group":"hexagon_bi","room_assignment":["yellow","red","blue","grey","green","purple"],"door_color_assignment":["white","black"],"door_generator_assignment":[0,1],"goal":5,"start":0,"action_noise":0.15,"location_history":"[0,5]","action_history":"[0]","door_history":"[0]","location_rts":"[1140]","trial_type":"two-door-navigation","trial_index":45,"time_elapsed":682235,"internal_node_id":"0.0-2.0-43.0"},{"group":"hexagon_bi","room_assignment":["yellow","red","blue","grey","green","purple"],"door_color_assignment":["white","black"],"door_generator_assignment":[0,1],"goal":0,"start":5,"action_noise":0.15,"location_history":"[5,0]","action_history":"[0]","door_history":"[0]","location_rts":"[1954]","trial_type":"two-door-navigation","trial_index":46,"time_elapsed":689030,"internal_node_id":"0.0-2.0-44.0"},{"group":"hexagon_bi","room_assignment":["yellow","red","blue","grey","green","purple"],"door_color_assignment":["white","black"],"door_generator_assignment":[0,1],"goal":2,"start":0,"action_noise":0.15,"location_history":"[0,1,2]","action_history":"[1,0]","door_history":"[1,0]","location_rts":"[1725,784]","trial_type":"two-door-navigation","trial_index":47,"time_elapsed":697141,"internal_node_id":"0.0-2.0-45.0"},{"group":"hexagon_bi","room_assignment":["yellow","red","blue","grey","green","purple"],"door_color_assignment":["white","black"],"door_generator_assignment":[0,1],"goal":4,"start":2,"action_noise":0.15,"location_history":"[2,1,2,1,2,1,0,1,2,3,4]","action_history":"[1,0,0,1,0,1,0,0,1,0]","door_history":"[1,0,0,1,0,1,0,0,1,0]","location_rts":"[2222,1199,750,509,1340,1746,1036,2404,629,3424]","trial_type":"two-door-navigation","trial_index":48,"time_elapsed":728004,"internal_node_id":"0.0-2.0-46.0"},{"group":"hexagon_bi","room_assignment":["yellow","red","blue","grey","green","purple"],"door_color_assignment":["white","black"],"door_generator_assignment":[0,1],"goal":1,"start":4,"action_noise":0.15,"location_history":"[4,5,0,1]","action_history":"[1,0,1]","door_history":"[1,0,1]","location_rts":"[2181,2415,1402]","trial_type":"two-door-navigation","trial_index":49,"time_elapsed":741270,"internal_node_id":"0.0-2.0-47.0"},{"group":"hexagon_bi","room_assignment":["yellow","red","blue","grey","green","purple"],"door_color_assignment":["white","black"],"door_generator_assignment":[0,1],"goal":5,"start":1,"action_noise":0.15,"location_history":"[1,2,3,4,3,2,3,4,3,4,3,2,3,2,1,0,5]","action_history":"[0,1,0,0,1,1,0,0,1,0,1,1,1,0,0,0]","door_history":"[0,1,0,0,1,1,0,0,1,0,1,1,1,0,0,0]","location_rts":"[2745,3340,1384,1273,392,1959,272,2025,1667,2885,1447,935,965,1100,1780,2510]","trial_type":"two-door-navigation","trial_index":50,"time_elapsed":790816,"internal_node_id":"0.0-2.0-48.0"},{"group":"hexagon_bi","room_assignment":["yellow","red","blue","grey","green","purple"],"door_color_assignment":["white","black"],"door_generator_assignment":[0,1],"goal":3,"start":5,"action_noise":0.15,"location_history":"[5,0,1,2,3]","action_history":"[1,1,0,1]","door_history":"[1,1,0,1]","location_rts":"[1992,1871,861,1851]","trial_type":"two-door-navigation","trial_index":51,"time_elapsed":805503,"internal_node_id":"0.0-2.0-49.0"},{"view_history":"[{\"page_index\":0,\"viewing_time\":1963}]","rt":1964,"trial_type":"instructions","trial_index":52,"time_elapsed":808468,"internal_node_id":"0.0-3.0"},{"view_history":"[{\"page_index\":0,\"viewing_time\":2224},{\"page_index\":1,\"viewing_time\":21417}]","rt":23642,"trial_type":"instructions","trial_index":53,"time_elapsed":833112,"internal_node_id":"0.0-4.0"},{"group":"hexagon_bi","fractal_assignment":["../images/ylw_slt.png","../images/pnk_blu.png","../images/org_blu.png","../images/cyn_red.png","../images/blu_wht.png","../images/gry_blk.png"],"mutagen_generator_assignment":[0,1],"goal":3,"start":5,"action_noise":0.15,"location_history":"[5,4,3]","action_history":"[1,0]","mutagen_history":"[1,0]","location_rts":"[2978,1357]","trial_type":"fractal-mutation","trial_index":54,"time_elapsed":843415,"internal_node_id":"0.0-5.0-0.0"},{"group":"hexagon_bi","fractal_assignment":["../images/ylw_slt.png","../images/pnk_blu.png","../images/org_blu.png","../images/cyn_red.png","../images/blu_wht.png","../images/gry_blk.png"],"mutagen_generator_assignment":[0,1],"goal":1,"start":3,"action_noise":0.15,"location_history":"[3,2,1]","action_history":"[1,0]","mutagen_history":"[1,0]","location_rts":"[3032,906]","trial_type":"fractal-mutation","trial_index":55,"time_elapsed":853970,"internal_node_id":"0.0-5.0-1.0"},{"group":"hexagon_bi","fractal_assignment":["../images/ylw_slt.png","../images/pnk_blu.png","../images/org_blu.png","../images/cyn_red.png","../images/blu_wht.png","../images/gry_blk.png"],"mutagen_generator_assignment":[0,1],"goal":0,"start":1,"action_noise":0.15,"location_history":"[1,2,1,0]","action_history":"[1,0,1]","mutagen_history":"[1,0,1]","location_rts":"[1285,1618,691]","trial_type":"fractal-mutation","trial_index":56,"time_elapsed":864982,"internal_node_id":"0.0-5.0-2.0"},{"group":"hexagon_bi","fractal_assignment":["../images/ylw_slt.png","../images/pnk_blu.png","../images/org_blu.png","../images/cyn_red.png","../images/blu_wht.png","../images/gry_blk.png"],"mutagen_generator_assignment":[0,1],"goal":3,"start":0,"action_noise":0.15,"location_history":"[0,1,2,3]","action_history":"[1,0,1]","mutagen_history":"[1,0,1]","location_rts":"[1438,1741,442]","trial_type":"fractal-mutation","trial_index":57,"time_elapsed":876026,"internal_node_id":"0.0-5.0-3.0"},{"group":"hexagon_bi","fractal_assignment":["../images/ylw_slt.png","../images/pnk_blu.png","../images/org_blu.png","../images/cyn_red.png","../images/blu_wht.png","../images/gry_blk.png"],"mutagen_generator_assignment":[0,1],"goal":4,"start":3,"action_noise":0.15,"location_history":"[3,2,3,4]","action_history":"[1,1,0]","mutagen_history":"[1,1,0]","location_rts":"[1371,728,359]","trial_type":"fractal-mutation","trial_index":58,"time_elapsed":885680,"internal_node_id":"0.0-5.0-4.0"},{"group":"hexagon_bi","fractal_assignment":["../images/ylw_slt.png","../images/pnk_blu.png","../images/org_blu.png","../images/cyn_red.png","../images/blu_wht.png","../images/gry_blk.png"],"mutagen_generator_assignment":[0,1],"goal":2,"start":4,"action_noise":0.15,"location_history":"[4,5,0,5,4,3,4,3,4,3,2]","action_history":"[1,0,1,1,1,0,0,1,0,1]","mutagen_history":"[1,0,1,1,1,0,0,1,0,1]","location_rts":"[2182,1218,834,1319,21,1588,1545,735,1155,1298]","trial_type":"fractal-mutation","trial_index":59,"time_elapsed":913379,"internal_node_id":"0.0-5.0-5.0"},{"group":"hexagon_bi","fractal_assignment":["../images/ylw_slt.png","../images/pnk_blu.png","../images/org_blu.png","../images/cyn_red.png","../images/blu_wht.png","../images/gry_blk.png"],"mutagen_generator_assignment":[0,1],"goal":1,"start":2,"action_noise":0.15,"location_history":"[2,3,4,3,4,5,4,5,0,1]","action_history":"[1,0,1,0,1,1,1,0,1]","mutagen_history":"[1,0,1,0,1,1,1,0,1]","location_rts":"[1274,1103,1088,1956,552,2013,495,315,1215]","trial_type":"fractal-mutation","trial_index":60,"time_elapsed":938353,"internal_node_id":"0.0-5.0-6.0"},{"group":"hexagon_bi","fractal_assignment":["../images/ylw_slt.png","../images/pnk_blu.png","../images/org_blu.png","../images/cyn_red.png","../images/blu_wht.png","../images/gry_blk.png"],"mutagen_generator_assignment":[0,1],"goal":5,"start":1,"action_noise":0.15,"location_history":"[1,0,1,2,3,2,3,4,3,2,1,2,3,4,5]","action_history":"[0,1,0,1,1,1,0,0,1,1,0,1,0,1]","mutagen_history":"[0,1,0,1,1,1,0,0,1,1,0,1,0,1]","location_rts":"[2439,747,859,378,720,292,299,1381,907,1087,176,946,2067,1206]","trial_type":"fractal-mutation","trial_index":61,"time_elapsed":973397,"internal_node_id":"0.0-5.0-7.0"},{"group":"hexagon_bi","fractal_assignment":["../images/ylw_slt.png","../images/pnk_blu.png","../images/org_blu.png","../images/cyn_red.png","../images/blu_wht.png","../images/gry_blk.png"],"mutagen_generator_assignment":[0,1],"goal":4,"start":5,"action_noise":0.15,"location_history":"[5,0,1,2,3,4]","action_history":"[0,1,0,1,0]","mutagen_history":"[0,1,0,1,0]","location_rts":"[1736,832,1165,317,1110]","trial_type":"fractal-mutation","trial_index":62,"time_elapsed":989040,"internal_node_id":"0.0-5.0-8.0"},{"group":"hexagon_bi","fractal_assignment":["../images/ylw_slt.png","../images/pnk_blu.png","../images/org_blu.png","../images/cyn_red.png","../images/blu_wht.png","../images/gry_blk.png"],"mutagen_generator_assignment":[0,1],"goal":2,"start":4,"action_noise":0.15,"location_history":"[4,5,4,5,0,1,2]","action_history":"[1,0,1,0,1,0]","mutagen_history":"[1,0,1,0,1,0]","location_rts":"[1535,1184,377,1014,885,1260]","trial_type":"fractal-mutation","trial_index":63,"time_elapsed":1007073,"internal_node_id":"0.0-5.0-9.0"},{"group":"hexagon_bi","fractal_assignment":["../images/ylw_slt.png","../images/pnk_blu.png","../images/org_blu.png","../images/cyn_red.png","../images/blu_wht.png","../images/gry_blk.png"],"mutagen_generator_assignment":[0,1],"goal":0,"start":2,"action_noise":0.15,"location_history":"[2,3,4,5,4,3,2,1,2,1,0]","action_history":"[1,0,1,0,1,0,1,0,0,1]","mutagen_history":"[1,0,1,0,1,0,1,0,0,1]","location_rts":"[1264,1002,1112,953,723,906,892,987,832,958]","trial_type":"fractal-mutation","trial_index":64,"time_elapsed":1032800,"internal_node_id":"0.0-5.0-10.0"},{"group":"hexagon_bi","fractal_assignment":["../images/ylw_slt.png","../images/pnk_blu.png","../images/org_blu.png","../images/cyn_red.png","../images/blu_wht.png","../images/gry_blk.png"],"mutagen_generator_assignment":[0,1],"goal":1,"start":0,"action_noise":0.15,"location_history":"[0,5,0,5,4,5,4,3,2,1]","action_history":"[0,1,0,1,1,1,0,1,1]","mutagen_history":"[0,1,0,1,1,1,0,1,1]","location_rts":"[1011,1871,1123,754,1675,351,963,1164,1144]","trial_type":"fractal-mutation","trial_index":65,"time_elapsed":1058056,"internal_node_id":"0.0-5.0-11.0"},{"group":"hexagon_bi","fractal_assignment":["../images/ylw_slt.png","../images/pnk_blu.png","../images/org_blu.png","../images/cyn_red.png","../images/blu_wht.png","../images/gry_blk.png"],"mutagen_generator_assignment":[0,1],"goal":3,"start":1,"action_noise":0.15,"location_history":"[1,0,5,4,5,0,1,0,1,0,5,0,1,2,3]","action_history":"[1,0,1,0,0,1,0,1,1,0,0,0,1,1]","mutagen_history":"[1,0,1,0,0,1,0,1,1,0,0,0,1,1]","location_rts":"[1887,1141,944,926,1240,505,884,289,1049,701,665,675,866,1530]","trial_type":"fractal-mutation","trial_index":66,"time_elapsed":1092062,"internal_node_id":"0.0-5.0-12.0"},{"group":"hexagon_bi","fractal_assignment":["../images/ylw_slt.png","../images/pnk_blu.png","../images/org_blu.png","../images/cyn_red.png","../images/blu_wht.png","../images/gry_blk.png"],"mutagen_generator_assignment":[0,1],"goal":5,"start":3,"action_noise":0.15,"location_history":"[3,4,3,2,3,4,5]","action_history":"[1,0,1,1,0,1]","mutagen_history":"[1,0,1,1,0,1]","location_rts":"[1475,1010,1215,990,985,836]","trial_type":"fractal-mutation","trial_index":67,"time_elapsed":1109978,"internal_node_id":"0.0-5.0-13.0"},{"group":"hexagon_bi","fractal_assignment":["../images/ylw_slt.png","../images/pnk_blu.png","../images/org_blu.png","../images/cyn_red.png","../images/blu_wht.png","../images/gry_blk.png"],"mutagen_generator_assignment":[0,1],"goal":4,"start":5,"action_noise":0.15,"location_history":"[5,0,1,2,1,2,3,2,3,4]","action_history":"[0,1,0,1,0,1,1,1,0]","mutagen_history":"[0,1,0,1,0,1,1,1,0]","location_rts":"[1704,996,931,406,1565,540,1184,709,337]","trial_type":"fractal-mutation","trial_index":68,"time_elapsed":1133179,"internal_node_id":"0.0-5.0-14.0"},{"group":"hexagon_bi","fractal_assignment":["../images/ylw_slt.png","../images/pnk_blu.png","../images/org_blu.png","../images/cyn_red.png","../images/blu_wht.png","../images/gry_blk.png"],"mutagen_generator_assignment":[0,1],"goal":0,"start":4,"action_noise":0.15,"location_history":"[4,3,4,5,0]","action_history":"[0,0,1,0]","mutagen_history":"[0,0,1,0]","location_rts":"[1775,1120,717,1285]","trial_type":"fractal-mutation","trial_index":69,"time_elapsed":1146534,"internal_node_id":"0.0-5.0-15.0"},{"group":"hexagon_bi","fractal_assignment":["../images/ylw_slt.png","../images/pnk_blu.png","../images/org_blu.png","../images/cyn_red.png","../images/blu_wht.png","../images/gry_blk.png"],"mutagen_generator_assignment":[0,1],"goal":3,"start":0,"action_noise":0.15,"location_history":"[0,1,2,3]","action_history":"[1,0,1]","mutagen_history":"[1,0,1]","location_rts":"[1314,983,374]","trial_type":"fractal-mutation","trial_index":70,"time_elapsed":1156419,"internal_node_id":"0.0-5.0-16.0"},{"group":"hexagon_bi","fractal_assignment":["../images/ylw_slt.png","../images/pnk_blu.png","../images/org_blu.png","../images/cyn_red.png","../images/blu_wht.png","../images/gry_blk.png"],"mutagen_generator_assignment":[0,1],"goal":1,"start":3,"action_noise":0.15,"location_history":"[3,4,5,4,3,2,1]","action_history":"[1,0,1,0,1,0]","mutagen_history":"[1,0,1,0,1,0]","location_rts":"[1561,725,654,1171,1261,1085]","trial_type":"fractal-mutation","trial_index":71,"time_elapsed":1176501,"internal_node_id":"0.0-5.0-17.0"},{"group":"hexagon_bi","fractal_assignment":["../images/ylw_slt.png","../images/pnk_blu.png","../images/org_blu.png","../images/cyn_red.png","../images/blu_wht.png","../images/gry_blk.png"],"mutagen_generator_assignment":[0,1],"goal":5,"start":1,"action_noise":0.15,"location_history":"[1,0,5]","action_history":"[1,0]","mutagen_history":"[1,0]","location_rts":"[1492,1010]","trial_type":"fractal-mutation","trial_index":72,"time_elapsed":1186690,"internal_node_id":"0.0-5.0-18.0"},{"group":"hexagon_bi","fractal_assignment":["../images/ylw_slt.png","../images/pnk_blu.png","../images/org_blu.png","../images/cyn_red.png","../images/blu_wht.png","../images/gry_blk.png"],"mutagen_generator_assignment":[0,1],"goal":2,"start":5,"action_noise":0.15,"location_history":"[5,4,3,2]","action_history":"[1,0,1]","mutagen_history":"[1,0,1]","location_rts":"[1252,1039,1467]","trial_type":"fractal-mutation","trial_index":73,"time_elapsed":1198427,"internal_node_id":"0.0-5.0-19.0"},{"group":"hexagon_bi","fractal_assignment":["../images/ylw_slt.png","../images/pnk_blu.png","../images/org_blu.png","../images/cyn_red.png","../images/blu_wht.png","../images/gry_blk.png"],"mutagen_generator_assignment":[0,1],"goal":4,"start":2,"action_noise":0.15,"location_history":"[2,3,4]","action_history":"[1,0]","mutagen_history":"[1,0]","location_rts":"[1294,1011]","trial_type":"fractal-mutation","trial_index":74,"time_elapsed":1207134,"internal_node_id":"0.0-5.0-20.0"},{"group":"hexagon_bi","fractal_assignment":["../images/ylw_slt.png","../images/pnk_blu.png","../images/org_blu.png","../images/cyn_red.png","../images/blu_wht.png","../images/gry_blk.png"],"mutagen_generator_assignment":[0,1],"goal":1,"start":4,"action_noise":0.15,"location_history":"[4,5,4,5,0,5,4,5,4,5,4,3,2,1]","action_history":"[1,0,1,0,1,1,0,1,1,1,0,1,0]","mutagen_history":"[1,0,1,0,1,1,0,1,1,1,0,1,0]","location_rts":"[1702,1146,954,1267,1035,1490,1238,691,800,532,317,2602,634]","trial_type":"fractal-mutation","trial_index":75,"time_elapsed":1242296,"internal_node_id":"0.0-5.0-21.0"},{"group":"hexagon_bi","fractal_assignment":["../images/ylw_slt.png","../images/pnk_blu.png","../images/org_blu.png","../images/cyn_red.png","../images/blu_wht.png","../images/gry_blk.png"],"mutagen_generator_assignment":[0,1],"goal":3,"start":1,"action_noise":0.15,"location_history":"[1,2,1,0,1,0,5,4,3]","action_history":"[0,1,1,0,1,0,1,0]","mutagen_history":"[0,1,1,0,1,0,1,0]","location_rts":"[2237,426,1269,1157,2241,1047,860,1922]","trial_type":"fractal-mutation","trial_index":76,"time_elapsed":1267288,"internal_node_id":"0.0-5.0-22.0"},{"group":"hexagon_bi","fractal_assignment":["../images/ylw_slt.png","../images/pnk_blu.png","../images/org_blu.png","../images/cyn_red.png","../images/blu_wht.png","../images/gry_blk.png"],"mutagen_generator_assignment":[0,1],"goal":2,"start":3,"action_noise":0.15,"location_history":"[3,2]","action_history":"[1]","mutagen_history":"[1]","location_rts":"[2822]","trial_type":"fractal-mutation","trial_index":77,"time_elapsed":1275118,"internal_node_id":"0.0-5.0-23.0"},{"group":"hexagon_bi","fractal_assignment":["../images/ylw_slt.png","../images/pnk_blu.png","../images/org_blu.png","../images/cyn_red.png","../images/blu_wht.png","../images/gry_blk.png"],"mutagen_generator_assignment":[0,1],"goal":0,"start":2,"action_noise":0.15,"location_history":"[2,3,2,3,4,5,0]","action_history":"[1,0,1,0,1,0]","mutagen_history":"[1,0,1,0,1,0]","location_rts":"[1538,1123,921,1318,977,872]","trial_type":"fractal-mutation","trial_index":78,"time_elapsed":1292908,"internal_node_id":"0.0-5.0-24.0"},{"group":"hexagon_bi","fractal_assignment":["../images/ylw_slt.png","../images/pnk_blu.png","../images/org_blu.png","../images/cyn_red.png","../images/blu_wht.png","../images/gry_blk.png"],"mutagen_generator_assignment":[0,1],"goal":5,"start":0,"action_noise":0.15,"location_history":"[0,1,2,1,2,3,4,5]","action_history":"[1,0,1,0,1,0,1]","mutagen_history":"[1,0,1,0,1,0,1]","location_rts":"[1639,1154,381,722,915,907,1853]","trial_type":"fractal-mutation","trial_index":79,"time_elapsed":1313035,"internal_node_id":"0.0-5.0-25.0"},{"group":"hexagon_bi","fractal_assignment":["../images/ylw_slt.png","../images/pnk_blu.png","../images/org_blu.png","../images/cyn_red.png","../images/blu_wht.png","../images/gry_blk.png"],"mutagen_generator_assignment":[0,1],"goal":2,"start":5,"action_noise":0.15,"location_history":"[5,4,5,4,3,2]","action_history":"[1,1,1,0,1]","mutagen_history":"[1,1,1,0,1]","location_rts":"[17801,12153,2717,629,1958]","trial_type":"fractal-mutation","trial_index":80,"time_elapsed":1358505,"internal_node_id":"0.0-5.0-26.0"},{"group":"hexagon_bi","fractal_assignment":["../images/ylw_slt.png","../images/pnk_blu.png","../images/org_blu.png","../images/cyn_red.png","../images/blu_wht.png","../images/gry_blk.png"],"mutagen_generator_assignment":[0,1],"goal":3,"start":2,"action_noise":0.15,"location_history":"[2,3]","action_history":"[1]","mutagen_history":"[1]","location_rts":"[34143]","trial_type":"fractal-mutation","trial_index":81,"time_elapsed":1397579,"internal_node_id":"0.0-5.0-27.0"},{"group":"hexagon_bi","fractal_assignment":["../images/ylw_slt.png","../images/pnk_blu.png","../images/org_blu.png","../images/cyn_red.png","../images/blu_wht.png","../images/gry_blk.png"],"mutagen_generator_assignment":[0,1],"goal":0,"start":3,"action_noise":0.15,"location_history":"[3,2,1,0]","action_history":"[1,0,1]","mutagen_history":"[1,0,1]","location_rts":"[1770,1619,453]","trial_type":"fractal-mutation","trial_index":82,"time_elapsed":1408666,"internal_node_id":"0.0-5.0-28.0"},{"group":"hexagon_bi","fractal_assignment":["../images/ylw_slt.png","../images/pnk_blu.png","../images/org_blu.png","../images/cyn_red.png","../images/blu_wht.png","../images/gry_blk.png"],"mutagen_generator_assignment":[0,1],"goal":1,"start":0,"action_noise":0.15,"location_history":"[0,5,0,1]","action_history":"[1,0,1]","mutagen_history":"[1,0,1]","location_rts":"[1617,1137,773]","trial_type":"fractal-mutation","trial_index":83,"time_elapsed":1419237,"internal_node_id":"0.0-5.0-29.0"},{"group":"hexagon_bi","fractal_assignment":["../images/ylw_slt.png","../images/pnk_blu.png","../images/org_blu.png","../images/cyn_red.png","../images/blu_wht.png","../images/gry_blk.png"],"mutagen_generator_assignment":[0,1],"goal":4,"start":1,"action_noise":0.15,"location_history":"[1,2,3,4]","action_history":"[0,1,0]","mutagen_history":"[0,1,0]","location_rts":"[1482,565,528]","trial_type":"fractal-mutation","trial_index":84,"time_elapsed":1429050,"internal_node_id":"0.0-5.0-30.0"},{"group":"hexagon_bi","fractal_assignment":["../images/ylw_slt.png","../images/pnk_blu.png","../images/org_blu.png","../images/cyn_red.png","../images/blu_wht.png","../images/gry_blk.png"],"mutagen_generator_assignment":[0,1],"goal":5,"start":4,"action_noise":0.15,"location_history":"[4,3,4,3,4,3,4,3,2,3,2,1,0,5]","action_history":"[1,0,1,0,1,0,0,1,1,1,0,1,0]","mutagen_history":"[1,0,1,0,1,0,0,1,1,1,0,1,0]","location_rts":"[1559,1459,1009,1115,333,818,1012,1282,1652,779,318,732,946]","trial_type":"fractal-mutation","trial_index":85,"time_elapsed":1461498,"internal_node_id":"0.0-5.0-31.0"},{"group":"hexagon_bi","fractal_assignment":["../images/ylw_slt.png","../images/pnk_blu.png","../images/org_blu.png","../images/cyn_red.png","../images/blu_wht.png","../images/gry_blk.png"],"mutagen_generator_assignment":[0,1],"goal":0,"start":5,"action_noise":0.15,"location_history":"[5,0]","action_history":"[0]","mutagen_history":"[0]","location_rts":"[1251]","trial_type":"fractal-mutation","trial_index":86,"time_elapsed":1467455,"internal_node_id":"0.0-5.0-32.0"},{"group":"hexagon_bi","fractal_assignment":["../images/ylw_slt.png","../images/pnk_blu.png","../images/org_blu.png","../images/cyn_red.png","../images/blu_wht.png","../images/gry_blk.png"],"mutagen_generator_assignment":[0,1],"goal":3,"start":0,"action_noise":0.15,"location_history":"[0,1,2,3]","action_history":"[1,0,1]","mutagen_history":"[1,0,1]","location_rts":"[1600,1135,1112]","trial_type":"fractal-mutation","trial_index":87,"time_elapsed":1478379,"internal_node_id":"0.0-5.0-33.0"},{"group":"hexagon_bi","fractal_assignment":["../images/ylw_slt.png","../images/pnk_blu.png","../images/org_blu.png","../images/cyn_red.png","../images/blu_wht.png","../images/gry_blk.png"],"mutagen_generator_assignment":[0,1],"goal":1,"start":3,"action_noise":0.15,"location_history":"[3,2,1]","action_history":"[1,0]","mutagen_history":"[1,0]","location_rts":"[3051,444]","trial_type":"fractal-mutation","trial_index":88,"time_elapsed":1487881,"internal_node_id":"0.0-5.0-34.0"},{"group":"hexagon_bi","fractal_assignment":["../images/ylw_slt.png","../images/pnk_blu.png","../images/org_blu.png","../images/cyn_red.png","../images/blu_wht.png","../images/gry_blk.png"],"mutagen_generator_assignment":[0,1],"goal":2,"start":1,"action_noise":0.15,"location_history":"[1,2]","action_history":"[0]","mutagen_history":"[0]","location_rts":"[1275]","trial_type":"fractal-mutation","trial_index":89,"time_elapsed":1493771,"internal_node_id":"0.0-5.0-35.0"},{"group":"hexagon_bi","fractal_assignment":["../images/ylw_slt.png","../images/pnk_blu.png","../images/org_blu.png","../images/cyn_red.png","../images/blu_wht.png","../images/gry_blk.png"],"mutagen_generator_assignment":[0,1],"goal":4,"start":2,"action_noise":0.15,"location_history":"[2,3,4]","action_history":"[1,0]","mutagen_history":"[1,0]","location_rts":"[1389,755]","trial_type":"fractal-mutation","trial_index":90,"time_elapsed":1501932,"internal_node_id":"0.0-5.0-36.0"},{"group":"hexagon_bi","fractal_assignment":["../images/ylw_slt.png","../images/pnk_blu.png","../images/org_blu.png","../images/cyn_red.png","../images/blu_wht.png","../images/gry_blk.png"],"mutagen_generator_assignment":[0,1],"goal":5,"start":4,"action_noise":0.15,"location_history":"[4,3,2,1,0,5]","action_history":"[0,1,0,1,0]","mutagen_history":"[0,1,0,1,0]","location_rts":"[1983,871,3199,469,1045]","trial_type":"fractal-mutation","trial_index":91,"time_elapsed":1519643,"internal_node_id":"0.0-5.0-37.0"},{"group":"hexagon_bi","fractal_assignment":["../images/ylw_slt.png","../images/pnk_blu.png","../images/org_blu.png","../images/cyn_red.png","../images/blu_wht.png","../images/gry_blk.png"],"mutagen_generator_assignment":[0,1],"goal":1,"start":5,"action_noise":0.15,"location_history":"[5,0,5,4,3,2,1]","action_history":"[1,0,1,0,1,0]","mutagen_history":"[1,0,1,0,1,0]","location_rts":"[1810,1216,733,1211,1500,233]","trial_type":"fractal-mutation","trial_index":92,"time_elapsed":1537354,"internal_node_id":"0.0-5.0-38.0"},{"group":"hexagon_bi","fractal_assignment":["../images/ylw_slt.png","../images/pnk_blu.png","../images/org_blu.png","../images/cyn_red.png","../images/blu_wht.png","../images/gry_blk.png"],"mutagen_generator_assignment":[0,1],"goal":4,"start":1,"action_noise":0.15,"location_history":"[1,2,3,4]","action_history":"[0,1,0]","mutagen_history":"[0,1,0]","location_rts":"[3049,397,1075]","trial_type":"fractal-mutation","trial_index":93,"time_elapsed":1548983,"internal_node_id":"0.0-5.0-39.0"},{"group":"hexagon_bi","fractal_assignment":["../images/ylw_slt.png","../images/pnk_blu.png","../images/org_blu.png","../images/cyn_red.png","../images/blu_wht.png","../images/gry_blk.png"],"mutagen_generator_assignment":[0,1],"goal":3,"start":4,"action_noise":0.15,"location_history":"[4,3]","action_history":"[0]","mutagen_history":"[0]","location_rts":"[3986]","trial_type":"fractal-mutation","trial_index":94,"time_elapsed":1558128,"internal_node_id":"0.0-5.0-40.0"},{"group":"hexagon_bi","fractal_assignment":["../images/ylw_slt.png","../images/pnk_blu.png","../images/org_blu.png","../images/cyn_red.png","../images/blu_wht.png","../images/gry_blk.png"],"mutagen_generator_assignment":[0,1],"goal":2,"start":3,"action_noise":0.15,"location_history":"[3,2]","action_history":"[1]","mutagen_history":"[1]","location_rts":"[2094]","trial_type":"fractal-mutation","trial_index":95,"time_elapsed":1564952,"internal_node_id":"0.0-5.0-41.0"},{"group":"hexagon_bi","fractal_assignment":["../images/ylw_slt.png","../images/pnk_blu.png","../images/org_blu.png","../images/cyn_red.png","../images/blu_wht.png","../images/gry_blk.png"],"mutagen_generator_assignment":[0,1],"goal":0,"start":2,"action_noise":0.15,"location_history":"[2,1,0]","action_history":"[0,1]","mutagen_history":"[0,1]","location_rts":"[3254,358]","trial_type":"fractal-mutation","trial_index":96,"time_elapsed":1574564,"internal_node_id":"0.0-5.0-42.0"},{"group":"hexagon_bi","fractal_assignment":["../images/ylw_slt.png","../images/pnk_blu.png","../images/org_blu.png","../images/cyn_red.png","../images/blu_wht.png","../images/gry_blk.png"],"mutagen_generator_assignment":[0,1],"goal":5,"start":0,"action_noise":0.15,"location_history":"[0,5]","action_history":"[0]","mutagen_history":"[0]","location_rts":"[1549]","trial_type":"fractal-mutation","trial_index":97,"time_elapsed":1580993,"internal_node_id":"0.0-5.0-43.0"},{"group":"hexagon_bi","fractal_assignment":["../images/ylw_slt.png","../images/pnk_blu.png","../images/org_blu.png","../images/cyn_red.png","../images/blu_wht.png","../images/gry_blk.png"],"mutagen_generator_assignment":[0,1],"goal":0,"start":5,"action_noise":0.15,"location_history":"[5,0]","action_history":"[0]","mutagen_history":"[0]","location_rts":"[936]","trial_type":"fractal-mutation","trial_index":98,"time_elapsed":1586621,"internal_node_id":"0.0-5.0-44.0"},{"group":"hexagon_bi","fractal_assignment":["../images/ylw_slt.png","../images/pnk_blu.png","../images/org_blu.png","../images/cyn_red.png","../images/blu_wht.png","../images/gry_blk.png"],"mutagen_generator_assignment":[0,1],"goal":2,"start":0,"action_noise":0.15,"location_history":"[0,1,2]","action_history":"[1,0]","mutagen_history":"[1,0]","location_rts":"[1262,1256]","trial_type":"fractal-mutation","trial_index":99,"time_elapsed":1595179,"internal_node_id":"0.0-5.0-45.0"},{"group":"hexagon_bi","fractal_assignment":["../images/ylw_slt.png","../images/pnk_blu.png","../images/org_blu.png","../images/cyn_red.png","../images/blu_wht.png","../images/gry_blk.png"],"mutagen_generator_assignment":[0,1],"goal":4,"start":2,"action_noise":0.15,"location_history":"[2,3,4]","action_history":"[1,0]","mutagen_history":"[1,0]","location_rts":"[11305,590]","trial_type":"fractal-mutation","trial_index":100,"time_elapsed":1613064,"internal_node_id":"0.0-5.0-46.0"},{"group":"hexagon_bi","fractal_assignment":["../images/ylw_slt.png","../images/pnk_blu.png","../images/org_blu.png","../images/cyn_red.png","../images/blu_wht.png","../images/gry_blk.png"],"mutagen_generator_assignment":[0,1],"goal":1,"start":4,"action_noise":0.15,"location_history":"[4,3,2,1]","action_history":"[0,1,0]","mutagen_history":"[0,1,0]","location_rts":"[2652,1112,263]","trial_type":"fractal-mutation","trial_index":101,"time_elapsed":1624304,"internal_node_id":"0.0-5.0-47.0"},{"group":"hexagon_bi","fractal_assignment":["../images/ylw_slt.png","../images/pnk_blu.png","../images/org_blu.png","../images/cyn_red.png","../images/blu_wht.png","../images/gry_blk.png"],"mutagen_generator_assignment":[0,1],"goal":5,"start":1,"action_noise":0.15,"location_history":"[1,0,5]","action_history":"[1,0]","mutagen_history":"[1,0]","location_rts":"[3903,985]","trial_type":"fractal-mutation","trial_index":102,"time_elapsed":1635037,"internal_node_id":"0.0-5.0-48.0"},{"group":"hexagon_bi","fractal_assignment":["../images/ylw_slt.png","../images/pnk_blu.png","../images/org_blu.png","../images/cyn_red.png","../images/blu_wht.png","../images/gry_blk.png"],"mutagen_generator_assignment":[0,1],"goal":3,"start":5,"action_noise":0.15,"location_history":"[5,4,3]","action_history":"[1,0]","mutagen_history":"[1,0]","location_rts":"[3160,608]","trial_type":"fractal-mutation","trial_index":103,"time_elapsed":1644725,"internal_node_id":"0.0-5.0-49.0"},{"view_history":"[{\"page_index\":0,\"viewing_time\":5162}]","rt":5163,"trial_type":"instructions","trial_index":104,"time_elapsed":1650889,"internal_node_id":"0.0-6.0"},{"rt":1673,"responses":"{\"Q0\":\"\"}","trial_type":"survey-text","trial_index":105,"time_elapsed":1653623,"internal_node_id":"0.0-7.0"}]