[{"view_history":"[{\"page_index\":0,\"viewing_time\":21886},{\"page_index\":1,\"viewing_time\":14663}]","rt":36550,"trial_type":"instructions","trial_index":0,"time_elapsed":36550,"internal_node_id":"0.0-0.0"},{"view_history":"[{\"page_index\":0,\"viewing_time\":2343},{\"page_index\":1,\"viewing_time\":13183}]","rt":15527,"trial_type":"instructions","trial_index":1,"time_elapsed":53077,"internal_node_id":"0.0-1.0"},{"group":"hexagon_bi","room_assignment":["red","purple","blue","green","yellow","grey"],"door_color_assignment":["black","white"],"door_generator_assignment":[1,0],"goal":3,"start":5,"action_noise":0.15,"location_history":"[5,4,5,4,3]","action_history":"[1,1,1,0]","door_history":"[0,0,0,1]","location_rts":"[2022,1501,939,385]","trial_type":"two-door-navigation","trial_index":2,"time_elapsed":65462,"internal_node_id":"0.0-2.0-0.0"},{"group":"hexagon_bi","room_assignment":["red","purple","blue","green","yellow","grey"],"door_color_assignment":["black","white"],"door_generator_assignment":[1,0],"goal":1,"start":3,"action_noise":0.15,"location_history":"[3,4,3,2,1]","action_history":"[0,0,1,1]","door_history":"[1,1,0,0]","location_rts":"[4623,895,655,181]","trial_type":"two-door-navigation","trial_index":3,"time_elapsed":79337,"internal_node_id":"0.0-2.0-1.0"},{"group":"hexagon_bi","room_assignment":["red","purple","blue","green","yellow","grey"],"door_color_assignment":["black","white"],"door_generator_assignment":[1,0],"goal":0,"start":1,"action_noise":0.15,"location_history":"[1,2,1,2,3,2,1,2,1,2,1,0]","action_history":"[0,0,1,1,1,0,1,0,0,0,1]","door_history":"[1,1,0,0,0,1,0,1,1,1,0]","location_rts":"[13915,668,732,589,1027,700,597,566,843,725,682]","trial_type":"two-door-navigation","trial_index":4,"time_elapsed":114928,"internal_node_id":"0.0-2.0-2.0"},{"group":"hexagon_bi","room_assignment":["red","purple","blue","green","yellow","grey"],"door_color_assignment":["black","white"],"door_generator_assignment":[1,0],"goal":3,"start":0,"action_noise":0.15,"location_history":"[0,1,2,3]","action_history":"[1,0,1]","door_history":"[0,1,0]","location_rts":"[1598,971,931]","trial_type":"two-door-navigation","trial_index":5,"time_elapsed":124942,"internal_node_id":"0.0-2.0-3.0"},{"group":"hexagon_bi","room_assignment":["red","purple","blue","green","yellow","grey"],"door_color_assignment":["black","white"],"door_generator_assignment":[1,0],"goal":4,"start":3,"action_noise":0.15,"location_history":"[3,2,3,4]","action_history":"[0,1,0]","door_history":"[1,0,1]","location_rts":"[2261,636,549]","trial_type":"two-door-navigation","trial_index":6,"time_elapsed":134901,"internal_node_id":"0.0-2.0-4.0"},{"group":"hexagon_bi","room_assignment":["red","purple","blue","green","yellow","grey"],"door_color_assignment":["black","white"],"door_generator_assignment":[1,0],"goal":2,"start":4,"action_noise":0.15,"location_history":"[4,3,2]","action_history":"[0,1]","door_history":"[1,0]","location_rts":"[2808,1843]","trial_type":"two-door-navigation","trial_index":7,"time_elapsed":145060,"internal_node_id":"0.0-2.0-5.0"},{"group":"hexagon_bi","room_assignment":["red","purple","blue","green","yellow","grey"],"door_color_assignment":["black","white"],"door_generator_assignment":[1,0],"goal":1,"start":2,"action_noise":0.15,"location_history":"[2,3,2,1]","action_history":"[1,1,0]","door_history":"[0,0,1]","location_rts":"[2265,1242,262]","trial_type":"two-door-navigation","trial_index":8,"time_elapsed":155341,"internal_node_id":"0.0-2.0-6.0"},{"group":"hexagon_bi","room_assignment":["red","purple","blue","green","yellow","grey"],"door_color_assignment":["black","white"],"door_generator_assignment":[1,0],"goal":5,"start":1,"action_noise":0.15,"location_history":"[1,2,3,4,3,4,5]","action_history":"[0,0,0,0,0,1]","door_history":"[1,1,1,1,1,0]","location_rts":"[2343,1095,1959,1813,554,339]","trial_type":"two-door-navigation","trial_index":9,"time_elapsed":172964,"internal_node_id":"0.0-2.0-7.0"},{"group":"hexagon_bi","room_assignment":["red","purple","blue","green","yellow","grey"],"door_color_assignment":["black","white"],"door_generator_assignment":[1,0],"goal":4,"start":5,"action_noise":0.15,"location_history":"[5,4]","action_history":"[1]","door_history":"[0]","location_rts":"[3776]","trial_type":"two-door-navigation","trial_index":10,"time_elapsed":181247,"internal_node_id":"0.0-2.0-8.0"},{"group":"hexagon_bi","room_assignment":["red","purple","blue","green","yellow","grey"],"door_color_assignment":["black","white"],"door_generator_assignment":[1,0],"goal":2,"start":4,"action_noise":0.15,"location_history":"[4,3,2]","action_history":"[0,1]","door_history":"[1,0]","location_rts":"[1470,2378]","trial_type":"two-door-navigation","trial_index":11,"time_elapsed":190606,"internal_node_id":"0.0-2.0-9.0"},{"group":"hexagon_bi","room_assignment":["red","purple","blue","green","yellow","grey"],"door_color_assignment":["black","white"],"door_generator_assignment":[1,0],"goal":0,"start":2,"action_noise":0.15,"location_history":"[2,1,2,1,2,3,2,1,0]","action_history":"[0,0,0,1,1,1,0,1]","door_history":"[1,1,1,0,0,0,1,0]","location_rts":"[3022,2683,696,509,1012,686,726,847]","trial_type":"two-door-navigation","trial_index":12,"time_elapsed":212318,"internal_node_id":"0.0-2.0-10.0"},{"group":"hexagon_bi","room_assignment":["red","purple","blue","green","yellow","grey"],"door_color_assignment":["black","white"],"door_generator_assignment":[1,0],"goal":1,"start":0,"action_noise":0.15,"location_history":"[0,5,4,3,2,1]","action_history":"[0,1,0,1,0]","door_history":"[1,0,1,0,1]","location_rts":"[3399,765,988,1107,1146]","trial_type":"two-door-navigation","trial_index":13,"time_elapsed":228243,"internal_node_id":"0.0-2.0-11.0"},{"group":"hexagon_bi","room_assignment":["red","purple","blue","green","yellow","grey"],"door_color_assignment":["black","white"],"door_generator_assignment":[1,0],"goal":3,"start":1,"action_noise":0.15,"location_history":"[1,2,3]","action_history":"[1,1]","door_history":"[0,0]","location_rts":"[2658,7561]","trial_type":"two-door-navigation","trial_index":14,"time_elapsed":244053,"internal_node_id":"0.0-2.0-12.0"},{"group":"hexagon_bi","room_assignment":["red","purple","blue","green","yellow","grey"],"door_color_assignment":["black","white"],"door_generator_assignment":[1,0],"goal":5,"start":3,"action_noise":0.15,"location_history":"[3,4,3,4,5]","action_history":"[0,0,0,1]","door_history":"[1,1,1,0]","location_rts":"[2752,1675,277,259]","trial_type":"two-door-navigation","trial_index":15,"time_elapsed":256535,"internal_node_id":"0.0-2.0-13.0"},{"group":"hexagon_bi","room_assignment":["red","purple","blue","green","yellow","grey"],"door_color_assignment":["black","white"],"door_generator_assignment":[1,0],"goal":4,"start":5,"action_noise":0.15,"location_history":"[5,4]","action_history":"[1]","door_history":"[0]","location_rts":"[9351]","trial_type":"two-door-navigation","trial_index":16,"time_elapsed":270390,"internal_node_id":"0.0-2.0-14.0"},{"group":"hexagon_bi","room_assignment":["red","purple","blue","green","yellow","grey"],"door_color_assignment":["black","white"],"door_generator_assignment":[1,0],"goal":0,"start":4,"action_noise":0.15,"location_history":"[4,3,2,1,0]","action_history":"[0,1,0,0]","door_history":"[1,0,1,1]","location_rts":"[6144,1051,1101,483]","trial_type":"two-door-navigation","trial_index":17,"time_elapsed":286686,"internal_node_id":"0.0-2.0-15.0"},{"group":"hexagon_bi","room_assignment":["red","purple","blue","green","yellow","grey"],"door_color_assignment":["black","white"],"door_generator_assignment":[1,0],"goal":3,"start":0,"action_noise":0.15,"location_history":"[0,5,0,1,2,3]","action_history":"[0,0,1,0,1]","door_history":"[1,1,0,1,0]","location_rts":"[2503,13487,1517,48892,2021]","trial_type":"two-door-navigation","trial_index":18,"time_elapsed":363622,"internal_node_id":"0.0-2.0-16.0"},{"group":"hexagon_bi","room_assignment":["red","purple","blue","green","yellow","grey"],"door_color_assignment":["black","white"],"door_generator_assignment":[1,0],"goal":1,"start":3,"action_noise":0.15,"location_history":"[3,2,1]","action_history":"[1,0]","door_history":"[0,1]","location_rts":"[2261,826]","trial_type":"two-door-navigation","trial_index":19,"time_elapsed":372221,"internal_node_id":"0.0-2.0-17.0"},{"group":"hexagon_bi","room_assignment":["red","purple","blue","green","yellow","grey"],"door_color_assignment":["black","white"],"door_generator_assignment":[1,0],"goal":5,"start":1,"action_noise":0.15,"location_history":"[1,2,1,0,5]","action_history":"[0,0,1,0]","door_history":"[1,1,0,1]","location_rts":"[2472,1156,772,2708]","trial_type":"two-door-navigation","trial_index":20,"time_elapsed":386844,"internal_node_id":"0.0-2.0-18.0"},{"group":"hexagon_bi","room_assignment":["red","purple","blue","green","yellow","grey"],"door_color_assignment":["black","white"],"door_generator_assignment":[1,0],"goal":2,"start":5,"action_noise":0.15,"location_history":"[5,0,1,2]","action_history":"[0,1,0]","door_history":"[1,0,1]","location_rts":"[6415,2133,1707]","trial_type":"two-door-navigation","trial_index":21,"time_elapsed":403615,"internal_node_id":"0.0-2.0-19.0"},{"group":"hexagon_bi","room_assignment":["red","purple","blue","green","yellow","grey"],"door_color_assignment":["black","white"],"door_generator_assignment":[1,0],"goal":4,"start":2,"action_noise":0.15,"location_history":"[2,1,2,3,4]","action_history":"[1,0,0,0]","door_history":"[0,1,1,1]","location_rts":"[5621,1198,4193,1034]","trial_type":"two-door-navigation","trial_index":22,"time_elapsed":423726,"internal_node_id":"0.0-2.0-20.0"},{"group":"hexagon_bi","room_assignment":["red","purple","blue","green","yellow","grey"],"door_color_assignment":["black","white"],"door_generator_assignment":[1,0],"goal":1,"start":4,"action_noise":0.15,"location_history":"[4,3,2,1]","action_history":"[0,1,0]","door_history":"[1,0,1]","location_rts":"[2488,1235,586]","trial_type":"two-door-navigation","trial_index":23,"time_elapsed":434549,"internal_node_id":"0.0-2.0-21.0"},{"group":"hexagon_bi","room_assignment":["red","purple","blue","green","yellow","grey"],"door_color_assignment":["black","white"],"door_generator_assignment":[1,0],"goal":3,"start":1,"action_noise":0.15,"location_history":"[1,2,3]","action_history":"[0,1]","door_history":"[1,0]","location_rts":"[1943,1798]","trial_type":"two-door-navigation","trial_index":24,"time_elapsed":443798,"internal_node_id":"0.0-2.0-22.0"},{"group":"hexagon_bi","room_assignment":["red","purple","blue","green","yellow","grey"],"door_color_assignment":["black","white"],"door_generator_assignment":[1,0],"goal":2,"start":3,"action_noise":0.15,"location_history":"[3,4,3,4,5,4,3,4,3,2]","action_history":"[1,0,0,1,1,0,0,0,1]","door_history":"[0,1,1,0,0,1,1,1,0]","location_rts":"[3113,1676,991,923,1381,942,854,1412,292]","trial_type":"two-door-navigation","trial_index":25,"time_elapsed":467989,"internal_node_id":"0.0-2.0-23.0"},{"group":"hexagon_bi","room_assignment":["red","purple","blue","green","yellow","grey"],"door_color_assignment":["black","white"],"door_generator_assignment":[1,0],"goal":0,"start":2,"action_noise":0.15,"location_history":"[2,1,2,1,0]","action_history":"[0,0,0,1]","door_history":"[1,1,1,0]","location_rts":"[26841,3309,709,461]","trial_type":"two-door-navigation","trial_index":26,"time_elapsed":507989,"internal_node_id":"0.0-2.0-24.0"},{"group":"hexagon_bi","room_assignment":["red","purple","blue","green","yellow","grey"],"door_color_assignment":["black","white"],"door_generator_assignment":[1,0],"goal":5,"start":0,"action_noise":0.15,"location_history":"[0,5]","action_history":"[0]","door_history":"[1]","location_rts":"[6025]","trial_type":"two-door-navigation","trial_index":27,"time_elapsed":518516,"internal_node_id":"0.0-2.0-25.0"},{"group":"hexagon_bi","room_assignment":["red","purple","blue","green","yellow","grey"],"door_color_assignment":["black","white"],"door_generator_assignment":[1,0],"goal":2,"start":5,"action_noise":0.15,"location_history":"[5,4,3,4,5,4,5,4,3,2]","action_history":"[1,1,0,1,1,1,1,0,1]","door_history":"[0,0,1,0,0,0,0,1,0]","location_rts":"[2176,3114,1455,3318,365,531,388,309,282]","trial_type":"two-door-navigation","trial_index":28,"time_elapsed":542988,"internal_node_id":"0.0-2.0-26.0"},{"group":"hexagon_bi","room_assignment":["red","purple","blue","green","yellow","grey"],"door_color_assignment":["black","white"],"door_generator_assignment":[1,0],"goal":3,"start":2,"action_noise":0.15,"location_history":"[2,3]","action_history":"[1]","door_history":"[0]","location_rts":"[2345]","trial_type":"two-door-navigation","trial_index":29,"time_elapsed":549837,"internal_node_id":"0.0-2.0-27.0"},{"group":"hexagon_bi","room_assignment":["red","purple","blue","green","yellow","grey"],"door_color_assignment":["black","white"],"door_generator_assignment":[1,0],"goal":0,"start":3,"action_noise":0.15,"location_history":"[3,4,3,4,5,0]","action_history":"[0,0,0,1,0]","door_history":"[1,1,1,0,1]","location_rts":"[1824,1301,8277,725,1251]","trial_type":"two-door-navigation","trial_index":30,"time_elapsed":571990,"internal_node_id":"0.0-2.0-28.0"},{"group":"hexagon_bi","room_assignment":["red","purple","blue","green","yellow","grey"],"door_color_assignment":["black","white"],"door_generator_assignment":[1,0],"goal":1,"start":0,"action_noise":0.15,"location_history":"[0,5,0,1]","action_history":"[0,0,1]","door_history":"[1,1,0]","location_rts":"[4150,1480,629]","trial_type":"two-door-navigation","trial_index":31,"time_elapsed":584755,"internal_node_id":"0.0-2.0-29.0"},{"group":"hexagon_bi","room_assignment":["red","purple","blue","green","yellow","grey"],"door_color_assignment":["black","white"],"door_generator_assignment":[1,0],"goal":4,"start":1,"action_noise":0.15,"location_history":"[1,0,5,0,1,0,1,0,5,4]","action_history":"[1,0,0,0,1,1,1,0,1]","door_history":"[0,1,1,1,0,0,0,1,0]","location_rts":"[1522,491,1174,532,302,613,549,503,246]","trial_type":"two-door-navigation","trial_index":32,"time_elapsed":603213,"internal_node_id":"0.0-2.0-30.0"},{"group":"hexagon_bi","room_assignment":["red","purple","blue","green","yellow","grey"],"door_color_assignment":["black","white"],"door_generator_assignment":[1,0],"goal":5,"start":4,"action_noise":0.15,"location_history":"[4,3,2,3,4,5]","action_history":"[0,0,1,0,1]","door_history":"[1,1,0,1,0]","location_rts":"[3743,1101,97,1179,1069]","trial_type":"two-door-navigation","trial_index":33,"time_elapsed":618923,"internal_node_id":"0.0-2.0-31.0"},{"group":"hexagon_bi","room_assignment":["red","purple","blue","green","yellow","grey"],"door_color_assignment":["black","white"],"door_generator_assignment":[1,0],"goal":0,"start":5,"action_noise":0.15,"location_history":"[5,0]","action_history":"[0]","door_history":"[1]","location_rts":"[1586]","trial_type":"two-door-navigation","trial_index":34,"time_elapsed":625013,"internal_node_id":"0.0-2.0-32.0"},{"group":"hexagon_bi","room_assignment":["red","purple","blue","green","yellow","grey"],"door_color_assignment":["black","white"],"door_generator_assignment":[1,0],"goal":3,"start":0,"action_noise":0.15,"location_history":"[0,1,2,3]","action_history":"[1,0,1]","door_history":"[0,1,0]","location_rts":"[2272,1253,1053]","trial_type":"two-door-navigation","trial_index":35,"time_elapsed":636102,"internal_node_id":"0.0-2.0-33.0"},{"group":"hexagon_bi","room_assignment":["red","purple","blue","green","yellow","grey"],"door_color_assignment":["black","white"],"door_generator_assignment":[1,0],"goal":1,"start":3,"action_noise":0.15,"location_history":"[3,4,3,2,1]","action_history":"[0,0,1,0]","door_history":"[1,1,0,1]","location_rts":"[1926,1080,552,717]","trial_type":"two-door-navigation","trial_index":36,"time_elapsed":647894,"internal_node_id":"0.0-2.0-34.0"},{"group":"hexagon_bi","room_assignment":["red","purple","blue","green","yellow","grey"],"door_color_assignment":["black","white"],"door_generator_assignment":[1,0],"goal":2,"start":1,"action_noise":0.15,"location_history":"[1,2]","action_history":"[0]","door_history":"[1]","location_rts":"[3838]","trial_type":"two-door-navigation","trial_index":37,"time_elapsed":656236,"internal_node_id":"0.0-2.0-35.0"},{"group":"hexagon_bi","room_assignment":["red","purple","blue","green","yellow","grey"],"door_color_assignment":["black","white"],"door_generator_assignment":[1,0],"goal":4,"start":2,"action_noise":0.15,"location_history":"[2,3,4]","action_history":"[1,1]","door_history":"[0,0]","location_rts":"[2065,1908]","trial_type":"two-door-navigation","trial_index":38,"time_elapsed":665717,"internal_node_id":"0.0-2.0-36.0"},{"group":"hexagon_bi","room_assignment":["red","purple","blue","green","yellow","grey"],"door_color_assignment":["black","white"],"door_generator_assignment":[1,0],"goal":5,"start":4,"action_noise":0.15,"location_history":"[4,5]","action_history":"[1]","door_history":"[0]","location_rts":"[769]","trial_type":"two-door-navigation","trial_index":39,"time_elapsed":670989,"internal_node_id":"0.0-2.0-37.0"},{"group":"hexagon_bi","room_assignment":["red","purple","blue","green","yellow","grey"],"door_color_assignment":["black","white"],"door_generator_assignment":[1,0],"goal":1,"start":5,"action_noise":0.15,"location_history":"[5,0,1]","action_history":"[0,1]","door_history":"[1,0]","location_rts":"[1735,514]","trial_type":"two-door-navigation","trial_index":40,"time_elapsed":678748,"internal_node_id":"0.0-2.0-38.0"},{"group":"hexagon_bi","room_assignment":["red","purple","blue","green","yellow","grey"],"door_color_assignment":["black","white"],"door_generator_assignment":[1,0],"goal":4,"start":1,"action_noise":0.15,"location_history":"[1,2,1,2,3,2,3,4]","action_history":"[0,1,0,0,1,1,0]","door_history":"[1,0,1,1,0,0,1]","location_rts":"[2186,1675,957,647,1238,1079,93]","trial_type":"two-door-navigation","trial_index":41,"time_elapsed":697141,"internal_node_id":"0.0-2.0-39.0"},{"group":"hexagon_bi","room_assignment":["red","purple","blue","green","yellow","grey"],"door_color_assignment":["black","white"],"door_generator_assignment":[1,0],"goal":3,"start":4,"action_noise":0.15,"location_history":"[4,3]","action_history":"[0]","door_history":"[1]","location_rts":"[2010]","trial_type":"two-door-navigation","trial_index":42,"time_elapsed":703654,"internal_node_id":"0.0-2.0-40.0"},{"group":"hexagon_bi","room_assignment":["red","purple","blue","green","yellow","grey"],"door_color_assignment":["black","white"],"door_generator_assignment":[1,0],"goal":2,"start":3,"action_noise":0.15,"location_history":"[3,4,5,0,1,0,5,0,1,2]","action_history":"[0,1,0,1,0,0,1,1,1]","door_history":"[1,0,1,0,1,1,0,0,0]","location_rts":"[3840,334,1825,946,2196,1359,595,421,837]","trial_type":"two-door-navigation","trial_index":43,"time_elapsed":728989,"internal_node_id":"0.0-2.0-41.0"},{"group":"hexagon_bi","room_assignment":["red","purple","blue","green","yellow","grey"],"door_color_assignment":["black","white"],"door_generator_assignment":[1,0],"goal":0,"start":2,"action_noise":0.15,"location_history":"[2,1,2,1,0]","action_history":"[0,0,0,1]","door_history":"[1,1,1,0]","location_rts":"[3167,1268,493,20]","trial_type":"two-door-navigation","trial_index":44,"time_elapsed":741455,"internal_node_id":"0.0-2.0-42.0"},{"group":"hexagon_bi","room_assignment":["red","purple","blue","green","yellow","grey"],"door_color_assignment":["black","white"],"door_generator_assignment":[1,0],"goal":5,"start":0,"action_noise":0.15,"location_history":"[0,5]","action_history":"[0]","door_history":"[1]","location_rts":"[1445]","trial_type":"two-door-navigation","trial_index":45,"time_elapsed":747403,"internal_node_id":"0.0-2.0-43.0"},{"group":"hexagon_bi","room_assignment":["red","purple","blue","green","yellow","grey"],"door_color_assignment":["black","white"],"door_generator_assignment":[1,0],"goal":0,"start":5,"action_noise":0.15,"location_history":"[5,4,3,4,5,0]","action_history":"[0,0,0,1,0]","door_history":"[1,1,1,0,1]","location_rts":"[1596,1394,573,917,775]","trial_type":"two-door-navigation","trial_index":46,"time_elapsed":761173,"internal_node_id":"0.0-2.0-44.0"},{"group":"hexagon_bi","room_assignment":["red","purple","blue","green","yellow","grey"],"door_color_assignment":["black","white"],"door_generator_assignment":[1,0],"goal":2,"start":0,"action_noise":0.15,"location_history":"[0,5,4,3,2]","action_history":"[1,1,0,1]","door_history":"[0,0,1,0]","location_rts":"[1160,2356,1371,1363]","trial_type":"two-door-navigation","trial_index":47,"time_elapsed":774944,"internal_node_id":"0.0-2.0-45.0"},{"group":"hexagon_bi","room_assignment":["red","purple","blue","green","yellow","grey"],"door_color_assignment":["black","white"],"door_generator_assignment":[1,0],"goal":4,"start":2,"action_noise":0.15,"location_history":"[2,3,4]","action_history":"[1,0]","door_history":"[0,1]","location_rts":"[1933,812]","trial_type":"two-door-navigation","trial_index":48,"time_elapsed":783199,"internal_node_id":"0.0-2.0-46.0"},{"group":"hexagon_bi","room_assignment":["red","purple","blue","green","yellow","grey"],"door_color_assignment":["black","white"],"door_generator_assignment":[1,0],"goal":1,"start":4,"action_noise":0.15,"location_history":"[4,3,2,3,2,1]","action_history":"[0,1,1,1,0]","door_history":"[1,0,0,0,1]","location_rts":"[3374,301,443,928,418]","trial_type":"two-door-navigation","trial_index":49,"time_elapsed":797189,"internal_node_id":"0.0-2.0-47.0"},{"group":"hexagon_bi","room_assignment":["red","purple","blue","green","yellow","grey"],"door_color_assignment":["black","white"],"door_generator_assignment":[1,0],"goal":5,"start":1,"action_noise":0.15,"location_history":"[1,2,1,0,5]","action_history":"[0,0,1,0]","door_history":"[1,1,0,1]","location_rts":"[3207,1702,2113,367]","trial_type":"two-door-navigation","trial_index":50,"time_elapsed":812972,"internal_node_id":"0.0-2.0-48.0"},{"group":"hexagon_bi","room_assignment":["red","purple","blue","green","yellow","grey"],"door_color_assignment":["black","white"],"door_generator_assignment":[1,0],"goal":3,"start":5,"action_noise":0.15,"location_history":"[5,4,3]","action_history":"[1,0]","door_history":"[0,1]","location_rts":"[1794,2647]","trial_type":"two-door-navigation","trial_index":51,"time_elapsed":822914,"internal_node_id":"0.0-2.0-49.0"},{"view_history":"[{\"page_index\":0,\"viewing_time\":2042}]","rt":2042,"trial_type":"instructions","trial_index":52,"time_elapsed":825957,"internal_node_id":"0.0-3.0"},{"view_history":"[{\"page_index\":0,\"viewing_time\":2017},{\"page_index\":1,\"viewing_time\":20391}]","rt":22408,"trial_type":"instructions","trial_index":53,"time_elapsed":849365,"internal_node_id":"0.0-4.0"},{"group":"hexagon_tri","fractal_assignment":["../images/blu_wht.png","../images/org_blu.png","../images/cyn_red.png","../images/gry_blk.png","../images/pnk_blu.png","../images/ylw_slt.png"],"mutagen_generator_assignment":[0,1],"goal":3,"start":5,"action_noise":0.15,"location_history":"[5,0,1,3]","action_history":"[0,0,0]","mutagen_history":"[0,0,0]","location_rts":"[4438,493,444]","trial_type":"fractal-mutation","trial_index":54,"time_elapsed":861269,"internal_node_id":"0.0-5.0-0.0"},{"group":"hexagon_tri","fractal_assignment":["../images/blu_wht.png","../images/org_blu.png","../images/cyn_red.png","../images/gry_blk.png","../images/pnk_blu.png","../images/ylw_slt.png"],"mutagen_generator_assignment":[0,1],"goal":1,"start":3,"action_noise":0.15,"location_history":"[3,2,1]","action_history":"[0,0]","mutagen_history":"[0,0]","location_rts":"[1560,732]","trial_type":"fractal-mutation","trial_index":55,"time_elapsed":869071,"internal_node_id":"0.0-5.0-1.0"},{"group":"hexagon_tri","fractal_assignment":["../images/blu_wht.png","../images/org_blu.png","../images/cyn_red.png","../images/gry_blk.png","../images/pnk_blu.png","../images/ylw_slt.png"],"mutagen_generator_assignment":[0,1],"goal":0,"start":1,"action_noise":0.15,"location_history":"[1,5,0]","action_history":"[1,1]","mutagen_history":"[1,1]","location_rts":"[1845,687]","trial_type":"fractal-mutation","trial_index":56,"time_elapsed":877136,"internal_node_id":"0.0-5.0-2.0"},{"group":"hexagon_tri","fractal_assignment":["../images/blu_wht.png","../images/org_blu.png","../images/cyn_red.png","../images/gry_blk.png","../images/pnk_blu.png","../images/ylw_slt.png"],"mutagen_generator_assignment":[0,1],"goal":3,"start":0,"action_noise":0.15,"location_history":"[0,5,0,5,4,0,5,0,1,3]","action_history":"[0,0,0,0,0,0,1,1,1]","mutagen_history":"[0,0,0,0,0,0,1,1,1]","location_rts":"[1732,431,732,490,464,465,558,401,417]","trial_type":"fractal-mutation","trial_index":57,"time_elapsed":895407,"internal_node_id":"0.0-5.0-3.0"},{"group":"hexagon_tri","fractal_assignment":["../images/blu_wht.png","../images/org_blu.png","../images/cyn_red.png","../images/gry_blk.png","../images/pnk_blu.png","../images/ylw_slt.png"],"mutagen_generator_assignment":[0,1],"goal":4,"start":3,"action_noise":0.15,"location_history":"[3,2,1,3,2,1,3,2,1,5,0,1,5,4]","action_history":"[0,0,0,0,0,0,0,1,1,1,1,1,1]","mutagen_history":"[0,0,0,0,0,0,0,1,1,1,1,1,1]","location_rts":"[1204,391,535,481,448,419,501,620,463,460,418,441,492]","trial_type":"fractal-mutation","trial_index":58,"time_elapsed":920976,"internal_node_id":"0.0-5.0-4.0"},{"group":"hexagon_tri","fractal_assignment":["../images/blu_wht.png","../images/org_blu.png","../images/cyn_red.png","../images/gry_blk.png","../images/pnk_blu.png","../images/ylw_slt.png"],"mutagen_generator_assignment":[0,1],"goal":2,"start":4,"action_noise":0.15,"location_history":"[4,0,5,4,0,5,4,2]","action_history":"[0,0,0,0,0,0,1]","mutagen_history":"[0,0,0,0,0,0,1]","location_rts":"[1422,371,368,433,422,475,404]","trial_type":"fractal-mutation","trial_index":59,"time_elapsed":935412,"internal_node_id":"0.0-5.0-5.0"},{"group":"hexagon_tri","fractal_assignment":["../images/blu_wht.png","../images/org_blu.png","../images/cyn_red.png","../images/gry_blk.png","../images/pnk_blu.png","../images/ylw_slt.png"],"mutagen_generator_assignment":[0,1],"goal":1,"start":2,"action_noise":0.15,"location_history":"[2,1]","action_history":"[0]","mutagen_history":"[0]","location_rts":"[960]","trial_type":"fractal-mutation","trial_index":60,"time_elapsed":940878,"internal_node_id":"0.0-5.0-6.0"},{"group":"hexagon_tri","fractal_assignment":["../images/blu_wht.png","../images/org_blu.png","../images/cyn_red.png","../images/gry_blk.png","../images/pnk_blu.png","../images/ylw_slt.png"],"mutagen_generator_assignment":[0,1],"goal":5,"start":1,"action_noise":0.15,"location_history":"[1,5]","action_history":"[1]","mutagen_history":"[1]","location_rts":"[1308]","trial_type":"fractal-mutation","trial_index":61,"time_elapsed":946705,"internal_node_id":"0.0-5.0-7.0"},{"group":"hexagon_tri","fractal_assignment":["../images/blu_wht.png","../images/org_blu.png","../images/cyn_red.png","../images/gry_blk.png","../images/pnk_blu.png","../images/ylw_slt.png"],"mutagen_generator_assignment":[0,1],"goal":4,"start":5,"action_noise":0.15,"location_history":"[5,4]","action_history":"[0]","mutagen_history":"[0]","location_rts":"[1053]","trial_type":"fractal-mutation","trial_index":62,"time_elapsed":952264,"internal_node_id":"0.0-5.0-8.0"},{"group":"hexagon_tri","fractal_assignment":["../images/blu_wht.png","../images/org_blu.png","../images/cyn_red.png","../images/gry_blk.png","../images/pnk_blu.png","../images/ylw_slt.png"],"mutagen_generator_assignment":[0,1],"goal":2,"start":4,"action_noise":0.15,"location_history":"[4,2]","action_history":"[1]","mutagen_history":"[1]","location_rts":"[1173]","trial_type":"fractal-mutation","trial_index":63,"time_elapsed":957951,"internal_node_id":"0.0-5.0-9.0"},{"group":"hexagon_tri","fractal_assignment":["../images/blu_wht.png","../images/org_blu.png","../images/cyn_red.png","../images/gry_blk.png","../images/pnk_blu.png","../images/ylw_slt.png"],"mutagen_generator_assignment":[0,1],"goal":0,"start":2,"action_noise":0.15,"location_history":"[2,3,2,1,3,4,2,1,5,0]","action_history":"[0,0,0,0,1,1,1,1,1]","mutagen_history":"[0,0,0,0,1,1,1,1,1]","location_rts":"[974,468,478,514,463,504,529,514,415]","trial_type":"fractal-mutation","trial_index":64,"time_elapsed":975409,"internal_node_id":"0.0-5.0-10.0"},{"group":"hexagon_tri","fractal_assignment":["../images/blu_wht.png","../images/org_blu.png","../images/cyn_red.png","../images/gry_blk.png","../images/pnk_blu.png","../images/ylw_slt.png"],"mutagen_generator_assignment":[0,1],"goal":1,"start":0,"action_noise":0.15,"location_history":"[0,1]","action_history":"[1]","mutagen_history":"[1]","location_rts":"[4540]","trial_type":"fractal-mutation","trial_index":65,"time_elapsed":984463,"internal_node_id":"0.0-5.0-11.0"},{"group":"hexagon_tri","fractal_assignment":["../images/blu_wht.png","../images/org_blu.png","../images/cyn_red.png","../images/gry_blk.png","../images/pnk_blu.png","../images/ylw_slt.png"],"mutagen_generator_assignment":[0,1],"goal":3,"start":1,"action_noise":0.15,"location_history":"[1,3]","action_history":"[0]","mutagen_history":"[0]","location_rts":"[1172]","trial_type":"fractal-mutation","trial_index":66,"time_elapsed":990144,"internal_node_id":"0.0-5.0-12.0"},{"group":"hexagon_tri","fractal_assignment":["../images/blu_wht.png","../images/org_blu.png","../images/cyn_red.png","../images/gry_blk.png","../images/pnk_blu.png","../images/ylw_slt.png"],"mutagen_generator_assignment":[0,1],"goal":5,"start":3,"action_noise":0.15,"location_history":"[3,4,2,3,2,1,3,2,1,5]","action_history":"[1,1,1,0,0,0,0,0,0]","mutagen_history":"[1,1,1,0,0,0,0,0,0]","location_rts":"[1077,561,437,353,876,500,2602,476,456]","trial_type":"fractal-mutation","trial_index":67,"time_elapsed":1010989,"internal_node_id":"0.0-5.0-13.0"},{"group":"hexagon_tri","fractal_assignment":["../images/blu_wht.png","../images/org_blu.png","../images/cyn_red.png","../images/gry_blk.png","../images/pnk_blu.png","../images/ylw_slt.png"],"mutagen_generator_assignment":[0,1],"goal":4,"start":5,"action_noise":0.15,"location_history":"[5,4]","action_history":"[0]","mutagen_history":"[0]","location_rts":"[1779]","trial_type":"fractal-mutation","trial_index":68,"time_elapsed":1017441,"internal_node_id":"0.0-5.0-14.0"},{"group":"hexagon_tri","fractal_assignment":["../images/blu_wht.png","../images/org_blu.png","../images/cyn_red.png","../images/gry_blk.png","../images/pnk_blu.png","../images/ylw_slt.png"],"mutagen_generator_assignment":[0,1],"goal":0,"start":4,"action_noise":0.15,"location_history":"[4,0]","action_history":"[1]","mutagen_history":"[1]","location_rts":"[1267]","trial_type":"fractal-mutation","trial_index":69,"time_elapsed":1023225,"internal_node_id":"0.0-5.0-15.0"},{"group":"hexagon_tri","fractal_assignment":["../images/blu_wht.png","../images/org_blu.png","../images/cyn_red.png","../images/gry_blk.png","../images/pnk_blu.png","../images/ylw_slt.png"],"mutagen_generator_assignment":[0,1],"goal":3,"start":0,"action_noise":0.15,"location_history":"[0,5,4,0,1,5,4,2,1,3]","action_history":"[0,1,1,1,1,0,0,0,0]","mutagen_history":"[0,1,1,1,1,0,0,0,0]","location_rts":"[1211,629,371,414,430,412,523,488,419]","trial_type":"fractal-mutation","trial_index":70,"time_elapsed":1040707,"internal_node_id":"0.0-5.0-16.0"},{"group":"hexagon_tri","fractal_assignment":["../images/blu_wht.png","../images/org_blu.png","../images/cyn_red.png","../images/gry_blk.png","../images/pnk_blu.png","../images/ylw_slt.png"],"mutagen_generator_assignment":[0,1],"goal":1,"start":3,"action_noise":0.15,"location_history":"[3,4,0,5,4,0,1]","action_history":"[1,0,0,0,0,1]","mutagen_history":"[1,0,0,0,0,1]","location_rts":"[1402,383,245,606,397,732]","trial_type":"fractal-mutation","trial_index":71,"time_elapsed":1054019,"internal_node_id":"0.0-5.0-17.0"},{"group":"hexagon_tri","fractal_assignment":["../images/blu_wht.png","../images/org_blu.png","../images/cyn_red.png","../images/gry_blk.png","../images/pnk_blu.png","../images/ylw_slt.png"],"mutagen_generator_assignment":[0,1],"goal":5,"start":1,"action_noise":0.15,"location_history":"[1,5]","action_history":"[1]","mutagen_history":"[1]","location_rts":"[2242]","trial_type":"fractal-mutation","trial_index":72,"time_elapsed":1060775,"internal_node_id":"0.0-5.0-18.0"},{"group":"hexagon_tri","fractal_assignment":["../images/blu_wht.png","../images/org_blu.png","../images/cyn_red.png","../images/gry_blk.png","../images/pnk_blu.png","../images/ylw_slt.png"],"mutagen_generator_assignment":[0,1],"goal":2,"start":5,"action_noise":0.15,"location_history":"[5,4,0,5,4,2]","action_history":"[0,1,0,0,0]","mutagen_history":"[0,1,0,0,0]","location_rts":"[1245,2620,809,396,770]","trial_type":"fractal-mutation","trial_index":73,"time_elapsed":1075989,"internal_node_id":"0.0-5.0-19.0"},{"group":"hexagon_tri","fractal_assignment":["../images/blu_wht.png","../images/org_blu.png","../images/cyn_red.png","../images/gry_blk.png","../images/pnk_blu.png","../images/ylw_slt.png"],"mutagen_generator_assignment":[0,1],"goal":4,"start":2,"action_noise":0.15,"location_history":"[2,3,2,1,3,2,1,3,2,1,5,0,5,4]","action_history":"[1,0,0,0,0,0,0,0,0,1,1,0,0]","mutagen_history":"[1,0,0,0,0,0,0,0,0,1,1,0,0]","location_rts":"[823,757,386,150,392,389,492,1882,2252,358,539,731,447]","trial_type":"fractal-mutation","trial_index":74,"time_elapsed":1102171,"internal_node_id":"0.0-5.0-20.0"},{"group":"hexagon_tri","fractal_assignment":["../images/blu_wht.png","../images/org_blu.png","../images/cyn_red.png","../images/gry_blk.png","../images/pnk_blu.png","../images/ylw_slt.png"],"mutagen_generator_assignment":[0,1],"goal":1,"start":4,"action_noise":0.15,"location_history":"[4,2,3,2,3,4,0,1]","action_history":"[1,1,1,1,0,0,0]","mutagen_history":"[1,1,1,1,0,0,0]","location_rts":"[1171,2215,678,819,460,437,349]","trial_type":"fractal-mutation","trial_index":75,"time_elapsed":1118870,"internal_node_id":"0.0-5.0-21.0"},{"group":"hexagon_tri","fractal_assignment":["../images/blu_wht.png","../images/org_blu.png","../images/cyn_red.png","../images/gry_blk.png","../images/pnk_blu.png","../images/ylw_slt.png"],"mutagen_generator_assignment":[0,1],"goal":3,"start":1,"action_noise":0.15,"location_history":"[1,5,4,0,5,4,0,5,0,5,4,2,1,5,0,1,5,0,5,0,5,0,1,3]","action_history":"[1,0,0,0,0,0,0,0,0,0,1,1,1,1,1,1,1,1,1,0,1,1,0]","mutagen_history":"[1,0,0,0,0,0,0,0,0,0,1,1,1,1,1,1,1,1,1,0,1,1,0]","location_rts":"[935,587,694,375,397,429,410,531,595,470,374,346,362,378,421,398,500,369,393,416,410,374,402]","trial_type":"fractal-mutation","trial_index":76,"time_elapsed":1156153,"internal_node_id":"0.0-5.0-22.0"},{"group":"hexagon_tri","fractal_assignment":["../images/blu_wht.png","../images/org_blu.png","../images/cyn_red.png","../images/gry_blk.png","../images/pnk_blu.png","../images/ylw_slt.png"],"mutagen_generator_assignment":[0,1],"goal":2,"start":3,"action_noise":0.15,"location_history":"[3,4,0,5,0,1,5,4,0,1,5,0,1,5,0,1,3,2]","action_history":"[1,0,0,1,1,0,0,0,1,1,1,1,1,1,1,0,0]","mutagen_history":"[1,0,0,1,1,0,0,0,1,1,1,1,1,1,1,0,0]","location_rts":"[1044,347,362,332,326,572,428,411,443,458,292,425,594,513,476,369,429]","trial_type":"fractal-mutation","trial_index":77,"time_elapsed":1184643,"internal_node_id":"0.0-5.0-23.0"},{"group":"hexagon_tri","fractal_assignment":["../images/blu_wht.png","../images/org_blu.png","../images/cyn_red.png","../images/gry_blk.png","../images/pnk_blu.png","../images/ylw_slt.png"],"mutagen_generator_assignment":[0,1],"goal":0,"start":2,"action_noise":0.15,"location_history":"[2,3,4,2,1,3,2,1,5,0]","action_history":"[1,1,1,0,0,0,0,1,1]","mutagen_history":"[1,1,1,0,0,0,0,1,1]","location_rts":"[1313,529,497,369,407,489,370,451,440]","trial_type":"fractal-mutation","trial_index":78,"time_elapsed":1202100,"internal_node_id":"0.0-5.0-24.0"},{"group":"hexagon_tri","fractal_assignment":["../images/blu_wht.png","../images/org_blu.png","../images/cyn_red.png","../images/gry_blk.png","../images/pnk_blu.png","../images/ylw_slt.png"],"mutagen_generator_assignment":[0,1],"goal":5,"start":0,"action_noise":0.15,"location_history":"[0,5]","action_history":"[0]","mutagen_history":"[0]","location_rts":"[1377]","trial_type":"fractal-mutation","trial_index":79,"time_elapsed":1207986,"internal_node_id":"0.0-5.0-25.0"},{"group":"hexagon_tri","fractal_assignment":["../images/blu_wht.png","../images/org_blu.png","../images/cyn_red.png","../images/gry_blk.png","../images/pnk_blu.png","../images/ylw_slt.png"],"mutagen_generator_assignment":[0,1],"goal":2,"start":5,"action_noise":0.15,"location_history":"[5,0,5,4,0,5,0,5,0,1,5,0,5,4,0,5,4,2]","action_history":"[1,0,0,0,0,1,1,1,1,1,0,0,0,0,0,1,1]","mutagen_history":"[1,0,0,0,0,1,1,1,1,1,0,0,0,0,0,1,1]","location_rts":"[1082,539,477,520,754,413,369,418,392,562,419,356,578,434,357,1456,483]","trial_type":"fractal-mutation","trial_index":80,"time_elapsed":1238253,"internal_node_id":"0.0-5.0-26.0"},{"group":"hexagon_tri","fractal_assignment":["../images/blu_wht.png","../images/org_blu.png","../images/cyn_red.png","../images/gry_blk.png","../images/pnk_blu.png","../images/ylw_slt.png"],"mutagen_generator_assignment":[0,1],"goal":3,"start":2,"action_noise":0.15,"location_history":"[2,1,3]","action_history":"[0,0]","mutagen_history":"[0,0]","location_rts":"[19151,729]","trial_type":"fractal-mutation","trial_index":81,"time_elapsed":1263650,"internal_node_id":"0.0-5.0-27.0"},{"group":"hexagon_tri","fractal_assignment":["../images/blu_wht.png","../images/org_blu.png","../images/cyn_red.png","../images/gry_blk.png","../images/pnk_blu.png","../images/ylw_slt.png"],"mutagen_generator_assignment":[0,1],"goal":0,"start":3,"action_noise":0.15,"location_history":"[3,4,2,1,3,2,1,5,0]","action_history":"[1,1,0,0,0,0,1,1]","mutagen_history":"[1,1,0,0,0,0,1,1]","location_rts":"[953,431,637,669,997,14435,375,9140]","trial_type":"fractal-mutation","trial_index":82,"time_elapsed":1302989,"internal_node_id":"0.0-5.0-28.0"},{"group":"hexagon_tri","fractal_assignment":["../images/blu_wht.png","../images/org_blu.png","../images/cyn_red.png","../images/gry_blk.png","../images/pnk_blu.png","../images/ylw_slt.png"],"mutagen_generator_assignment":[0,1],"goal":1,"start":0,"action_noise":0.15,"location_history":"[0,5,0,1]","action_history":"[0,0,1]","mutagen_history":"[0,0,1]","location_rts":"[1175,449,698]","trial_type":"fractal-mutation","trial_index":83,"time_elapsed":1311837,"internal_node_id":"0.0-5.0-29.0"},{"group":"hexagon_tri","fractal_assignment":["../images/blu_wht.png","../images/org_blu.png","../images/cyn_red.png","../images/gry_blk.png","../images/pnk_blu.png","../images/ylw_slt.png"],"mutagen_generator_assignment":[0,1],"goal":4,"start":1,"action_noise":0.15,"location_history":"[1,5,0,5,4]","action_history":"[1,1,0,0]","mutagen_history":"[1,1,0,0]","location_rts":"[4593,664,1455,1111]","trial_type":"fractal-mutation","trial_index":84,"time_elapsed":1327344,"internal_node_id":"0.0-5.0-30.0"},{"group":"hexagon_tri","fractal_assignment":["../images/blu_wht.png","../images/org_blu.png","../images/cyn_red.png","../images/gry_blk.png","../images/pnk_blu.png","../images/ylw_slt.png"],"mutagen_generator_assignment":[0,1],"goal":5,"start":4,"action_noise":0.15,"location_history":"[4,0,1,5]","action_history":"[1,1,1]","mutagen_history":"[1,1,1]","location_rts":"[1293,556,21815]","trial_type":"fractal-mutation","trial_index":85,"time_elapsed":1357547,"internal_node_id":"0.0-5.0-31.0"},{"group":"hexagon_tri","fractal_assignment":["../images/blu_wht.png","../images/org_blu.png","../images/cyn_red.png","../images/gry_blk.png","../images/pnk_blu.png","../images/ylw_slt.png"],"mutagen_generator_assignment":[0,1],"goal":0,"start":5,"action_noise":0.15,"location_history":"[5,4,0]","action_history":"[0,0]","mutagen_history":"[0,0]","location_rts":"[849,388]","trial_type":"fractal-mutation","trial_index":86,"time_elapsed":1364294,"internal_node_id":"0.0-5.0-32.0"},{"group":"hexagon_tri","fractal_assignment":["../images/blu_wht.png","../images/org_blu.png","../images/cyn_red.png","../images/gry_blk.png","../images/pnk_blu.png","../images/ylw_slt.png"],"mutagen_generator_assignment":[0,1],"goal":3,"start":0,"action_noise":0.15,"location_history":"[0,1,5,0,1,3]","action_history":"[1,1,1,1,1]","mutagen_history":"[1,1,1,1,1]","location_rts":"[783,433,411,534,481]","trial_type":"fractal-mutation","trial_index":87,"time_elapsed":1375506,"internal_node_id":"0.0-5.0-33.0"},{"group":"hexagon_tri","fractal_assignment":["../images/blu_wht.png","../images/org_blu.png","../images/cyn_red.png","../images/gry_blk.png","../images/pnk_blu.png","../images/ylw_slt.png"],"mutagen_generator_assignment":[0,1],"goal":1,"start":3,"action_noise":0.15,"location_history":"[3,4,0,1]","action_history":"[0,0,0]","mutagen_history":"[0,0,0]","location_rts":"[834,410,457]","trial_type":"fractal-mutation","trial_index":88,"time_elapsed":1383726,"internal_node_id":"0.0-5.0-34.0"},{"group":"hexagon_tri","fractal_assignment":["../images/blu_wht.png","../images/org_blu.png","../images/cyn_red.png","../images/gry_blk.png","../images/pnk_blu.png","../images/ylw_slt.png"],"mutagen_generator_assignment":[0,1],"goal":2,"start":1,"action_noise":0.15,"location_history":"[1,5,0,5,4,0,5,4,0,1,3,4,2]","action_history":"[1,0,0,0,0,0,0,0,1,1,1,1]","mutagen_history":"[1,0,0,0,0,0,0,0,1,1,1,1]","location_rts":"[895,635,398,478,699,183,503,562,1569,582,553,482]","trial_type":"fractal-mutation","trial_index":89,"time_elapsed":1409435,"internal_node_id":"0.0-5.0-35.0"},{"group":"hexagon_tri","fractal_assignment":["../images/blu_wht.png","../images/org_blu.png","../images/cyn_red.png","../images/gry_blk.png","../images/pnk_blu.png","../images/ylw_slt.png"],"mutagen_generator_assignment":[0,1],"goal":4,"start":2,"action_noise":0.15,"location_history":"[2,1,3,2,3,2,3,4]","action_history":"[0,0,0,1,1,1,1]","mutagen_history":"[0,0,0,1,1,1,1]","location_rts":"[2162,459,672,770,593,880,492]","trial_type":"fractal-mutation","trial_index":90,"time_elapsed":1426031,"internal_node_id":"0.0-5.0-36.0"},{"group":"hexagon_tri","fractal_assignment":["../images/blu_wht.png","../images/org_blu.png","../images/cyn_red.png","../images/gry_blk.png","../images/pnk_blu.png","../images/ylw_slt.png"],"mutagen_generator_assignment":[0,1],"goal":5,"start":4,"action_noise":0.15,"location_history":"[4,0,1,5]","action_history":"[0,1,1]","mutagen_history":"[0,1,1]","location_rts":"[9973,935,373]","trial_type":"fractal-mutation","trial_index":91,"time_elapsed":1443837,"internal_node_id":"0.0-5.0-37.0"},{"group":"hexagon_tri","fractal_assignment":["../images/blu_wht.png","../images/org_blu.png","../images/cyn_red.png","../images/gry_blk.png","../images/pnk_blu.png","../images/ylw_slt.png"],"mutagen_generator_assignment":[0,1],"goal":1,"start":5,"action_noise":0.15,"location_history":"[5,4,0,5,0,5,0,1]","action_history":"[0,0,0,0,1,1,1]","mutagen_history":"[0,0,0,0,1,1,1]","location_rts":"[1199,1193,513,404,475,2770,701]","trial_type":"fractal-mutation","trial_index":92,"time_elapsed":1461666,"internal_node_id":"0.0-5.0-38.0"},{"group":"hexagon_tri","fractal_assignment":["../images/blu_wht.png","../images/org_blu.png","../images/cyn_red.png","../images/gry_blk.png","../images/pnk_blu.png","../images/ylw_slt.png"],"mutagen_generator_assignment":[0,1],"goal":4,"start":1,"action_noise":0.15,"location_history":"[1,3,4]","action_history":"[0,1]","mutagen_history":"[0,1]","location_rts":"[738,4050]","trial_type":"fractal-mutation","trial_index":93,"time_elapsed":1471973,"internal_node_id":"0.0-5.0-39.0"},{"group":"hexagon_tri","fractal_assignment":["../images/blu_wht.png","../images/org_blu.png","../images/cyn_red.png","../images/gry_blk.png","../images/pnk_blu.png","../images/ylw_slt.png"],"mutagen_generator_assignment":[0,1],"goal":3,"start":4,"action_noise":0.15,"location_history":"[4,0,5,0,1,3]","action_history":"[0,0,1,1,1]","mutagen_history":"[0,0,1,1,1]","location_rts":"[862,2129,889,807,672]","trial_type":"fractal-mutation","trial_index":94,"time_elapsed":1485894,"internal_node_id":"0.0-5.0-40.0"},{"group":"hexagon_tri","fractal_assignment":["../images/blu_wht.png","../images/org_blu.png","../images/cyn_red.png","../images/gry_blk.png","../images/pnk_blu.png","../images/ylw_slt.png"],"mutagen_generator_assignment":[0,1],"goal":2,"start":3,"action_noise":0.15,"location_history":"[3,2]","action_history":"[1]","mutagen_history":"[1]","location_rts":"[2893]","trial_type":"fractal-mutation","trial_index":95,"time_elapsed":1493304,"internal_node_id":"0.0-5.0-41.0"},{"group":"hexagon_tri","fractal_assignment":["../images/blu_wht.png","../images/org_blu.png","../images/cyn_red.png","../images/gry_blk.png","../images/pnk_blu.png","../images/ylw_slt.png"],"mutagen_generator_assignment":[0,1],"goal":0,"start":2,"action_noise":0.15,"location_history":"[2,1,5,4,0]","action_history":"[0,1,0,0]","mutagen_history":"[0,1,0,0]","location_rts":"[766,723,5141,2244]","trial_type":"fractal-mutation","trial_index":96,"time_elapsed":1509700,"internal_node_id":"0.0-5.0-42.0"},{"group":"hexagon_tri","fractal_assignment":["../images/blu_wht.png","../images/org_blu.png","../images/cyn_red.png","../images/gry_blk.png","../images/pnk_blu.png","../images/ylw_slt.png"],"mutagen_generator_assignment":[0,1],"goal":5,"start":0,"action_noise":0.15,"location_history":"[0,1,5]","action_history":"[1,1]","mutagen_history":"[1,1]","location_rts":"[711,1429]","trial_type":"fractal-mutation","trial_index":97,"time_elapsed":1517364,"internal_node_id":"0.0-5.0-43.0"},{"group":"hexagon_tri","fractal_assignment":["../images/blu_wht.png","../images/org_blu.png","../images/cyn_red.png","../images/gry_blk.png","../images/pnk_blu.png","../images/ylw_slt.png"],"mutagen_generator_assignment":[0,1],"goal":0,"start":5,"action_noise":0.15,"location_history":"[5,4,0]","action_history":"[0,0]","mutagen_history":"[0,0]","location_rts":"[855,637]","trial_type":"fractal-mutation","trial_index":98,"time_elapsed":1524366,"internal_node_id":"0.0-5.0-44.0"},{"group":"hexagon_tri","fractal_assignment":["../images/blu_wht.png","../images/org_blu.png","../images/cyn_red.png","../images/gry_blk.png","../images/pnk_blu.png","../images/ylw_slt.png"],"mutagen_generator_assignment":[0,1],"goal":2,"start":0,"action_noise":0.15,"location_history":"[0,1,5,4,2]","action_history":"[1,1,1,1]","mutagen_history":"[1,1,1,1]","location_rts":"[878,596,783,688]","trial_type":"fractal-mutation","trial_index":99,"time_elapsed":1534866,"internal_node_id":"0.0-5.0-45.0"},{"group":"hexagon_tri","fractal_assignment":["../images/blu_wht.png","../images/org_blu.png","../images/cyn_red.png","../images/gry_blk.png","../images/pnk_blu.png","../images/ylw_slt.png"],"mutagen_generator_assignment":[0,1],"goal":4,"start":2,"action_noise":0.15,"location_history":"[2,3,4]","action_history":"[1,1]","mutagen_history":"[1,1]","location_rts":"[21715,492]","trial_type":"fractal-mutation","trial_index":100,"time_elapsed":1562600,"internal_node_id":"0.0-5.0-46.0"},{"group":"hexagon_tri","fractal_assignment":["../images/blu_wht.png","../images/org_blu.png","../images/cyn_red.png","../images/gry_blk.png","../images/pnk_blu.png","../images/ylw_slt.png"],"mutagen_generator_assignment":[0,1],"goal":1,"start":4,"action_noise":0.15,"location_history":"[4,0,5,0,1]","action_history":"[0,0,0,0]","mutagen_history":"[0,0,0,0]","location_rts":"[25868,723,5260,629]","trial_type":"fractal-mutation","trial_index":101,"time_elapsed":1602989,"internal_node_id":"0.0-5.0-47.0"},{"group":"hexagon_tri","fractal_assignment":["../images/blu_wht.png","../images/org_blu.png","../images/cyn_red.png","../images/gry_blk.png","../images/pnk_blu.png","../images/ylw_slt.png"],"mutagen_generator_assignment":[0,1],"goal":5,"start":1,"action_noise":0.15,"location_history":"[1,3,2,1,3,2,1,3,4,2,3,4,2,3,2,3,4,0,5]","action_history":"[0,0,0,0,0,0,0,1,1,1,1,1,1,1,1,1,0,0]","mutagen_history":"[0,0,0,0,0,0,0,1,1,1,1,1,1,1,1,1,0,0]","location_rts":"[5784,616,390,458,600,443,22577,972,403,385,442,738,386,1014,525,413,525,383]","trial_type":"fractal-mutation","trial_index":102,"time_elapsed":1661720,"internal_node_id":"0.0-5.0-48.0"},{"group":"hexagon_tri","fractal_assignment":["../images/blu_wht.png","../images/org_blu.png","../images/cyn_red.png","../images/gry_blk.png","../images/pnk_blu.png","../images/ylw_slt.png"],"mutagen_generator_assignment":[0,1],"goal":3,"start":5,"action_noise":0.15,"location_history":"[5,0,1,5,0,5,4,2,3]","action_history":"[1,1,1,1,0,0,0,1]","mutagen_history":"[1,1,1,1,0,0,0,1]","location_rts":"[869,418,434,877,13210,739,535,1170]","trial_type":"fractal-mutation","trial_index":103,"time_elapsed":1691555,"internal_node_id":"0.0-5.0-49.0"},{"view_history":"[{\"page_index\":0,\"viewing_time\":4465}]","rt":4465,"trial_type":"instructions","trial_index":104,"time_elapsed":1697021,"internal_node_id":"0.0-6.0"},{"rt":3742,"responses":"{\"Q0\":\"thank you!\"}","trial_type":"survey-text","trial_index":105,"time_elapsed":1701767,"internal_node_id":"0.0-7.0"}]