[{"view_history":"[{\"page_index\":0,\"viewing_time\":133009},{\"page_index\":1,\"viewing_time\":206478}]","rt":339487,"trial_type":"instructions","trial_index":0,"time_elapsed":339488,"internal_node_id":"0.0-0.0"},{"view_history":"[{\"page_index\":0,\"viewing_time\":91660},{\"page_index\":1,\"viewing_time\":30705}]","rt":122365,"trial_type":"instructions","trial_index":1,"time_elapsed":462855,"internal_node_id":"0.0-1.0"},{"group":"hexagon_bi","room_assignment":["purple","blue","yellow","green","red","grey"],"door_color_assignment":["black","white"],"door_generator_assignment":[1,0],"goal":3,"start":5,"action_noise":0.15,"location_history":"[5,4,3]","action_history":"[0,1]","door_history":"[1,0]","location_rts":"[1450,2685]","trial_type":"two-door-navigation","trial_index":2,"time_elapsed":472557,"internal_node_id":"0.0-2.0-0.0"},{"group":"hexagon_bi","room_assignment":["purple","blue","yellow","green","red","grey"],"door_color_assignment":["black","white"],"door_generator_assignment":[1,0],"goal":1,"start":3,"action_noise":0.15,"location_history":"[3,2,3,2,1]","action_history":"[0,1,0,0]","door_history":"[1,0,1,1]","location_rts":"[1162,801,513,326]","trial_type":"two-door-navigation","trial_index":3,"time_elapsed":482963,"internal_node_id":"0.0-2.0-1.0"},{"group":"hexagon_bi","room_assignment":["purple","blue","yellow","green","red","grey"],"door_color_assignment":["black","white"],"door_generator_assignment":[1,0],"goal":0,"start":1,"action_noise":0.15,"location_history":"[1,2,1,0]","action_history":"[0,0,1]","door_history":"[1,1,0]","location_rts":"[964,502,404]","trial_type":"two-door-navigation","trial_index":4,"time_elapsed":491413,"internal_node_id":"0.0-2.0-2.0"},{"group":"hexagon_bi","room_assignment":["purple","blue","yellow","green","red","grey"],"door_color_assignment":["black","white"],"door_generator_assignment":[1,0],"goal":3,"start":0,"action_noise":0.15,"location_history":"[0,5,0,5,4,3]","action_history":"[0,0,0,1,0]","door_history":"[1,1,1,0,1]","location_rts":"[1049,683,547,477,1245]","trial_type":"two-door-navigation","trial_index":5,"time_elapsed":504050,"internal_node_id":"0.0-2.0-3.0"},{"group":"hexagon_bi","room_assignment":["purple","blue","yellow","green","red","grey"],"door_color_assignment":["black","white"],"door_generator_assignment":[1,0],"goal":4,"start":3,"action_noise":0.15,"location_history":"[3,2,3,4]","action_history":"[0,1,0]","door_history":"[1,0,1]","location_rts":"[1533,636,943]","trial_type":"two-door-navigation","trial_index":6,"time_elapsed":513743,"internal_node_id":"0.0-2.0-4.0"},{"group":"hexagon_bi","room_assignment":["purple","blue","yellow","green","red","grey"],"door_color_assignment":["black","white"],"door_generator_assignment":[1,0],"goal":2,"start":4,"action_noise":0.15,"location_history":"[4,5,0,5,4,5,0,5,4,3,4,3,2]","action_history":"[1,1,0,1,1,0,0,1,0,0,0,1]","door_history":"[0,0,1,0,0,1,1,0,1,1,1,0]","location_rts":"[2001,493,630,561,431,352,437,497,350,206,269,308]","trial_type":"two-door-navigation","trial_index":7,"time_elapsed":537081,"internal_node_id":"0.0-2.0-5.0"},{"group":"hexagon_bi","room_assignment":["purple","blue","yellow","green","red","grey"],"door_color_assignment":["black","white"],"door_generator_assignment":[1,0],"goal":1,"start":2,"action_noise":0.15,"location_history":"[2,1]","action_history":"[0]","door_history":"[1]","location_rts":"[4527]","trial_type":"two-door-navigation","trial_index":8,"time_elapsed":546158,"internal_node_id":"0.0-2.0-6.0"},{"group":"hexagon_bi","room_assignment":["purple","blue","yellow","green","red","grey"],"door_color_assignment":["black","white"],"door_generator_assignment":[1,0],"goal":5,"start":1,"action_noise":0.15,"location_history":"[1,2,3,2,1,0,5]","action_history":"[0,1,1,0,1,1]","door_history":"[1,0,0,1,0,0]","location_rts":"[623,709,1099,18444,448,406]","trial_type":"two-door-navigation","trial_index":9,"time_elapsed":577556,"internal_node_id":"0.0-2.0-7.0"},{"group":"hexagon_bi","room_assignment":["purple","blue","yellow","green","red","grey"],"door_color_assignment":["black","white"],"door_generator_assignment":[1,0],"goal":4,"start":5,"action_noise":0.15,"location_history":"[5,0,5,0,1,0,1,2,3,2,1,2,1,2,3,2,1,0,5,4]","action_history":"[0,0,0,1,1,1,0,0,1,0,0,0,1,1,1,0,1,0,1]","door_history":"[1,1,1,0,0,0,1,1,0,1,1,1,0,0,0,1,0,1,0]","location_rts":"[10196,593,347,383,297,224,235,362,232,236,193,278,594,1030,721,378,711,21765,2527]","trial_type":"two-door-navigation","trial_index":10,"time_elapsed":642493,"internal_node_id":"0.0-2.0-8.0"},{"group":"hexagon_bi","room_assignment":["purple","blue","yellow","green","red","grey"],"door_color_assignment":["black","white"],"door_generator_assignment":[1,0],"goal":2,"start":4,"action_noise":0.15,"location_history":"[4,3,2]","action_history":"[1,1]","door_history":"[0,0]","location_rts":"[1382,534]","trial_type":"two-door-navigation","trial_index":11,"time_elapsed":649971,"internal_node_id":"0.0-2.0-9.0"},{"group":"hexagon_bi","room_assignment":["purple","blue","yellow","green","red","grey"],"door_color_assignment":["black","white"],"door_generator_assignment":[1,0],"goal":0,"start":2,"action_noise":0.15,"location_history":"[2,1,0]","action_history":"[0,1]","door_history":"[1,0]","location_rts":"[1577,504]","trial_type":"two-door-navigation","trial_index":12,"time_elapsed":658083,"internal_node_id":"0.0-2.0-10.0"},{"group":"hexagon_bi","room_assignment":["purple","blue","yellow","green","red","grey"],"door_color_assignment":["black","white"],"door_generator_assignment":[1,0],"goal":1,"start":0,"action_noise":0.15,"location_history":"[0,5,4,3,2,3,2,3,2,1]","action_history":"[0,1,0,1,1,1,1,1,0]","door_history":"[1,0,1,0,0,0,0,0,1]","location_rts":"[29539,693,513,396,666,635,262,235,208]","trial_type":"two-door-navigation","trial_index":13,"time_elapsed":705085,"internal_node_id":"0.0-2.0-11.0"},{"group":"hexagon_bi","room_assignment":["purple","blue","yellow","green","red","grey"],"door_color_assignment":["black","white"],"door_generator_assignment":[1,0],"goal":3,"start":1,"action_noise":0.15,"location_history":"[1,0,5,4,5,0,5,0,1,0,5,4,5,4,3]","action_history":"[1,0,0,1,0,0,0,1,1,0,1,1,1,0]","door_history":"[0,1,1,0,1,1,1,0,0,1,0,0,0,1]","location_rts":"[310329,461,311,330,333,239,362,294,930,747,272,335,328,477]","trial_type":"two-door-navigation","trial_index":14,"time_elapsed":1039632,"internal_node_id":"0.0-2.0-12.0"},{"group":"hexagon_bi","room_assignment":["purple","blue","yellow","green","red","grey"],"door_color_assignment":["black","white"],"door_generator_assignment":[1,0],"goal":5,"start":3,"action_noise":0.15,"location_history":"[3,2,1,2,1,0,1,2,1,0,5]","action_history":"[1,0,0,0,1,1,0,1,1,0]","door_history":"[0,1,1,1,0,0,1,0,0,1]","location_rts":"[3645,630,374,539,324,441,244,282,264,37162]","trial_type":"two-door-navigation","trial_index":15,"time_elapsed":1097254,"internal_node_id":"0.0-2.0-13.0"},{"group":"hexagon_bi","room_assignment":["purple","blue","yellow","green","red","grey"],"door_color_assignment":["black","white"],"door_generator_assignment":[1,0],"goal":4,"start":5,"action_noise":0.15,"location_history":"[5,0,5,4]","action_history":"[0,0,1]","door_history":"[1,1,0]","location_rts":"[120730,512,362]","trial_type":"two-door-navigation","trial_index":16,"time_elapsed":1225480,"internal_node_id":"0.0-2.0-14.0"},{"group":"hexagon_bi","room_assignment":["purple","blue","yellow","green","red","grey"],"door_color_assignment":["black","white"],"door_generator_assignment":[1,0],"goal":0,"start":4,"action_noise":0.15,"location_history":"[4,5,4,3,2,1,0]","action_history":"[1,1,0,1,0,1]","door_history":"[0,0,1,0,1,0]","location_rts":"[107236,699,383,667,954,790]","trial_type":"two-door-navigation","trial_index":17,"time_elapsed":1346458,"internal_node_id":"0.0-2.0-15.0"},{"group":"hexagon_bi","room_assignment":["purple","blue","yellow","green","red","grey"],"door_color_assignment":["black","white"],"door_generator_assignment":[1,0],"goal":3,"start":0,"action_noise":0.15,"location_history":"[0,1,2,1,0,1,2,3]","action_history":"[1,0,0,1,1,0,1]","door_history":"[0,1,1,0,0,1,0]","location_rts":"[1642,837,667,1258,1189,526,374]","trial_type":"two-door-navigation","trial_index":18,"time_elapsed":1364082,"internal_node_id":"0.0-2.0-16.0"},{"group":"hexagon_bi","room_assignment":["purple","blue","yellow","green","red","grey"],"door_color_assignment":["black","white"],"door_generator_assignment":[1,0],"goal":1,"start":3,"action_noise":0.15,"location_history":"[3,2,1]","action_history":"[1,0]","door_history":"[0,1]","location_rts":"[61639,729]","trial_type":"two-door-navigation","trial_index":19,"time_elapsed":1433087,"internal_node_id":"0.0-2.0-17.0"},{"group":"hexagon_bi","room_assignment":["purple","blue","yellow","green","red","grey"],"door_color_assignment":["black","white"],"door_generator_assignment":[1,0],"goal":5,"start":1,"action_noise":0.15,"location_history":"[1,0,1,0,5]","action_history":"[0,1,1,0]","door_history":"[1,0,0,1]","location_rts":"[7881,678,876,601]","trial_type":"two-door-navigation","trial_index":20,"time_elapsed":1451722,"internal_node_id":"0.0-2.0-18.0"},{"group":"hexagon_bi","room_assignment":["purple","blue","yellow","green","red","grey"],"door_color_assignment":["black","white"],"door_generator_assignment":[1,0],"goal":2,"start":5,"action_noise":0.15,"location_history":"[5,0,1,0,5,4,3,4,3,2]","action_history":"[0,1,1,0,1,0,0,0,1]","door_history":"[1,0,0,1,0,1,1,1,0]","location_rts":"[2761,1234,421,324,303,213,223,267,366]","trial_type":"two-door-navigation","trial_index":21,"time_elapsed":1470525,"internal_node_id":"0.0-2.0-19.0"},{"group":"hexagon_bi","room_assignment":["purple","blue","yellow","green","red","grey"],"door_color_assignment":["black","white"],"door_generator_assignment":[1,0],"goal":4,"start":2,"action_noise":0.15,"location_history":"[2,1,0,5,4]","action_history":"[0,0,1,1]","door_history":"[1,1,0,0]","location_rts":"[56021,244678,492,1088]","trial_type":"two-door-navigation","trial_index":22,"time_elapsed":1781080,"internal_node_id":"0.0-2.0-20.0"},{"group":"hexagon_bi","room_assignment":["purple","blue","yellow","green","red","grey"],"door_color_assignment":["black","white"],"door_generator_assignment":[1,0],"goal":1,"start":4,"action_noise":0.15,"location_history":"[4,5,0,5,0,5,4,5,0,5,4,5,4,3,4,5,4,5,0,1]","action_history":"[1,0,0,1,0,1,1,0,0,1,1,1,0,0,0,1,1,0,0]","door_history":"[0,1,1,0,1,0,0,1,1,0,0,0,1,1,1,0,0,1,1]","location_rts":"[206792,795,454,1114,623,317,297,731,224,708,253,374,221,206,283,247,230,222,671]","trial_type":"two-door-navigation","trial_index":23,"time_elapsed":2018707,"internal_node_id":"0.0-2.0-21.0"},{"group":"hexagon_bi","room_assignment":["purple","blue","yellow","green","red","grey"],"door_color_assignment":["black","white"],"door_generator_assignment":[1,0],"goal":3,"start":1,"action_noise":0.15,"location_history":"[1,2,3]","action_history":"[0,1]","door_history":"[1,0]","location_rts":"[12517,783]","trial_type":"two-door-navigation","trial_index":24,"time_elapsed":2038083,"internal_node_id":"0.0-2.0-22.0"},{"group":"hexagon_bi","room_assignment":["purple","blue","yellow","green","red","grey"],"door_color_assignment":["black","white"],"door_generator_assignment":[1,0],"goal":2,"start":3,"action_noise":0.15,"location_history":"[3,4,5,0,5,4,5,0,1,2]","action_history":"[1,0,0,0,0,1,0,1,1]","door_history":"[0,1,1,1,1,0,1,0,0]","location_rts":"[64786,511,357,330,275,347,351,330,601]","trial_type":"two-door-navigation","trial_index":25,"time_elapsed":2119721,"internal_node_id":"0.0-2.0-23.0"},{"group":"hexagon_bi","room_assignment":["purple","blue","yellow","green","red","grey"],"door_color_assignment":["black","white"],"door_generator_assignment":[1,0],"goal":0,"start":2,"action_noise":0.15,"location_history":"[2,1,2,1,0]","action_history":"[0,0,0,1]","door_history":"[1,1,1,0]","location_rts":"[1321,447,386,624]","trial_type":"two-door-navigation","trial_index":26,"time_elapsed":2130105,"internal_node_id":"0.0-2.0-24.0"},{"group":"hexagon_bi","room_assignment":["purple","blue","yellow","green","red","grey"],"door_color_assignment":["black","white"],"door_generator_assignment":[1,0],"goal":5,"start":0,"action_noise":0.15,"location_history":"[0,1,0,5]","action_history":"[1,1,0]","door_history":"[0,0,1]","location_rts":"[814,672,471]","trial_type":"two-door-navigation","trial_index":27,"time_elapsed":2138646,"internal_node_id":"0.0-2.0-25.0"},{"group":"hexagon_bi","room_assignment":["purple","blue","yellow","green","red","grey"],"door_color_assignment":["black","white"],"door_generator_assignment":[1,0],"goal":2,"start":5,"action_noise":0.15,"location_history":"[5,0,1,2]","action_history":"[0,1,0]","door_history":"[1,0,1]","location_rts":"[2433,2065,413]","trial_type":"two-door-navigation","trial_index":28,"time_elapsed":2150137,"internal_node_id":"0.0-2.0-26.0"},{"group":"hexagon_bi","room_assignment":["purple","blue","yellow","green","red","grey"],"door_color_assignment":["black","white"],"door_generator_assignment":[1,0],"goal":3,"start":2,"action_noise":0.15,"location_history":"[2,1,0,1,2,3]","action_history":"[0,1,1,0,1]","door_history":"[1,0,0,1,0]","location_rts":"[950,499,729,394,347]","trial_type":"two-door-navigation","trial_index":29,"time_elapsed":2162082,"internal_node_id":"0.0-2.0-27.0"},{"group":"hexagon_bi","room_assignment":["purple","blue","yellow","green","red","grey"],"door_color_assignment":["black","white"],"door_generator_assignment":[1,0],"goal":0,"start":3,"action_noise":0.15,"location_history":"[3,4,3,4,5,0]","action_history":"[0,0,1,1,0]","door_history":"[1,1,0,0,1]","location_rts":"[84854,768,362,760,176065]","trial_type":"two-door-navigation","trial_index":30,"time_elapsed":2435083,"internal_node_id":"0.0-2.0-28.0"},{"group":"hexagon_bi","room_assignment":["purple","blue","yellow","green","red","grey"],"door_color_assignment":["black","white"],"door_generator_assignment":[1,0],"goal":1,"start":0,"action_noise":0.15,"location_history":"[0,5,4,3,2,3,2,1]","action_history":"[0,1,0,1,1,1,0]","door_history":"[1,0,1,0,0,0,1]","location_rts":"[35238,1188,531,429,417,340,391]","trial_type":"two-door-navigation","trial_index":31,"time_elapsed":2484301,"internal_node_id":"0.0-2.0-29.0"},{"group":"hexagon_bi","room_assignment":["purple","blue","yellow","green","red","grey"],"door_color_assignment":["black","white"],"door_generator_assignment":[1,0],"goal":4,"start":1,"action_noise":0.15,"location_history":"[1,2,1,0,1,0,1,2,3,4]","action_history":"[0,0,0,1,0,0,1,1,0]","door_history":"[1,1,1,0,1,1,0,0,1]","location_rts":"[1010,959,852,338,380,225,11978,353,236]","trial_type":"two-door-navigation","trial_index":32,"time_elapsed":2514082,"internal_node_id":"0.0-2.0-30.0"},{"group":"hexagon_bi","room_assignment":["purple","blue","yellow","green","red","grey"],"door_color_assignment":["black","white"],"door_generator_assignment":[1,0],"goal":5,"start":4,"action_noise":0.15,"location_history":"[4,3,2,1,2,3,2,3,4,5]","action_history":"[0,1,0,0,1,1,1,0,1]","door_history":"[1,0,1,1,0,0,0,1,0]","location_rts":"[6227,537,327,238,331,318,421,565,1243]","trial_type":"two-door-navigation","trial_index":33,"time_elapsed":2537084,"internal_node_id":"0.0-2.0-31.0"},{"group":"hexagon_bi","room_assignment":["purple","blue","yellow","green","red","grey"],"door_color_assignment":["black","white"],"door_generator_assignment":[1,0],"goal":0,"start":5,"action_noise":0.15,"location_history":"[5,4,5,0]","action_history":"[1,0,0]","door_history":"[0,1,1]","location_rts":"[67795,635,328]","trial_type":"two-door-navigation","trial_index":34,"time_elapsed":2613424,"internal_node_id":"0.0-2.0-32.0"},{"group":"hexagon_bi","room_assignment":["purple","blue","yellow","green","red","grey"],"door_color_assignment":["black","white"],"door_generator_assignment":[1,0],"goal":3,"start":0,"action_noise":0.15,"location_history":"[0,1,0,5,0,5,4,5,4,3]","action_history":"[0,1,0,0,0,1,1,1,0]","door_history":"[1,0,1,1,1,0,0,0,1]","location_rts":"[2065,477,395,282,306,643,707,455,270]","trial_type":"two-door-navigation","trial_index":35,"time_elapsed":2632098,"internal_node_id":"0.0-2.0-33.0"},{"group":"hexagon_bi","room_assignment":["purple","blue","yellow","green","red","grey"],"door_color_assignment":["black","white"],"door_generator_assignment":[1,0],"goal":1,"start":3,"action_noise":0.15,"location_history":"[3,4,5,4,3,2,3,2,1]","action_history":"[0,1,0,0,1,1,1,0]","door_history":"[1,0,1,1,0,0,0,1]","location_rts":"[86993,982,797,556,543,7737,799,1194]","trial_type":"two-door-navigation","trial_index":36,"time_elapsed":2744410,"internal_node_id":"0.0-2.0-34.0"},{"group":"hexagon_bi","room_assignment":["purple","blue","yellow","green","red","grey"],"door_color_assignment":["black","white"],"door_generator_assignment":[1,0],"goal":2,"start":1,"action_noise":0.15,"location_history":"[1,0,1,0,5,0,1,0,1,2]","action_history":"[1,1,1,0,0,1,1,0,0]","door_history":"[0,0,0,1,1,0,0,1,1]","location_rts":"[6642,672,624,269,352,443,294,362,255]","trial_type":"two-door-navigation","trial_index":37,"time_elapsed":2767044,"internal_node_id":"0.0-2.0-35.0"},{"group":"hexagon_bi","room_assignment":["purple","blue","yellow","green","red","grey"],"door_color_assignment":["black","white"],"door_generator_assignment":[1,0],"goal":4,"start":2,"action_noise":0.15,"location_history":"[2,3,4]","action_history":"[0,0]","door_history":"[1,1]","location_rts":"[1071,527]","trial_type":"two-door-navigation","trial_index":38,"time_elapsed":2774191,"internal_node_id":"0.0-2.0-36.0"},{"group":"hexagon_bi","room_assignment":["purple","blue","yellow","green","red","grey"],"door_color_assignment":["black","white"],"door_generator_assignment":[1,0],"goal":5,"start":4,"action_noise":0.15,"location_history":"[4,5]","action_history":"[1]","door_history":"[0]","location_rts":"[455474]","trial_type":"two-door-navigation","trial_index":39,"time_elapsed":3234191,"internal_node_id":"0.0-2.0-37.0"},{"group":"hexagon_bi","room_assignment":["purple","blue","yellow","green","red","grey"],"door_color_assignment":["black","white"],"door_generator_assignment":[1,0],"goal":1,"start":5,"action_noise":0.15,"location_history":"[5,0,5,4,5,0,5,4,3,2,1]","action_history":"[0,0,1,1,0,0,1,0,1,0]","door_history":"[1,1,0,0,1,1,0,1,0,1]","location_rts":"[872,460,781,413,347,444,1131,278,1060,425]","trial_type":"two-door-navigation","trial_index":40,"time_elapsed":3255080,"internal_node_id":"0.0-2.0-38.0"},{"group":"hexagon_bi","room_assignment":["purple","blue","yellow","green","red","grey"],"door_color_assignment":["black","white"],"door_generator_assignment":[1,0],"goal":4,"start":1,"action_noise":0.15,"location_history":"[1,0,1,0,5,0,5,4]","action_history":"[0,1,1,0,0,0,1]","door_history":"[1,0,0,1,1,1,0]","location_rts":"[14782,1000,117305,987,2078,79028,439]","trial_type":"two-door-navigation","trial_index":41,"time_elapsed":3481400,"internal_node_id":"0.0-2.0-39.0"},{"group":"hexagon_bi","room_assignment":["purple","blue","yellow","green","red","grey"],"door_color_assignment":["black","white"],"door_generator_assignment":[1,0],"goal":3,"start":4,"action_noise":0.15,"location_history":"[4,3]","action_history":"[0]","door_history":"[1]","location_rts":"[1113]","trial_type":"two-door-navigation","trial_index":42,"time_elapsed":3487039,"internal_node_id":"0.0-2.0-40.0"},{"group":"hexagon_bi","room_assignment":["purple","blue","yellow","green","red","grey"],"door_color_assignment":["black","white"],"door_generator_assignment":[1,0],"goal":2,"start":3,"action_noise":0.15,"location_history":"[3,2]","action_history":"[1]","door_history":"[0]","location_rts":"[1416]","trial_type":"two-door-navigation","trial_index":43,"time_elapsed":3492987,"internal_node_id":"0.0-2.0-41.0"},{"group":"hexagon_bi","room_assignment":["purple","blue","yellow","green","red","grey"],"door_color_assignment":["black","white"],"door_generator_assignment":[1,0],"goal":0,"start":2,"action_noise":0.15,"location_history":"[2,1,2,3,2,1,0]","action_history":"[0,0,1,1,1,0]","door_history":"[1,1,0,0,0,1]","location_rts":"[518,602,527,440,442,303]","trial_type":"two-door-navigation","trial_index":44,"time_elapsed":3505482,"internal_node_id":"0.0-2.0-42.0"},{"group":"hexagon_bi","room_assignment":["purple","blue","yellow","green","red","grey"],"door_color_assignment":["black","white"],"door_generator_assignment":[1,0],"goal":5,"start":0,"action_noise":0.15,"location_history":"[0,5]","action_history":"[0]","door_history":"[1]","location_rts":"[2006]","trial_type":"two-door-navigation","trial_index":45,"time_elapsed":3512025,"internal_node_id":"0.0-2.0-43.0"},{"group":"hexagon_bi","room_assignment":["purple","blue","yellow","green","red","grey"],"door_color_assignment":["black","white"],"door_generator_assignment":[1,0],"goal":0,"start":5,"action_noise":0.15,"location_history":"[5,4,3,4,3,2,1,0]","action_history":"[1,0,0,1,1,0,1]","door_history":"[0,1,1,0,0,1,0]","location_rts":"[1024,603,486,288,438,1067,1493]","trial_type":"two-door-navigation","trial_index":46,"time_elapsed":3528105,"internal_node_id":"0.0-2.0-44.0"},{"group":"hexagon_bi","room_assignment":["purple","blue","yellow","green","red","grey"],"door_color_assignment":["black","white"],"door_generator_assignment":[1,0],"goal":2,"start":0,"action_noise":0.15,"location_history":"[0,5,0,1,2]","action_history":"[0,0,1,1]","door_history":"[1,1,0,0]","location_rts":"[903,481,346,436]","trial_type":"two-door-navigation","trial_index":47,"time_elapsed":3537874,"internal_node_id":"0.0-2.0-45.0"},{"group":"hexagon_bi","room_assignment":["purple","blue","yellow","green","red","grey"],"door_color_assignment":["black","white"],"door_generator_assignment":[1,0],"goal":4,"start":2,"action_noise":0.15,"location_history":"[2,1,0,1,2,1,2,1,0,1,2,1,0,5,0,1,0,1,0,1,2,1,0,1,2,1,0,5,4]","action_history":"[0,1,1,0,0,0,0,1,1,0,0,0,1,1,0,1,1,1,1,0,0,1,1,0,0,0,0,1]","door_history":"[1,0,0,1,1,1,1,0,0,1,1,1,0,0,1,0,0,0,0,1,1,0,0,1,1,1,1,0]","location_rts":"[733,551,308,306,303,280,351,243,840,528,983,407,296,259,248,272,429,390,376,385,929,585,269,101,201,129,201,135]","trial_type":"two-door-navigation","trial_index":48,"time_elapsed":3581101,"internal_node_id":"0.0-2.0-46.0"},{"group":"hexagon_bi","room_assignment":["purple","blue","yellow","green","red","grey"],"door_color_assignment":["black","white"],"door_generator_assignment":[1,0],"goal":1,"start":4,"action_noise":0.15,"location_history":"[4,3,2,3,4,3,4,5,4,3,4,3,4,5,4,5,4,3,4,5,4,3,4,5,0,5,0,1]","action_history":"[0,0,1,0,0,0,1,1,0,0,0,1,1,0,1,1,0,0,1,1,0,0,1,1,0,0,1]","door_history":"[1,1,0,1,1,1,0,0,1,1,1,0,0,1,0,0,1,1,0,0,1,1,0,0,1,1,0]","location_rts":"[1002,390,323,302,226,284,272,222,132,327,246,1128,319,273,315,300,206,383,3,287,756,348,262,274,224,248,184]","trial_type":"two-door-navigation","trial_index":49,"time_elapsed":3621503,"internal_node_id":"0.0-2.0-47.0"},{"group":"hexagon_bi","room_assignment":["purple","blue","yellow","green","red","grey"],"door_color_assignment":["black","white"],"door_generator_assignment":[1,0],"goal":5,"start":1,"action_noise":0.15,"location_history":"[1,0,5]","action_history":"[0,0]","door_history":"[1,1]","location_rts":"[1608,440]","trial_type":"two-door-navigation","trial_index":50,"time_elapsed":3629107,"internal_node_id":"0.0-2.0-48.0"},{"group":"hexagon_bi","room_assignment":["purple","blue","yellow","green","red","grey"],"door_color_assignment":["black","white"],"door_generator_assignment":[1,0],"goal":3,"start":5,"action_noise":0.15,"location_history":"[5,0,1,2,3]","action_history":"[0,1,0,1]","door_history":"[1,0,1,0]","location_rts":"[709,508,788,350]","trial_type":"two-door-navigation","trial_index":51,"time_elapsed":3639071,"internal_node_id":"0.0-2.0-49.0"},{"view_history":"[{\"page_index\":0,\"viewing_time\":2361}]","rt":2362,"trial_type":"instructions","trial_index":52,"time_elapsed":3642433,"internal_node_id":"0.0-3.0"},{"view_history":"[{\"page_index\":0,\"viewing_time\":2046},{\"page_index\":1,\"viewing_time\":3057}]","rt":5103,"trial_type":"instructions","trial_index":53,"time_elapsed":3648536,"internal_node_id":"0.0-4.0"},{"group":"hexagon_bi","fractal_assignment":["../images/ylw_slt.png","../images/cyn_red.png","../images/blu_wht.png","../images/org_blu.png","../images/gry_blk.png","../images/pnk_blu.png"],"mutagen_generator_assignment":[0,1],"goal":3,"start":5,"action_noise":0.15,"location_history":"[5,0,1,0,5,0,5,0,5,4,5,0,5,0,1,0,1,2,1,2,3]","action_history":"[0,1,1,1,0,0,0,0,1,1,1,0,0,0,1,1,0,0,0,1]","mutagen_history":"[0,1,1,1,0,0,0,0,1,1,1,0,0,0,1,1,0,0,0,1]","location_rts":"[1771,2193,828,506,419,474,402,405,264,307,330,194,393,354,250,70200,491,362,245,309]","trial_type":"fractal-mutation","trial_index":54,"time_elapsed":3753384,"internal_node_id":"0.0-5.0-0.0"},{"group":"hexagon_bi","fractal_assignment":["../images/ylw_slt.png","../images/cyn_red.png","../images/blu_wht.png","../images/org_blu.png","../images/gry_blk.png","../images/pnk_blu.png"],"mutagen_generator_assignment":[0,1],"goal":1,"start":3,"action_noise":0.15,"location_history":"[3,2,3,4,3,2,1]","action_history":"[1,0,0,1,1,0]","mutagen_history":"[1,0,0,1,1,0]","location_rts":"[1200,292208,1471,548,535,681]","trial_type":"fractal-mutation","trial_index":55,"time_elapsed":4059753,"internal_node_id":"0.0-5.0-1.0"},{"group":"hexagon_bi","fractal_assignment":["../images/ylw_slt.png","../images/cyn_red.png","../images/blu_wht.png","../images/org_blu.png","../images/gry_blk.png","../images/pnk_blu.png"],"mutagen_generator_assignment":[0,1],"goal":0,"start":1,"action_noise":0.15,"location_history":"[1,0]","action_history":"[1]","mutagen_history":"[1]","location_rts":"[644]","trial_type":"fractal-mutation","trial_index":56,"time_elapsed":4064942,"internal_node_id":"0.0-5.0-2.0"},{"group":"hexagon_bi","fractal_assignment":["../images/ylw_slt.png","../images/cyn_red.png","../images/blu_wht.png","../images/org_blu.png","../images/gry_blk.png","../images/pnk_blu.png"],"mutagen_generator_assignment":[0,1],"goal":3,"start":0,"action_noise":0.15,"location_history":"[0,5,4,5,4,5,0,5,4,3]","action_history":"[0,1,1,1,0,0,0,1,0]","mutagen_history":"[0,1,1,1,0,0,0,1,0]","location_rts":"[2165,744,638,711,251,431,538,526,403]","trial_type":"fractal-mutation","trial_index":57,"time_elapsed":4084130,"internal_node_id":"0.0-5.0-3.0"},{"group":"hexagon_bi","fractal_assignment":["../images/ylw_slt.png","../images/cyn_red.png","../images/blu_wht.png","../images/org_blu.png","../images/gry_blk.png","../images/pnk_blu.png"],"mutagen_generator_assignment":[0,1],"goal":4,"start":3,"action_noise":0.15,"location_history":"[3,2,1,2,3,2,1,2,3,4]","action_history":"[1,0,0,1,1,1,0,1,0]","mutagen_history":"[1,0,0,1,1,1,0,1,0]","location_rts":"[62330,545,391,422,316,388,257,710,343]","trial_type":"fractal-mutation","trial_index":58,"time_elapsed":4162620,"internal_node_id":"0.0-5.0-4.0"},{"group":"hexagon_bi","fractal_assignment":["../images/ylw_slt.png","../images/cyn_red.png","../images/blu_wht.png","../images/org_blu.png","../images/gry_blk.png","../images/pnk_blu.png"],"mutagen_generator_assignment":[0,1],"goal":2,"start":4,"action_noise":0.15,"location_history":"[4,3,4,3,2]","action_history":"[0,0,0,1]","mutagen_history":"[0,0,0,1]","location_rts":"[1985,391,569,275]","trial_type":"fractal-mutation","trial_index":59,"time_elapsed":4173462,"internal_node_id":"0.0-5.0-5.0"},{"group":"hexagon_bi","fractal_assignment":["../images/ylw_slt.png","../images/cyn_red.png","../images/blu_wht.png","../images/org_blu.png","../images/gry_blk.png","../images/pnk_blu.png"],"mutagen_generator_assignment":[0,1],"goal":1,"start":2,"action_noise":0.15,"location_history":"[2,3,4,3,2,1]","action_history":"[1,0,0,1,1]","mutagen_history":"[1,0,0,1,1]","location_rts":"[2156,702,448,284,486]","trial_type":"fractal-mutation","trial_index":60,"time_elapsed":4186187,"internal_node_id":"0.0-5.0-6.0"},{"group":"hexagon_bi","fractal_assignment":["../images/ylw_slt.png","../images/cyn_red.png","../images/blu_wht.png","../images/org_blu.png","../images/gry_blk.png","../images/pnk_blu.png"],"mutagen_generator_assignment":[0,1],"goal":5,"start":1,"action_noise":0.15,"location_history":"[1,2,1,0,1,2,1,2,3,2,3,2,1,2,3,2,1,2,1,2,1,0,1,2,3,2,3,4,3,4,3,4,3,2,3,2,1,0,1,0,1,0,1,2,1,2,1,0,1,0,5]","action_history":"[0,0,1,1,0,0,0,1,1,1,0,0,0,1,1,0,0,1,0,0,1,1,0,1,1,1,0,0,0,0,0,1,1,1,1,0,0,1,1,1,1,1,0,0,0,0,1,0,1,1]","mutagen_history":"[0,0,1,1,0,0,0,1,1,1,0,0,0,1,1,0,0,1,0,0,1,1,0,1,1,1,0,0,0,0,0,1,1,1,1,0,0,1,1,1,1,1,0,0,0,0,1,0,1,1]","location_rts":"[614,466,338,387,260,403,258,220,330,601,488,385,408,591,519,304,371,492,704,405,955,651,440,322,379,472,340,441,305,473,391,399,666,766,529,285,467,455,330,403,437,427,285,369,348,261,294,30137,981,915]","trial_type":"fractal-mutation","trial_index":61,"time_elapsed":4293629,"internal_node_id":"0.0-5.0-7.0"},{"group":"hexagon_bi","fractal_assignment":["../images/ylw_slt.png","../images/cyn_red.png","../images/blu_wht.png","../images/org_blu.png","../images/gry_blk.png","../images/pnk_blu.png"],"mutagen_generator_assignment":[0,1],"goal":4,"start":5,"action_noise":0.15,"location_history":"[5,0,5,0,1,0,1,0,1,2,1,2,3,2,1,2,1,2,3,4]","action_history":"[1,0,0,1,0,1,1,1,0,0,0,1,1,0,0,0,1,1,0]","mutagen_history":"[1,0,0,1,0,1,1,1,0,0,0,1,1,0,0,0,1,1,0]","location_rts":"[1056,748,342,299,528,413,262,241,228,283,296,283,339,560,301,313,382,1129,1028]","trial_type":"fractal-mutation","trial_index":62,"time_elapsed":4325763,"internal_node_id":"0.0-5.0-8.0"},{"group":"hexagon_bi","fractal_assignment":["../images/ylw_slt.png","../images/cyn_red.png","../images/blu_wht.png","../images/org_blu.png","../images/gry_blk.png","../images/pnk_blu.png"],"mutagen_generator_assignment":[0,1],"goal":2,"start":4,"action_noise":0.15,"location_history":"[4,3,4,5,4,5,4,3,4,5,4,5,4,5,0,5,4,3,2]","action_history":"[0,0,1,1,1,1,0,0,0,1,1,1,1,0,0,1,0,1]","mutagen_history":"[0,0,1,1,1,1,0,0,0,1,1,1,1,0,0,1,0,1]","location_rts":"[1539,582,292,466,303,457,267,280,298,270,398,268,336,251,358,221,99,411]","trial_type":"fractal-mutation","trial_index":63,"time_elapsed":4354897,"internal_node_id":"0.0-5.0-9.0"},{"group":"hexagon_bi","fractal_assignment":["../images/ylw_slt.png","../images/cyn_red.png","../images/blu_wht.png","../images/org_blu.png","../images/gry_blk.png","../images/pnk_blu.png"],"mutagen_generator_assignment":[0,1],"goal":0,"start":2,"action_noise":0.15,"location_history":"[2,3,4,5,4,3,2,3,4,3,2,1,2,1,0]","action_history":"[0,1,1,1,0,1,1,0,0,1,0,0,0,1]","mutagen_history":"[0,1,1,1,0,1,1,0,0,1,0,0,0,1]","location_rts":"[51412,741,405,881,433,775,652,315,338,10694,361,272,253,293]","trial_type":"fractal-mutation","trial_index":64,"time_elapsed":4441084,"internal_node_id":"0.0-5.0-10.0"},{"group":"hexagon_bi","fractal_assignment":["../images/ylw_slt.png","../images/cyn_red.png","../images/blu_wht.png","../images/org_blu.png","../images/gry_blk.png","../images/pnk_blu.png"],"mutagen_generator_assignment":[0,1],"goal":1,"start":0,"action_noise":0.15,"location_history":"[0,5,4,5,4,5,0,5,0,1]","action_history":"[0,0,1,1,1,0,0,0,1]","mutagen_history":"[0,0,1,1,1,0,0,0,1]","location_rts":"[3596,478,427,9780,557,207,271,320,285]","trial_type":"fractal-mutation","trial_index":65,"time_elapsed":4470783,"internal_node_id":"0.0-5.0-11.0"},{"group":"hexagon_bi","fractal_assignment":["../images/ylw_slt.png","../images/cyn_red.png","../images/blu_wht.png","../images/org_blu.png","../images/gry_blk.png","../images/pnk_blu.png"],"mutagen_generator_assignment":[0,1],"goal":3,"start":1,"action_noise":0.15,"location_history":"[1,0,5,4,5,0,5,0,1,0,1,2,1,0,1,2,1,2,3]","action_history":"[1,0,1,1,0,0,0,1,1,1,0,0,1,1,0,0,0,1]","mutagen_history":"[1,0,1,1,0,0,0,1,1,1,0,0,1,1,0,0,0,1]","location_rts":"[930,614,608,563,415,520,404,269,1020,1576,513,776,669,438,270,389,401,248]","trial_type":"fractal-mutation","trial_index":66,"time_elapsed":4503444,"internal_node_id":"0.0-5.0-12.0"},{"group":"hexagon_bi","fractal_assignment":["../images/ylw_slt.png","../images/cyn_red.png","../images/blu_wht.png","../images/org_blu.png","../images/gry_blk.png","../images/pnk_blu.png"],"mutagen_generator_assignment":[0,1],"goal":5,"start":3,"action_noise":0.15,"location_history":"[3,2,1,2,1,0,1,0,5]","action_history":"[1,0,0,0,1,1,1,0]","mutagen_history":"[1,0,0,0,1,1,1,0]","location_rts":"[420,598,438,490,266,405,327,270]","trial_type":"fractal-mutation","trial_index":67,"time_elapsed":4518404,"internal_node_id":"0.0-5.0-13.0"},{"group":"hexagon_bi","fractal_assignment":["../images/ylw_slt.png","../images/cyn_red.png","../images/blu_wht.png","../images/org_blu.png","../images/gry_blk.png","../images/pnk_blu.png"],"mutagen_generator_assignment":[0,1],"goal":4,"start":5,"action_noise":0.15,"location_history":"[5,4]","action_history":"[1]","mutagen_history":"[1]","location_rts":"[289]","trial_type":"fractal-mutation","trial_index":68,"time_elapsed":4523227,"internal_node_id":"0.0-5.0-14.0"},{"group":"hexagon_bi","fractal_assignment":["../images/ylw_slt.png","../images/cyn_red.png","../images/blu_wht.png","../images/org_blu.png","../images/gry_blk.png","../images/pnk_blu.png"],"mutagen_generator_assignment":[0,1],"goal":0,"start":4,"action_noise":0.15,"location_history":"[4,5,0]","action_history":"[1,0]","mutagen_history":"[1,0]","location_rts":"[746,601]","trial_type":"fractal-mutation","trial_index":69,"time_elapsed":4530139,"internal_node_id":"0.0-5.0-15.0"},{"group":"hexagon_bi","fractal_assignment":["../images/ylw_slt.png","../images/cyn_red.png","../images/blu_wht.png","../images/org_blu.png","../images/gry_blk.png","../images/pnk_blu.png"],"mutagen_generator_assignment":[0,1],"goal":3,"start":0,"action_noise":0.15,"location_history":"[0,5,0,5,4,5,4,3]","action_history":"[0,1,0,1,1,0,0]","mutagen_history":"[0,1,0,1,1,0,0]","location_rts":"[430,508,769,371,606,662,296]","trial_type":"fractal-mutation","trial_index":70,"time_elapsed":4544496,"internal_node_id":"0.0-5.0-16.0"},{"group":"hexagon_bi","fractal_assignment":["../images/ylw_slt.png","../images/cyn_red.png","../images/blu_wht.png","../images/org_blu.png","../images/gry_blk.png","../images/pnk_blu.png"],"mutagen_generator_assignment":[0,1],"goal":1,"start":3,"action_noise":0.15,"location_history":"[3,2,3,4,3,4,3,4,5,4,3,2,3,2,3,2,1]","action_history":"[1,0,0,1,1,1,0,1,0,0,1,1,1,1,1,0]","mutagen_history":"[1,0,0,1,1,1,0,1,0,0,1,1,1,1,1,0]","location_rts":"[540,451,663,648,512,373,230,704,309,421,287,277,482,315,374,240]","trial_type":"fractal-mutation","trial_index":71,"time_elapsed":4571302,"internal_node_id":"0.0-5.0-17.0"},{"group":"hexagon_bi","fractal_assignment":["../images/ylw_slt.png","../images/cyn_red.png","../images/blu_wht.png","../images/org_blu.png","../images/gry_blk.png","../images/pnk_blu.png"],"mutagen_generator_assignment":[0,1],"goal":5,"start":1,"action_noise":0.15,"location_history":"[1,0,1,2,3,4,3,2,1,0,5]","action_history":"[0,1,1,0,0,0,1,1,1,0]","mutagen_history":"[0,1,1,0,0,0,1,1,1,0]","location_rts":"[1862,443,849,576,559,409,296,269,346,214]","trial_type":"fractal-mutation","trial_index":72,"time_elapsed":4590931,"internal_node_id":"0.0-5.0-18.0"},{"group":"hexagon_bi","fractal_assignment":["../images/ylw_slt.png","../images/cyn_red.png","../images/blu_wht.png","../images/org_blu.png","../images/gry_blk.png","../images/pnk_blu.png"],"mutagen_generator_assignment":[0,1],"goal":2,"start":5,"action_noise":0.15,"location_history":"[5,4,3,2]","action_history":"[0,0,1]","mutagen_history":"[0,0,1]","location_rts":"[810,597,751]","trial_type":"fractal-mutation","trial_index":73,"time_elapsed":4599691,"internal_node_id":"0.0-5.0-19.0"},{"group":"hexagon_bi","fractal_assignment":["../images/ylw_slt.png","../images/cyn_red.png","../images/blu_wht.png","../images/org_blu.png","../images/gry_blk.png","../images/pnk_blu.png"],"mutagen_generator_assignment":[0,1],"goal":4,"start":2,"action_noise":0.15,"location_history":"[2,1,2,3,2,1,2,3,2,1,2,1,0,1,2,3,2,3,2,1,2,1,0,1,2,1,2,3,4]","action_history":"[0,0,1,1,0,1,1,1,0,0,0,1,1,0,0,1,1,1,0,0,0,1,1,0,0,0,1,0]","mutagen_history":"[0,0,1,1,0,1,1,1,0,0,0,1,1,0,0,1,1,1,0,0,0,1,1,0,0,0,1,0]","location_rts":"[776,496,326,410,453,437,306,404,264,351,366,376,411,591,391,234,242,268,279,425,424,313,587,442,617,555,359,755]","trial_type":"fractal-mutation","trial_index":74,"time_elapsed":4643876,"internal_node_id":"0.0-5.0-20.0"},{"group":"hexagon_bi","fractal_assignment":["../images/ylw_slt.png","../images/cyn_red.png","../images/blu_wht.png","../images/org_blu.png","../images/gry_blk.png","../images/pnk_blu.png"],"mutagen_generator_assignment":[0,1],"goal":1,"start":4,"action_noise":0.15,"location_history":"[4,5,4,3,4,3,2,3,2,1]","action_history":"[1,1,0,0,0,1,1,1,0]","mutagen_history":"[1,1,0,0,0,1,1,1,0]","location_rts":"[474,364,245,304,321,244,260,403,155]","trial_type":"fractal-mutation","trial_index":75,"time_elapsed":4659426,"internal_node_id":"0.0-5.0-21.0"},{"group":"hexagon_bi","fractal_assignment":["../images/ylw_slt.png","../images/cyn_red.png","../images/blu_wht.png","../images/org_blu.png","../images/gry_blk.png","../images/pnk_blu.png"],"mutagen_generator_assignment":[0,1],"goal":3,"start":1,"action_noise":0.15,"location_history":"[1,0,5,4,5,4,3]","action_history":"[1,0,0,1,1,0]","mutagen_history":"[1,0,0,1,1,0]","location_rts":"[489,327,368,266,352,262]","trial_type":"fractal-mutation","trial_index":76,"time_elapsed":4671193,"internal_node_id":"0.0-5.0-22.0"},{"group":"hexagon_bi","fractal_assignment":["../images/ylw_slt.png","../images/cyn_red.png","../images/blu_wht.png","../images/org_blu.png","../images/gry_blk.png","../images/pnk_blu.png"],"mutagen_generator_assignment":[0,1],"goal":2,"start":3,"action_noise":0.15,"location_history":"[3,2]","action_history":"[0]","mutagen_history":"[0]","location_rts":"[732]","trial_type":"fractal-mutation","trial_index":77,"time_elapsed":4676452,"internal_node_id":"0.0-5.0-23.0"},{"group":"hexagon_bi","fractal_assignment":["../images/ylw_slt.png","../images/cyn_red.png","../images/blu_wht.png","../images/org_blu.png","../images/gry_blk.png","../images/pnk_blu.png"],"mutagen_generator_assignment":[0,1],"goal":0,"start":2,"action_noise":0.15,"location_history":"[2,1,2,1,2,3,4,3,4,5,4,3,4,5,4,5,0]","action_history":"[1,0,0,1,1,1,0,0,1,1,0,0,1,1,1,0]","mutagen_history":"[1,0,0,1,1,1,0,0,1,1,0,0,1,1,1,0]","location_rts":"[745,419,318,211,222,283,359,301,282,273,277,709,298,451,268,47]","trial_type":"fractal-mutation","trial_index":78,"time_elapsed":4701911,"internal_node_id":"0.0-5.0-24.0"},{"group":"hexagon_bi","fractal_assignment":["../images/ylw_slt.png","../images/cyn_red.png","../images/blu_wht.png","../images/org_blu.png","../images/gry_blk.png","../images/pnk_blu.png"],"mutagen_generator_assignment":[0,1],"goal":5,"start":0,"action_noise":0.15,"location_history":"[0,5]","action_history":"[1]","mutagen_history":"[1]","location_rts":"[522]","trial_type":"fractal-mutation","trial_index":79,"time_elapsed":4706967,"internal_node_id":"0.0-5.0-25.0"},{"group":"hexagon_bi","fractal_assignment":["../images/ylw_slt.png","../images/cyn_red.png","../images/blu_wht.png","../images/org_blu.png","../images/gry_blk.png","../images/pnk_blu.png"],"mutagen_generator_assignment":[0,1],"goal":2,"start":5,"action_noise":0.15,"location_history":"[5,4,5,4,5,4,5,0,5,0,1,2]","action_history":"[1,1,1,1,1,1,1,0,0,1,0]","mutagen_history":"[1,1,1,1,1,1,1,0,0,1,0]","location_rts":"[283,6,5,13,15,76,66,62,80,37,16]","trial_type":"fractal-mutation","trial_index":80,"time_elapsed":4722473,"internal_node_id":"0.0-5.0-26.0"},{"group":"hexagon_bi","fractal_assignment":["../images/ylw_slt.png","../images/cyn_red.png","../images/blu_wht.png","../images/org_blu.png","../images/gry_blk.png","../images/pnk_blu.png"],"mutagen_generator_assignment":[0,1],"goal":3,"start":2,"action_noise":0.15,"location_history":"[2,1,2,3]","action_history":"[0,0,1]","mutagen_history":"[0,0,1]","location_rts":"[136,25,161]","trial_type":"fractal-mutation","trial_index":81,"time_elapsed":4729390,"internal_node_id":"0.0-5.0-27.0"},{"group":"hexagon_bi","fractal_assignment":["../images/ylw_slt.png","../images/cyn_red.png","../images/blu_wht.png","../images/org_blu.png","../images/gry_blk.png","../images/pnk_blu.png"],"mutagen_generator_assignment":[0,1],"goal":0,"start":3,"action_noise":0.15,"location_history":"[3,4,3,2,3,4,3,4,3,4,5,4,5,4,5,0]","action_history":"[0,0,1,1,0,0,0,0,0,1,1,1,1,0,1]","mutagen_history":"[0,0,1,1,0,0,0,0,0,1,1,1,1,0,1]","location_rts":"[69,111,23,25,7,26,50,48,163,66,78,67,62,30,71]","trial_type":"fractal-mutation","trial_index":82,"time_elapsed":4749229,"internal_node_id":"0.0-5.0-28.0"},{"group":"hexagon_bi","fractal_assignment":["../images/ylw_slt.png","../images/cyn_red.png","../images/blu_wht.png","../images/org_blu.png","../images/gry_blk.png","../images/pnk_blu.png"],"mutagen_generator_assignment":[0,1],"goal":1,"start":0,"action_noise":0.15,"location_history":"[0,1]","action_history":"[1]","mutagen_history":"[1]","location_rts":"[299]","trial_type":"fractal-mutation","trial_index":83,"time_elapsed":4754059,"internal_node_id":"0.0-5.0-29.0"},{"group":"hexagon_bi","fractal_assignment":["../images/ylw_slt.png","../images/cyn_red.png","../images/blu_wht.png","../images/org_blu.png","../images/gry_blk.png","../images/pnk_blu.png"],"mutagen_generator_assignment":[0,1],"goal":4,"start":1,"action_noise":0.15,"location_history":"[1,2,1,2,3,2,3,4]","action_history":"[0,0,0,1,1,1,0]","mutagen_history":"[0,0,0,1,1,1,0]","location_rts":"[51,10,101,63,54,91,40]","trial_type":"fractal-mutation","trial_index":84,"time_elapsed":4765183,"internal_node_id":"0.0-5.0-30.0"},{"group":"hexagon_bi","fractal_assignment":["../images/ylw_slt.png","../images/cyn_red.png","../images/blu_wht.png","../images/org_blu.png","../images/gry_blk.png","../images/pnk_blu.png"],"mutagen_generator_assignment":[0,1],"goal":5,"start":4,"action_noise":0.15,"location_history":"[4,5]","action_history":"[1]","mutagen_history":"[1]","location_rts":"[27]","trial_type":"fractal-mutation","trial_index":85,"time_elapsed":4769745,"internal_node_id":"0.0-5.0-31.0"},{"group":"hexagon_bi","fractal_assignment":["../images/ylw_slt.png","../images/cyn_red.png","../images/blu_wht.png","../images/org_blu.png","../images/gry_blk.png","../images/pnk_blu.png"],"mutagen_generator_assignment":[0,1],"goal":0,"start":5,"action_noise":0.15,"location_history":"[5,0]","action_history":"[0]","mutagen_history":"[0]","location_rts":"[121]","trial_type":"fractal-mutation","trial_index":86,"time_elapsed":4774395,"internal_node_id":"0.0-5.0-32.0"},{"group":"hexagon_bi","fractal_assignment":["../images/ylw_slt.png","../images/cyn_red.png","../images/blu_wht.png","../images/org_blu.png","../images/gry_blk.png","../images/pnk_blu.png"],"mutagen_generator_assignment":[0,1],"goal":3,"start":0,"action_noise":0.15,"location_history":"[0,1,0,1,0,5,0,1,2,3]","action_history":"[1,1,1,1,0,1,1,0,1]","mutagen_history":"[1,1,1,1,0,1,1,0,1]","location_rts":"[12,32,108,64,5337,15482,185,143,255]","trial_type":"fractal-mutation","trial_index":87,"time_elapsed":4808797,"internal_node_id":"0.0-5.0-33.0"},{"group":"hexagon_bi","fractal_assignment":["../images/ylw_slt.png","../images/cyn_red.png","../images/blu_wht.png","../images/org_blu.png","../images/gry_blk.png","../images/pnk_blu.png"],"mutagen_generator_assignment":[0,1],"goal":1,"start":3,"action_noise":0.15,"location_history":"[3,4,3,2,3,4,5,4,5,4,3,4,3,4,5,4,5,0,5,0,1]","action_history":"[1,0,1,0,1,1,1,1,1,0,0,0,1,1,1,0,0,0,0,1]","mutagen_history":"[1,0,1,0,1,1,1,1,1,0,0,0,1,1,1,0,0,0,0,1]","location_rts":"[497,25,73,29,93,43,34,61,76,14,67,127,63,68,166,97,15,159,111,47]","trial_type":"fractal-mutation","trial_index":88,"time_elapsed":4834794,"internal_node_id":"0.0-5.0-34.0"},{"group":"hexagon_bi","fractal_assignment":["../images/ylw_slt.png","../images/cyn_red.png","../images/blu_wht.png","../images/org_blu.png","../images/gry_blk.png","../images/pnk_blu.png"],"mutagen_generator_assignment":[0,1],"goal":2,"start":1,"action_noise":0.15,"location_history":"[1,0,5,0,5,4,3,2]","action_history":"[1,1,0,0,1,0,1]","mutagen_history":"[1,1,0,0,1,0,1]","location_rts":"[544,200,258,105,33,183,106]","trial_type":"fractal-mutation","trial_index":89,"time_elapsed":4846955,"internal_node_id":"0.0-5.0-35.0"},{"group":"hexagon_bi","fractal_assignment":["../images/ylw_slt.png","../images/cyn_red.png","../images/blu_wht.png","../images/org_blu.png","../images/gry_blk.png","../images/pnk_blu.png"],"mutagen_generator_assignment":[0,1],"goal":4,"start":2,"action_noise":0.15,"location_history":"[2,3,2,3,4]","action_history":"[1,1,0,0]","mutagen_history":"[1,1,0,0]","location_rts":"[451,85,202,61]","trial_type":"fractal-mutation","trial_index":90,"time_elapsed":4855369,"internal_node_id":"0.0-5.0-36.0"},{"group":"hexagon_bi","fractal_assignment":["../images/ylw_slt.png","../images/cyn_red.png","../images/blu_wht.png","../images/org_blu.png","../images/gry_blk.png","../images/pnk_blu.png"],"mutagen_generator_assignment":[0,1],"goal":5,"start":4,"action_noise":0.15,"location_history":"[4,3,4,5]","action_history":"[0,0,1]","mutagen_history":"[0,0,1]","location_rts":"[464,301,115]","trial_type":"fractal-mutation","trial_index":91,"time_elapsed":4862845,"internal_node_id":"0.0-5.0-37.0"},{"group":"hexagon_bi","fractal_assignment":["../images/ylw_slt.png","../images/cyn_red.png","../images/blu_wht.png","../images/org_blu.png","../images/gry_blk.png","../images/pnk_blu.png"],"mutagen_generator_assignment":[0,1],"goal":1,"start":5,"action_noise":0.15,"location_history":"[5,0,1]","action_history":"[0,1]","mutagen_history":"[0,1]","location_rts":"[350,427]","trial_type":"fractal-mutation","trial_index":92,"time_elapsed":4869187,"internal_node_id":"0.0-5.0-38.0"},{"group":"hexagon_bi","fractal_assignment":["../images/ylw_slt.png","../images/cyn_red.png","../images/blu_wht.png","../images/org_blu.png","../images/gry_blk.png","../images/pnk_blu.png"],"mutagen_generator_assignment":[0,1],"goal":4,"start":1,"action_noise":0.15,"location_history":"[1,2,1,2,3,2,3,4]","action_history":"[0,0,0,1,1,1,0]","mutagen_history":"[0,0,0,1,1,1,0]","location_rts":"[566,358,382,109,307,250,77]","trial_type":"fractal-mutation","trial_index":93,"time_elapsed":4881951,"internal_node_id":"0.0-5.0-39.0"},{"group":"hexagon_bi","fractal_assignment":["../images/ylw_slt.png","../images/cyn_red.png","../images/blu_wht.png","../images/org_blu.png","../images/gry_blk.png","../images/pnk_blu.png"],"mutagen_generator_assignment":[0,1],"goal":3,"start":4,"action_noise":0.15,"location_history":"[4,5,0,5,0,5,0,1,2,3]","action_history":"[1,0,1,1,0,0,1,0,1]","mutagen_history":"[1,0,1,1,0,0,1,0,1]","location_rts":"[353,120,122,44,143,41,76,78,107]","trial_type":"fractal-mutation","trial_index":94,"time_elapsed":4895799,"internal_node_id":"0.0-5.0-40.0"},{"group":"hexagon_bi","fractal_assignment":["../images/ylw_slt.png","../images/cyn_red.png","../images/blu_wht.png","../images/org_blu.png","../images/gry_blk.png","../images/pnk_blu.png"],"mutagen_generator_assignment":[0,1],"goal":2,"start":3,"action_noise":0.15,"location_history":"[3,2]","action_history":"[1]","mutagen_history":"[1]","location_rts":"[406]","trial_type":"fractal-mutation","trial_index":95,"time_elapsed":4900747,"internal_node_id":"0.0-5.0-41.0"},{"group":"hexagon_bi","fractal_assignment":["../images/ylw_slt.png","../images/cyn_red.png","../images/blu_wht.png","../images/org_blu.png","../images/gry_blk.png","../images/pnk_blu.png"],"mutagen_generator_assignment":[0,1],"goal":0,"start":2,"action_noise":0.15,"location_history":"[2,3,4,3,2,3,4,3,2,3,2,1,2,3,4,5,0]","action_history":"[1,0,0,1,1,0,0,1,1,0,0,0,1,0,1,0]","mutagen_history":"[1,0,0,1,1,0,0,1,1,0,0,0,1,0,1,0]","location_rts":"[328,385,354,416,516,513,380,448,693,500,6,61,41,98,12,9]","trial_type":"fractal-mutation","trial_index":96,"time_elapsed":4925474,"internal_node_id":"0.0-5.0-42.0"},{"group":"hexagon_bi","fractal_assignment":["../images/ylw_slt.png","../images/cyn_red.png","../images/blu_wht.png","../images/org_blu.png","../images/gry_blk.png","../images/pnk_blu.png"],"mutagen_generator_assignment":[0,1],"goal":5,"start":0,"action_noise":0.15,"location_history":"[0,5]","action_history":"[0]","mutagen_history":"[0]","location_rts":"[651]","trial_type":"fractal-mutation","trial_index":97,"time_elapsed":4930657,"internal_node_id":"0.0-5.0-43.0"},{"group":"hexagon_bi","fractal_assignment":["../images/ylw_slt.png","../images/cyn_red.png","../images/blu_wht.png","../images/org_blu.png","../images/gry_blk.png","../images/pnk_blu.png"],"mutagen_generator_assignment":[0,1],"goal":0,"start":5,"action_noise":0.15,"location_history":"[5,4,3,4,3,2,1,2,1,2,3,2,3,4,3,4,3,4,5,0]","action_history":"[1,0,0,0,1,1,0,0,0,0,1,1,0,1,0,0,0,1,0]","mutagen_history":"[1,0,0,0,1,1,0,0,0,0,1,1,0,1,0,0,0,1,0]","location_rts":"[445,342,264,257,107,300,305,100,178,435,571,440,293,591,309,226,532,310,1627]","trial_type":"fractal-mutation","trial_index":98,"time_elapsed":4961391,"internal_node_id":"0.0-5.0-44.0"},{"group":"hexagon_bi","fractal_assignment":["../images/ylw_slt.png","../images/cyn_red.png","../images/blu_wht.png","../images/org_blu.png","../images/gry_blk.png","../images/pnk_blu.png"],"mutagen_generator_assignment":[0,1],"goal":2,"start":0,"action_noise":0.15,"location_history":"[0,1,2]","action_history":"[1,0]","mutagen_history":"[1,0]","location_rts":"[463,296]","trial_type":"fractal-mutation","trial_index":99,"time_elapsed":4967715,"internal_node_id":"0.0-5.0-45.0"},{"group":"hexagon_bi","fractal_assignment":["../images/ylw_slt.png","../images/cyn_red.png","../images/blu_wht.png","../images/org_blu.png","../images/gry_blk.png","../images/pnk_blu.png"],"mutagen_generator_assignment":[0,1],"goal":4,"start":2,"action_noise":0.15,"location_history":"[2,1,0,1,2,1,2,3,2,1,2,3,4]","action_history":"[0,1,1,0,0,0,1,1,0,0,1,0]","mutagen_history":"[0,1,1,0,0,0,1,1,0,0,1,0]","location_rts":"[428,313,308,39,136,71,47,99,77,31,95,34]","trial_type":"fractal-mutation","trial_index":100,"time_elapsed":4985253,"internal_node_id":"0.0-5.0-46.0"},{"group":"hexagon_bi","fractal_assignment":["../images/ylw_slt.png","../images/cyn_red.png","../images/blu_wht.png","../images/org_blu.png","../images/gry_blk.png","../images/pnk_blu.png"],"mutagen_generator_assignment":[0,1],"goal":1,"start":4,"action_noise":0.15,"location_history":"[4,3,2,3,2,3,2,1]","action_history":"[0,0,1,1,1,1,0]","mutagen_history":"[0,0,1,1,1,1,0]","location_rts":"[516,5,132,313,234,77,79]","trial_type":"fractal-mutation","trial_index":101,"time_elapsed":4997335,"internal_node_id":"0.0-5.0-47.0"},{"group":"hexagon_bi","fractal_assignment":["../images/ylw_slt.png","../images/cyn_red.png","../images/blu_wht.png","../images/org_blu.png","../images/gry_blk.png","../images/pnk_blu.png"],"mutagen_generator_assignment":[0,1],"goal":5,"start":1,"action_noise":0.15,"location_history":"[1,0,5]","action_history":"[0,0]","mutagen_history":"[0,0]","location_rts":"[294,26]","trial_type":"fractal-mutation","trial_index":102,"time_elapsed":5003220,"internal_node_id":"0.0-5.0-48.0"},{"group":"hexagon_bi","fractal_assignment":["../images/ylw_slt.png","../images/cyn_red.png","../images/blu_wht.png","../images/org_blu.png","../images/gry_blk.png","../images/pnk_blu.png"],"mutagen_generator_assignment":[0,1],"goal":3,"start":5,"action_noise":0.15,"location_history":"[5,4,3]","action_history":"[1,0]","mutagen_history":"[1,0]","location_rts":"[432,320]","trial_type":"fractal-mutation","trial_index":103,"time_elapsed":5009541,"internal_node_id":"0.0-5.0-49.0"},{"view_history":"[{\"page_index\":0,\"viewing_time\":10034}]","rt":10034,"trial_type":"instructions","trial_index":104,"time_elapsed":5020577,"internal_node_id":"0.0-6.0"},{"rt":60646,"responses":"{\"Q0\":\"This is the first HIT i have ever taken that literally made me want to blow my brains out. \"}","trial_type":"survey-text","trial_index":105,"time_elapsed":5082228,"internal_node_id":"0.0-7.0"}]