[{"view_history":"[{\"page_index\":0,\"viewing_time\":2873},{\"page_index\":1,\"viewing_time\":6903}]","rt":9776,"trial_type":"instructions","trial_index":0,"time_elapsed":9778,"internal_node_id":"0.0-0.0"},{"view_history":"[{\"page_index\":0,\"viewing_time\":1782},{\"page_index\":1,\"viewing_time\":8975}]","rt":10758,"trial_type":"instructions","trial_index":1,"time_elapsed":21549,"internal_node_id":"0.0-1.0"},{"group":"hexagon_bi","room_assignment":["grey","red","yellow","green","purple","blue"],"door_color_assignment":["black","white"],"door_generator_assignment":[0,1],"goal":3,"start":5,"action_noise":0.15,"location_history":"[5,4,5,0,5,0,1,2,3]","action_history":"[1,0,0,0,0,1,0,1]","door_history":"[1,0,0,0,0,1,0,1]","location_rts":"[4495,2269,748,1855,633,493,2462,1365]","trial_type":"two-door-navigation","trial_index":2,"time_elapsed":47540,"internal_node_id":"0.0-2.0-0.0"},{"group":"hexagon_bi","room_assignment":["grey","red","yellow","green","purple","blue"],"door_color_assignment":["black","white"],"door_generator_assignment":[0,1],"goal":1,"start":3,"action_noise":0.15,"location_history":"[3,4,5,0,5,4,3,2,1]","action_history":"[0,1,0,0,1,0,1,0]","door_history":"[0,1,0,0,1,0,1,0]","location_rts":"[2005,1937,1433,1313,1413,1112,1171,1598]","trial_type":"two-door-navigation","trial_index":3,"time_elapsed":71089,"internal_node_id":"0.0-2.0-1.0"},{"group":"hexagon_bi","room_assignment":["grey","red","yellow","green","purple","blue"],"door_color_assignment":["black","white"],"door_generator_assignment":[0,1],"goal":0,"start":1,"action_noise":0.15,"location_history":"[1,2,3,4,5,0]","action_history":"[0,1,0,1,0]","door_history":"[0,1,0,1,0]","location_rts":"[2666,1696,681,945,975]","trial_type":"two-door-navigation","trial_index":4,"time_elapsed":86602,"internal_node_id":"0.0-2.0-2.0"},{"group":"hexagon_bi","room_assignment":["grey","red","yellow","green","purple","blue"],"door_color_assignment":["black","white"],"door_generator_assignment":[0,1],"goal":3,"start":0,"action_noise":0.15,"location_history":"[0,5,4,3]","action_history":"[0,1,0]","door_history":"[0,1,0]","location_rts":"[2473,1121,1072]","trial_type":"two-door-navigation","trial_index":5,"time_elapsed":97798,"internal_node_id":"0.0-2.0-3.0"},{"group":"hexagon_bi","room_assignment":["grey","red","yellow","green","purple","blue"],"door_color_assignment":["black","white"],"door_generator_assignment":[0,1],"goal":4,"start":3,"action_noise":0.15,"location_history":"[3,2,1,2,3,4]","action_history":"[0,0,0,1,0]","door_history":"[0,0,0,1,0]","location_rts":"[2418,1444,1061,1288,1234]","trial_type":"two-door-navigation","trial_index":6,"time_elapsed":113809,"internal_node_id":"0.0-2.0-4.0"},{"group":"hexagon_bi","room_assignment":["grey","red","yellow","green","purple","blue"],"door_color_assignment":["black","white"],"door_generator_assignment":[0,1],"goal":2,"start":4,"action_noise":0.15,"location_history":"[4,3,2]","action_history":"[0,1]","door_history":"[0,1]","location_rts":"[2630,1567]","trial_type":"two-door-navigation","trial_index":7,"time_elapsed":123525,"internal_node_id":"0.0-2.0-5.0"},{"group":"hexagon_bi","room_assignment":["grey","red","yellow","green","purple","blue"],"door_color_assignment":["black","white"],"door_generator_assignment":[0,1],"goal":1,"start":2,"action_noise":0.15,"location_history":"[2,1]","action_history":"[0]","door_history":"[0]","location_rts":"[1900]","trial_type":"two-door-navigation","trial_index":8,"time_elapsed":129936,"internal_node_id":"0.0-2.0-6.0"},{"group":"hexagon_bi","room_assignment":["grey","red","yellow","green","purple","blue"],"door_color_assignment":["black","white"],"door_generator_assignment":[0,1],"goal":5,"start":1,"action_noise":0.15,"location_history":"[1,2,1,2,3,4,5]","action_history":"[0,0,0,1,0,1]","door_history":"[0,0,0,1,0,1]","location_rts":"[686,827,1882,451,1249,1230]","trial_type":"two-door-navigation","trial_index":9,"time_elapsed":145808,"internal_node_id":"0.0-2.0-7.0"},{"group":"hexagon_bi","room_assignment":["grey","red","yellow","green","purple","blue"],"door_color_assignment":["black","white"],"door_generator_assignment":[0,1],"goal":4,"start":5,"action_noise":0.15,"location_history":"[5,0,1,2,1,0,1,0,5,4]","action_history":"[0,1,0,0,1,1,1,0,1]","door_history":"[0,1,0,0,1,1,1,0,1]","location_rts":"[972,1464,1239,641,754,680,671,404,2519]","trial_type":"two-door-navigation","trial_index":10,"time_elapsed":167740,"internal_node_id":"0.0-2.0-8.0"},{"group":"hexagon_bi","room_assignment":["grey","red","yellow","green","purple","blue"],"door_color_assignment":["black","white"],"door_generator_assignment":[0,1],"goal":2,"start":4,"action_noise":0.15,"location_history":"[4,3,4,5,4,5,0,5,4,3,4,3,2]","action_history":"[0,0,1,0,1,0,0,1,0,0,0,1]","door_history":"[0,0,1,0,1,0,0,1,0,0,0,1]","location_rts":"[1588,670,1068,541,870,1233,589,1226,1385,1343,661,372]","trial_type":"two-door-navigation","trial_index":11,"time_elapsed":194894,"internal_node_id":"0.0-2.0-9.0"},{"group":"hexagon_bi","room_assignment":["grey","red","yellow","green","purple","blue"],"door_color_assignment":["black","white"],"door_generator_assignment":[0,1],"goal":0,"start":2,"action_noise":0.15,"location_history":"[2,1,0]","action_history":"[0,1]","door_history":"[0,1]","location_rts":"[1939,1705]","trial_type":"two-door-navigation","trial_index":12,"time_elapsed":204064,"internal_node_id":"0.0-2.0-10.0"},{"group":"hexagon_bi","room_assignment":["grey","red","yellow","green","purple","blue"],"door_color_assignment":["black","white"],"door_generator_assignment":[0,1],"goal":1,"start":0,"action_noise":0.15,"location_history":"[0,1]","action_history":"[1]","door_history":"[1]","location_rts":"[114333]","trial_type":"two-door-navigation","trial_index":13,"time_elapsed":322907,"internal_node_id":"0.0-2.0-11.0"},{"group":"hexagon_bi","room_assignment":["grey","red","yellow","green","purple","blue"],"door_color_assignment":["black","white"],"door_generator_assignment":[0,1],"goal":3,"start":1,"action_noise":0.15,"location_history":"[1,0,1,2,1,2,3]","action_history":"[0,1,0,0,0,1]","door_history":"[0,1,0,0,0,1]","location_rts":"[1889,1224,1141,712,533,777]","trial_type":"two-door-navigation","trial_index":14,"time_elapsed":338754,"internal_node_id":"0.0-2.0-12.0"},{"group":"hexagon_bi","room_assignment":["grey","red","yellow","green","purple","blue"],"door_color_assignment":["black","white"],"door_generator_assignment":[0,1],"goal":5,"start":3,"action_noise":0.15,"location_history":"[3,4,5]","action_history":"[0,1]","door_history":"[0,1]","location_rts":"[2319,1531]","trial_type":"two-door-navigation","trial_index":15,"time_elapsed":348126,"internal_node_id":"0.0-2.0-13.0"},{"group":"hexagon_bi","room_assignment":["grey","red","yellow","green","purple","blue"],"door_color_assignment":["black","white"],"door_generator_assignment":[0,1],"goal":4,"start":5,"action_noise":0.15,"location_history":"[5,0,1,2,3,4]","action_history":"[0,1,0,1,0]","door_history":"[0,1,0,1,0]","location_rts":"[5082,988,1067,998,1275]","trial_type":"two-door-navigation","trial_index":16,"time_elapsed":366078,"internal_node_id":"0.0-2.0-14.0"},{"group":"hexagon_bi","room_assignment":["grey","red","yellow","green","purple","blue"],"door_color_assignment":["black","white"],"door_generator_assignment":[0,1],"goal":0,"start":4,"action_noise":0.15,"location_history":"[4,5,0]","action_history":"[1,0]","door_history":"[1,0]","location_rts":"[1066,1288]","trial_type":"two-door-navigation","trial_index":17,"time_elapsed":373947,"internal_node_id":"0.0-2.0-15.0"},{"group":"hexagon_bi","room_assignment":["grey","red","yellow","green","purple","blue"],"door_color_assignment":["black","white"],"door_generator_assignment":[0,1],"goal":3,"start":0,"action_noise":0.15,"location_history":"[0,5,4,3]","action_history":"[0,1,0]","door_history":"[0,1,0]","location_rts":"[1435,1191,1297]","trial_type":"two-door-navigation","trial_index":18,"time_elapsed":384396,"internal_node_id":"0.0-2.0-16.0"},{"group":"hexagon_bi","room_assignment":["grey","red","yellow","green","purple","blue"],"door_color_assignment":["black","white"],"door_generator_assignment":[0,1],"goal":1,"start":3,"action_noise":0.15,"location_history":"[3,4,3,4,5,0,1]","action_history":"[0,1,0,1,0,1]","door_history":"[0,1,0,1,0,1]","location_rts":"[1785,757,937,965,1141,993]","trial_type":"two-door-navigation","trial_index":19,"time_elapsed":400552,"internal_node_id":"0.0-2.0-17.0"},{"group":"hexagon_bi","room_assignment":["grey","red","yellow","green","purple","blue"],"door_color_assignment":["black","white"],"door_generator_assignment":[0,1],"goal":5,"start":1,"action_noise":0.15,"location_history":"[1,2,3,2,3,4,3,4,5]","action_history":"[0,1,0,1,0,1,0,1]","door_history":"[0,1,0,1,0,1,0,1]","location_rts":"[6373,1053,1182,1022,1292,1149,975,1162]","trial_type":"two-door-navigation","trial_index":20,"time_elapsed":426366,"internal_node_id":"0.0-2.0-18.0"},{"group":"hexagon_bi","room_assignment":["grey","red","yellow","green","purple","blue"],"door_color_assignment":["black","white"],"door_generator_assignment":[0,1],"goal":2,"start":5,"action_noise":0.15,"location_history":"[5,0,1,2]","action_history":"[0,1,0]","door_history":"[0,1,0]","location_rts":"[1913,994,1384]","trial_type":"two-door-navigation","trial_index":21,"time_elapsed":437182,"internal_node_id":"0.0-2.0-19.0"},{"group":"hexagon_bi","room_assignment":["grey","red","yellow","green","purple","blue"],"door_color_assignment":["black","white"],"door_generator_assignment":[0,1],"goal":4,"start":2,"action_noise":0.15,"location_history":"[2,1,0,5,4]","action_history":"[0,1,0,1]","door_history":"[0,1,0,1]","location_rts":"[1670,1281,986,1168]","trial_type":"two-door-navigation","trial_index":22,"time_elapsed":449833,"internal_node_id":"0.0-2.0-20.0"},{"group":"hexagon_bi","room_assignment":["grey","red","yellow","green","purple","blue"],"door_color_assignment":["black","white"],"door_generator_assignment":[0,1],"goal":1,"start":4,"action_noise":0.15,"location_history":"[4,5,4,3,2,1]","action_history":"[0,1,0,1,0]","door_history":"[0,1,0,1,0]","location_rts":"[1177,978,967,987,1057]","trial_type":"two-door-navigation","trial_index":23,"time_elapsed":463544,"internal_node_id":"0.0-2.0-21.0"},{"group":"hexagon_bi","room_assignment":["grey","red","yellow","green","purple","blue"],"door_color_assignment":["black","white"],"door_generator_assignment":[0,1],"goal":3,"start":1,"action_noise":0.15,"location_history":"[1,0,1,0,1,0,5,0,5,0,1,2,3]","action_history":"[0,1,0,1,1,0,1,0,0,1,0,1]","door_history":"[0,1,0,1,1,0,1,0,0,1,0,1]","location_rts":"[1785,1012,841,1010,853,1085,2084,957,551,1373,1103,1027]","trial_type":"two-door-navigation","trial_index":24,"time_elapsed":492836,"internal_node_id":"0.0-2.0-22.0"},{"group":"hexagon_bi","room_assignment":["grey","red","yellow","green","purple","blue"],"door_color_assignment":["black","white"],"door_generator_assignment":[0,1],"goal":2,"start":3,"action_noise":0.15,"location_history":"[3,4,5,4,3,2]","action_history":"[0,1,1,0,1]","door_history":"[0,1,1,0,1]","location_rts":"[7372,1445,881,815,1789]","trial_type":"two-door-navigation","trial_index":25,"time_elapsed":513684,"internal_node_id":"0.0-2.0-23.0"},{"group":"hexagon_bi","room_assignment":["grey","red","yellow","green","purple","blue"],"door_color_assignment":["black","white"],"door_generator_assignment":[0,1],"goal":0,"start":2,"action_noise":0.15,"location_history":"[2,1,2,1,0]","action_history":"[0,1,0,1]","door_history":"[0,1,0,1]","location_rts":"[799,2040,684,590]","trial_type":"two-door-navigation","trial_index":26,"time_elapsed":525346,"internal_node_id":"0.0-2.0-24.0"},{"group":"hexagon_bi","room_assignment":["grey","red","yellow","green","purple","blue"],"door_color_assignment":["black","white"],"door_generator_assignment":[0,1],"goal":5,"start":0,"action_noise":0.15,"location_history":"[0,5]","action_history":"[0]","door_history":"[0]","location_rts":"[1563]","trial_type":"two-door-navigation","trial_index":27,"time_elapsed":531417,"internal_node_id":"0.0-2.0-25.0"},{"group":"hexagon_bi","room_assignment":["grey","red","yellow","green","purple","blue"],"door_color_assignment":["black","white"],"door_generator_assignment":[0,1],"goal":2,"start":5,"action_noise":0.15,"location_history":"[5,0,1,2]","action_history":"[0,1,0]","door_history":"[0,1,0]","location_rts":"[1930,826,1342]","trial_type":"two-door-navigation","trial_index":28,"time_elapsed":542039,"internal_node_id":"0.0-2.0-26.0"},{"group":"hexagon_bi","room_assignment":["grey","red","yellow","green","purple","blue"],"door_color_assignment":["black","white"],"door_generator_assignment":[0,1],"goal":3,"start":2,"action_noise":0.15,"location_history":"[2,1,0,5,4,3]","action_history":"[0,1,0,1,0]","door_history":"[0,1,0,1,0]","location_rts":"[3038,940,1517,1187,1109]","trial_type":"two-door-navigation","trial_index":29,"time_elapsed":558389,"internal_node_id":"0.0-2.0-27.0"},{"group":"hexagon_bi","room_assignment":["grey","red","yellow","green","purple","blue"],"door_color_assignment":["black","white"],"door_generator_assignment":[0,1],"goal":0,"start":3,"action_noise":0.15,"location_history":"[3,4,5,0]","action_history":"[0,1,0]","door_history":"[0,1,0]","location_rts":"[1281,1046,2111]","trial_type":"two-door-navigation","trial_index":30,"time_elapsed":569344,"internal_node_id":"0.0-2.0-28.0"},{"group":"hexagon_bi","room_assignment":["grey","red","yellow","green","purple","blue"],"door_color_assignment":["black","white"],"door_generator_assignment":[0,1],"goal":1,"start":0,"action_noise":0.15,"location_history":"[0,5,4,3,2,1]","action_history":"[0,1,0,1,0]","door_history":"[0,1,0,1,0]","location_rts":"[1102,631,1042,1033,1160]","trial_type":"two-door-navigation","trial_index":31,"time_elapsed":582858,"internal_node_id":"0.0-2.0-29.0"},{"group":"hexagon_bi","room_assignment":["grey","red","yellow","green","purple","blue"],"door_color_assignment":["black","white"],"door_generator_assignment":[0,1],"goal":4,"start":1,"action_noise":0.15,"location_history":"[1,2,3,4]","action_history":"[0,1,0]","door_history":"[0,1,0]","location_rts":"[1351,1943,2028]","trial_type":"two-door-navigation","trial_index":32,"time_elapsed":594704,"internal_node_id":"0.0-2.0-30.0"},{"group":"hexagon_bi","room_assignment":["grey","red","yellow","green","purple","blue"],"door_color_assignment":["black","white"],"door_generator_assignment":[0,1],"goal":5,"start":4,"action_noise":0.15,"location_history":"[4,3,2,1,0,5]","action_history":"[0,1,0,1,0]","door_history":"[0,1,0,1,0]","location_rts":"[985,709,1217,982,823]","trial_type":"two-door-navigation","trial_index":33,"time_elapsed":607967,"internal_node_id":"0.0-2.0-31.0"},{"group":"hexagon_bi","room_assignment":["grey","red","yellow","green","purple","blue"],"door_color_assignment":["black","white"],"door_generator_assignment":[0,1],"goal":0,"start":5,"action_noise":0.15,"location_history":"[5,0]","action_history":"[0]","door_history":"[0]","location_rts":"[1194]","trial_type":"two-door-navigation","trial_index":34,"time_elapsed":613675,"internal_node_id":"0.0-2.0-32.0"},{"group":"hexagon_bi","room_assignment":["grey","red","yellow","green","purple","blue"],"door_color_assignment":["black","white"],"door_generator_assignment":[0,1],"goal":3,"start":0,"action_noise":0.15,"location_history":"[0,5,4,3]","action_history":"[0,1,0]","door_history":"[0,1,0]","location_rts":"[1230,227,1006]","trial_type":"two-door-navigation","trial_index":35,"time_elapsed":622663,"internal_node_id":"0.0-2.0-33.0"},{"group":"hexagon_bi","room_assignment":["grey","red","yellow","green","purple","blue"],"door_color_assignment":["black","white"],"door_generator_assignment":[0,1],"goal":1,"start":3,"action_noise":0.15,"location_history":"[3,2,1]","action_history":"[1,0]","door_history":"[1,0]","location_rts":"[1157,851]","trial_type":"two-door-navigation","trial_index":36,"time_elapsed":630186,"internal_node_id":"0.0-2.0-34.0"},{"group":"hexagon_bi","room_assignment":["grey","red","yellow","green","purple","blue"],"door_color_assignment":["black","white"],"door_generator_assignment":[0,1],"goal":2,"start":1,"action_noise":0.15,"location_history":"[1,2]","action_history":"[0]","door_history":"[0]","location_rts":"[3823]","trial_type":"two-door-navigation","trial_index":37,"time_elapsed":638527,"internal_node_id":"0.0-2.0-35.0"},{"group":"hexagon_bi","room_assignment":["grey","red","yellow","green","purple","blue"],"door_color_assignment":["black","white"],"door_generator_assignment":[0,1],"goal":4,"start":2,"action_noise":0.15,"location_history":"[2,3,4]","action_history":"[1,0]","door_history":"[1,0]","location_rts":"[4865,2986]","trial_type":"two-door-navigation","trial_index":38,"time_elapsed":651905,"internal_node_id":"0.0-2.0-36.0"},{"group":"hexagon_bi","room_assignment":["grey","red","yellow","green","purple","blue"],"door_color_assignment":["black","white"],"door_generator_assignment":[0,1],"goal":5,"start":4,"action_noise":0.15,"location_history":"[4,5]","action_history":"[1]","door_history":"[1]","location_rts":"[1632]","trial_type":"two-door-navigation","trial_index":39,"time_elapsed":658046,"internal_node_id":"0.0-2.0-37.0"},{"group":"hexagon_bi","room_assignment":["grey","red","yellow","green","purple","blue"],"door_color_assignment":["black","white"],"door_generator_assignment":[0,1],"goal":1,"start":5,"action_noise":0.15,"location_history":"[5,0,1]","action_history":"[0,1]","door_history":"[0,1]","location_rts":"[6032,1192]","trial_type":"two-door-navigation","trial_index":40,"time_elapsed":670787,"internal_node_id":"0.0-2.0-38.0"},{"group":"hexagon_bi","room_assignment":["grey","red","yellow","green","purple","blue"],"door_color_assignment":["black","white"],"door_generator_assignment":[0,1],"goal":4,"start":1,"action_noise":0.15,"location_history":"[1,2,1,0,1,2,1,0,5,0,5,4]","action_history":"[0,0,1,0,1,0,1,0,1,0,1]","door_history":"[0,0,1,0,1,0,1,0,1,0,1]","location_rts":"[882,747,824,704,643,601,601,937,554,1063,835]","trial_type":"two-door-navigation","trial_index":41,"time_elapsed":693772,"internal_node_id":"0.0-2.0-39.0"},{"group":"hexagon_bi","room_assignment":["grey","red","yellow","green","purple","blue"],"door_color_assignment":["black","white"],"door_generator_assignment":[0,1],"goal":3,"start":4,"action_noise":0.15,"location_history":"[4,3]","action_history":"[0]","door_history":"[0]","location_rts":"[2328]","trial_type":"two-door-navigation","trial_index":42,"time_elapsed":700611,"internal_node_id":"0.0-2.0-40.0"},{"group":"hexagon_bi","room_assignment":["grey","red","yellow","green","purple","blue"],"door_color_assignment":["black","white"],"door_generator_assignment":[0,1],"goal":2,"start":3,"action_noise":0.15,"location_history":"[3,4,5,0,5,0,1,0,5,4,3,2]","action_history":"[0,1,0,1,0,0,1,0,1,0,1]","door_history":"[0,1,0,1,0,0,1,0,1,0,1]","location_rts":"[6623,1388,1330,2123,717,3619,987,727,3659,1016,1927]","trial_type":"two-door-navigation","trial_index":43,"time_elapsed":739328,"internal_node_id":"0.0-2.0-41.0"},{"group":"hexagon_bi","room_assignment":["grey","red","yellow","green","purple","blue"],"door_color_assignment":["black","white"],"door_generator_assignment":[0,1],"goal":0,"start":2,"action_noise":0.15,"location_history":"[2,3,2,1,0]","action_history":"[0,1,0,1]","door_history":"[0,1,0,1]","location_rts":"[1049,1763,984,714]","trial_type":"two-door-navigation","trial_index":44,"time_elapsed":751384,"internal_node_id":"0.0-2.0-42.0"},{"group":"hexagon_bi","room_assignment":["grey","red","yellow","green","purple","blue"],"door_color_assignment":["black","white"],"door_generator_assignment":[0,1],"goal":5,"start":0,"action_noise":0.15,"location_history":"[0,5]","action_history":"[0]","door_history":"[0]","location_rts":"[760]","trial_type":"two-door-navigation","trial_index":45,"time_elapsed":756654,"internal_node_id":"0.0-2.0-43.0"},{"group":"hexagon_bi","room_assignment":["grey","red","yellow","green","purple","blue"],"door_color_assignment":["black","white"],"door_generator_assignment":[0,1],"goal":0,"start":5,"action_noise":0.15,"location_history":"[5,4,5,0]","action_history":"[0,1,0]","door_history":"[0,1,0]","location_rts":"[1155,606,710]","trial_type":"two-door-navigation","trial_index":46,"time_elapsed":765653,"internal_node_id":"0.0-2.0-44.0"},{"group":"hexagon_bi","room_assignment":["grey","red","yellow","green","purple","blue"],"door_color_assignment":["black","white"],"door_generator_assignment":[0,1],"goal":2,"start":0,"action_noise":0.15,"location_history":"[0,1,0,1,0,5,4,3,2]","action_history":"[0,1,0,1,0,1,0,1]","door_history":"[0,1,0,1,0,1,0,1]","location_rts":"[994,853,585,743,950,557,942,645]","trial_type":"two-door-navigation","trial_index":47,"time_elapsed":783487,"internal_node_id":"0.0-2.0-45.0"},{"group":"hexagon_bi","room_assignment":["grey","red","yellow","green","purple","blue"],"door_color_assignment":["black","white"],"door_generator_assignment":[0,1],"goal":4,"start":2,"action_noise":0.15,"location_history":"[2,1,0,5,4]","action_history":"[0,1,0,1]","door_history":"[0,1,0,1]","location_rts":"[2797,1067,738,1135]","trial_type":"two-door-navigation","trial_index":48,"time_elapsed":796760,"internal_node_id":"0.0-2.0-46.0"},{"group":"hexagon_bi","room_assignment":["grey","red","yellow","green","purple","blue"],"door_color_assignment":["black","white"],"door_generator_assignment":[0,1],"goal":1,"start":4,"action_noise":0.15,"location_history":"[4,3,2,1]","action_history":"[0,1,0]","door_history":"[0,1,0]","location_rts":"[4698,2373,991]","trial_type":"two-door-navigation","trial_index":49,"time_elapsed":811350,"internal_node_id":"0.0-2.0-47.0"},{"group":"hexagon_bi","room_assignment":["grey","red","yellow","green","purple","blue"],"door_color_assignment":["black","white"],"door_generator_assignment":[0,1],"goal":5,"start":1,"action_noise":0.15,"location_history":"[1,0,5]","action_history":"[1,0]","door_history":"[1,0]","location_rts":"[8380,707]","trial_type":"two-door-navigation","trial_index":50,"time_elapsed":825954,"internal_node_id":"0.0-2.0-48.0"},{"group":"hexagon_bi","room_assignment":["grey","red","yellow","green","purple","blue"],"door_color_assignment":["black","white"],"door_generator_assignment":[0,1],"goal":3,"start":5,"action_noise":0.15,"location_history":"[5,4,3]","action_history":"[1,0]","door_history":"[1,0]","location_rts":"[560,751]","trial_type":"two-door-navigation","trial_index":51,"time_elapsed":832790,"internal_node_id":"0.0-2.0-49.0"},{"view_history":"[{\"page_index\":0,\"viewing_time\":1996}]","rt":1996,"trial_type":"instructions","trial_index":52,"time_elapsed":835785,"internal_node_id":"0.0-3.0"},{"view_history":"[{\"page_index\":0,\"viewing_time\":1204},{\"page_index\":1,\"viewing_time\":2987}]","rt":4191,"trial_type":"instructions","trial_index":53,"time_elapsed":840977,"internal_node_id":"0.0-4.0"},{"group":"hexagon_tri","fractal_assignment":["../images/gry_blk.png","../images/org_blu.png","../images/cyn_red.png","../images/blu_wht.png","../images/ylw_slt.png","../images/pnk_blu.png"],"mutagen_generator_assignment":[1,0],"goal":3,"start":5,"action_noise":0.15,"location_history":"[5,0,5,4,2,3]","action_history":"[1,0,0,0,1]","mutagen_history":"[0,1,1,1,0]","location_rts":"[26675,1052,84,463,350]","trial_type":"fractal-mutation","trial_index":54,"time_elapsed":878351,"internal_node_id":"0.0-5.0-0.0"},{"group":"hexagon_tri","fractal_assignment":["../images/gry_blk.png","../images/org_blu.png","../images/cyn_red.png","../images/blu_wht.png","../images/ylw_slt.png","../images/pnk_blu.png"],"mutagen_generator_assignment":[1,0],"goal":1,"start":3,"action_noise":0.15,"location_history":"[3,4,2,3,2,3,2,3,4,2,1]","action_history":"[1,1,0,0,1,0,1,1,1,0]","mutagen_history":"[0,0,1,1,0,1,0,0,0,1]","location_rts":"[832,698,437,697,558,539,467,403,798,631]","trial_type":"fractal-mutation","trial_index":55,"time_elapsed":898287,"internal_node_id":"0.0-5.0-1.0"},{"group":"hexagon_tri","fractal_assignment":["../images/gry_blk.png","../images/org_blu.png","../images/cyn_red.png","../images/blu_wht.png","../images/ylw_slt.png","../images/pnk_blu.png"],"mutagen_generator_assignment":[1,0],"goal":0,"start":1,"action_noise":0.15,"location_history":"[1,5,0]","action_history":"[1,1]","mutagen_history":"[0,0]","location_rts":"[627,680]","trial_type":"fractal-mutation","trial_index":56,"time_elapsed":905155,"internal_node_id":"0.0-5.0-2.0"},{"group":"hexagon_tri","fractal_assignment":["../images/gry_blk.png","../images/org_blu.png","../images/cyn_red.png","../images/blu_wht.png","../images/ylw_slt.png","../images/pnk_blu.png"],"mutagen_generator_assignment":[1,0],"goal":3,"start":0,"action_noise":0.15,"location_history":"[0,1,5,4,2,1,5,4,2,3]","action_history":"[1,1,0,1,0,1,0,0,1]","mutagen_history":"[0,0,1,0,1,0,1,1,0]","location_rts":"[677,685,643,1686,487,1185,682,3937,3625]","trial_type":"fractal-mutation","trial_index":57,"time_elapsed":931547,"internal_node_id":"0.0-5.0-3.0"},{"group":"hexagon_tri","fractal_assignment":["../images/gry_blk.png","../images/org_blu.png","../images/cyn_red.png","../images/blu_wht.png","../images/ylw_slt.png","../images/pnk_blu.png"],"mutagen_generator_assignment":[1,0],"goal":4,"start":3,"action_noise":0.15,"location_history":"[3,4]","action_history":"[1]","mutagen_history":"[0]","location_rts":"[473]","trial_type":"fractal-mutation","trial_index":58,"time_elapsed":936551,"internal_node_id":"0.0-5.0-4.0"},{"group":"hexagon_tri","fractal_assignment":["../images/gry_blk.png","../images/org_blu.png","../images/cyn_red.png","../images/blu_wht.png","../images/ylw_slt.png","../images/pnk_blu.png"],"mutagen_generator_assignment":[1,0],"goal":2,"start":4,"action_noise":0.15,"location_history":"[4,2]","action_history":"[1]","mutagen_history":"[0]","location_rts":"[1624]","trial_type":"fractal-mutation","trial_index":59,"time_elapsed":942706,"internal_node_id":"0.0-5.0-5.0"},{"group":"hexagon_tri","fractal_assignment":["../images/gry_blk.png","../images/org_blu.png","../images/cyn_red.png","../images/blu_wht.png","../images/ylw_slt.png","../images/pnk_blu.png"],"mutagen_generator_assignment":[1,0],"goal":1,"start":2,"action_noise":0.15,"location_history":"[2,3,2,3,4,2,1]","action_history":"[1,0,1,0,1,0]","mutagen_history":"[0,1,0,1,0,1]","location_rts":"[830,1261,874,769,714,646]","trial_type":"fractal-mutation","trial_index":60,"time_elapsed":957496,"internal_node_id":"0.0-5.0-6.0"},{"group":"hexagon_tri","fractal_assignment":["../images/gry_blk.png","../images/org_blu.png","../images/cyn_red.png","../images/blu_wht.png","../images/ylw_slt.png","../images/pnk_blu.png"],"mutagen_generator_assignment":[1,0],"goal":5,"start":1,"action_noise":0.15,"location_history":"[1,5]","action_history":"[1]","mutagen_history":"[0]","location_rts":"[460]","trial_type":"fractal-mutation","trial_index":61,"time_elapsed":962492,"internal_node_id":"0.0-5.0-7.0"},{"group":"hexagon_tri","fractal_assignment":["../images/gry_blk.png","../images/org_blu.png","../images/cyn_red.png","../images/blu_wht.png","../images/ylw_slt.png","../images/pnk_blu.png"],"mutagen_generator_assignment":[1,0],"goal":4,"start":5,"action_noise":0.15,"location_history":"[5,0,1,3,2,3,2,1,3,4]","action_history":"[1,0,0,0,1,0,0,0,1]","mutagen_history":"[0,1,1,1,0,1,1,1,0]","location_rts":"[1760,1647,227,517,796,413,407,446,630]","trial_type":"fractal-mutation","trial_index":62,"time_elapsed":982156,"internal_node_id":"0.0-5.0-8.0"},{"group":"hexagon_tri","fractal_assignment":["../images/gry_blk.png","../images/org_blu.png","../images/cyn_red.png","../images/blu_wht.png","../images/ylw_slt.png","../images/pnk_blu.png"],"mutagen_generator_assignment":[1,0],"goal":2,"start":4,"action_noise":0.15,"location_history":"[4,2]","action_history":"[0]","mutagen_history":"[1]","location_rts":"[1329]","trial_type":"fractal-mutation","trial_index":63,"time_elapsed":988026,"internal_node_id":"0.0-5.0-9.0"},{"group":"hexagon_tri","fractal_assignment":["../images/gry_blk.png","../images/org_blu.png","../images/cyn_red.png","../images/blu_wht.png","../images/ylw_slt.png","../images/pnk_blu.png"],"mutagen_generator_assignment":[1,0],"goal":0,"start":2,"action_noise":0.15,"location_history":"[2,3,4,2,3,4,0]","action_history":"[1,1,1,1,1,0]","mutagen_history":"[0,0,0,0,0,1]","location_rts":"[2606,525,565,509,573,390]","trial_type":"fractal-mutation","trial_index":64,"time_elapsed":1002877,"internal_node_id":"0.0-5.0-10.0"},{"group":"hexagon_tri","fractal_assignment":["../images/gry_blk.png","../images/org_blu.png","../images/cyn_red.png","../images/blu_wht.png","../images/ylw_slt.png","../images/pnk_blu.png"],"mutagen_generator_assignment":[1,0],"goal":1,"start":0,"action_noise":0.15,"location_history":"[0,5,4,2,3,4,0,5,4,0,1]","action_history":"[1,0,1,1,1,0,0,1,0,1]","mutagen_history":"[0,1,0,0,0,1,1,0,1,0]","location_rts":"[1997,2722,471,916,850,426,908,550,366,423]","trial_type":"fractal-mutation","trial_index":65,"time_elapsed":1026337,"internal_node_id":"0.0-5.0-11.0"},{"group":"hexagon_tri","fractal_assignment":["../images/gry_blk.png","../images/org_blu.png","../images/cyn_red.png","../images/blu_wht.png","../images/ylw_slt.png","../images/pnk_blu.png"],"mutagen_generator_assignment":[1,0],"goal":3,"start":1,"action_noise":0.15,"location_history":"[1,5,0,1,3]","action_history":"[1,0,1,0]","mutagen_history":"[0,1,0,1]","location_rts":"[1318,495,428,441]","trial_type":"fractal-mutation","trial_index":66,"time_elapsed":1036648,"internal_node_id":"0.0-5.0-12.0"},{"group":"hexagon_tri","fractal_assignment":["../images/gry_blk.png","../images/org_blu.png","../images/cyn_red.png","../images/blu_wht.png","../images/ylw_slt.png","../images/pnk_blu.png"],"mutagen_generator_assignment":[1,0],"goal":5,"start":3,"action_noise":0.15,"location_history":"[3,4,0,1,3,2,1,3,4,2,3,4,0,5]","action_history":"[1,0,1,0,1,0,0,0,1,0,1,0,0]","mutagen_history":"[0,1,0,1,0,1,1,1,0,1,0,1,1]","location_rts":"[495,363,453,478,540,519,459,609,782,372,696,453,390]","trial_type":"fractal-mutation","trial_index":67,"time_elapsed":1060178,"internal_node_id":"0.0-5.0-13.0"},{"group":"hexagon_tri","fractal_assignment":["../images/gry_blk.png","../images/org_blu.png","../images/cyn_red.png","../images/blu_wht.png","../images/ylw_slt.png","../images/pnk_blu.png"],"mutagen_generator_assignment":[1,0],"goal":4,"start":5,"action_noise":0.15,"location_history":"[5,0,5,0,5,0,1,3,2,1,5,4]","action_history":"[1,0,1,0,1,1,0,0,0,1,0]","mutagen_history":"[0,1,0,1,0,0,1,1,1,0,1]","location_rts":"[415,655,479,493,727,456,651,500,698,616,424]","trial_type":"fractal-mutation","trial_index":68,"time_elapsed":1081151,"internal_node_id":"0.0-5.0-14.0"},{"group":"hexagon_tri","fractal_assignment":["../images/gry_blk.png","../images/org_blu.png","../images/cyn_red.png","../images/blu_wht.png","../images/ylw_slt.png","../images/pnk_blu.png"],"mutagen_generator_assignment":[1,0],"goal":0,"start":4,"action_noise":0.15,"location_history":"[4,2,1,5,4,2,1,5,4,2,1,5,4,2,1,3,4,0]","action_history":"[1,0,1,0,1,0,1,1,0,0,1,1,1,0,0,1,0]","mutagen_history":"[0,1,0,1,0,1,0,0,1,1,0,0,0,1,1,0,1]","location_rts":"[886,474,534,419,458,18,328,498,350,390,403,602,514,82,411,397,680]","trial_type":"fractal-mutation","trial_index":69,"time_elapsed":1109642,"internal_node_id":"0.0-5.0-15.0"},{"group":"hexagon_tri","fractal_assignment":["../images/gry_blk.png","../images/org_blu.png","../images/cyn_red.png","../images/blu_wht.png","../images/ylw_slt.png","../images/pnk_blu.png"],"mutagen_generator_assignment":[1,0],"goal":3,"start":0,"action_noise":0.15,"location_history":"[0,5,4,0,5,4,2,3]","action_history":"[0,0,1,1,0,1,1]","mutagen_history":"[1,1,0,0,1,0,0]","location_rts":"[1071,3662,405,487,483,1168,665]","trial_type":"fractal-mutation","trial_index":70,"time_elapsed":1128316,"internal_node_id":"0.0-5.0-16.0"},{"group":"hexagon_tri","fractal_assignment":["../images/gry_blk.png","../images/org_blu.png","../images/cyn_red.png","../images/blu_wht.png","../images/ylw_slt.png","../images/pnk_blu.png"],"mutagen_generator_assignment":[1,0],"goal":1,"start":3,"action_noise":0.15,"location_history":"[3,4,2,3,2,3,2,1]","action_history":"[1,0,1,0,1,0,1]","mutagen_history":"[0,1,0,1,0,1,0]","location_rts":"[109238,953,1035,1603,3193,914,821]","trial_type":"fractal-mutation","trial_index":71,"time_elapsed":1256922,"internal_node_id":"0.0-5.0-17.0"},{"group":"hexagon_tri","fractal_assignment":["../images/gry_blk.png","../images/org_blu.png","../images/cyn_red.png","../images/blu_wht.png","../images/ylw_slt.png","../images/pnk_blu.png"],"mutagen_generator_assignment":[1,0],"goal":5,"start":1,"action_noise":0.15,"location_history":"[1,3,2,1,5]","action_history":"[0,1,0,1]","mutagen_history":"[1,0,1,0]","location_rts":"[1799,1114,815,966]","trial_type":"fractal-mutation","trial_index":72,"time_elapsed":1269330,"internal_node_id":"0.0-5.0-18.0"},{"group":"hexagon_tri","fractal_assignment":["../images/gry_blk.png","../images/org_blu.png","../images/cyn_red.png","../images/blu_wht.png","../images/ylw_slt.png","../images/pnk_blu.png"],"mutagen_generator_assignment":[1,0],"goal":2,"start":5,"action_noise":0.15,"location_history":"[5,4,2]","action_history":"[0,1]","mutagen_history":"[1,0]","location_rts":"[2075,720]","trial_type":"fractal-mutation","trial_index":73,"time_elapsed":1277751,"internal_node_id":"0.0-5.0-19.0"},{"group":"hexagon_tri","fractal_assignment":["../images/gry_blk.png","../images/org_blu.png","../images/cyn_red.png","../images/blu_wht.png","../images/ylw_slt.png","../images/pnk_blu.png"],"mutagen_generator_assignment":[1,0],"goal":4,"start":2,"action_noise":0.15,"location_history":"[2,1,5,4]","action_history":"[0,1,0]","mutagen_history":"[1,0,1]","location_rts":"[2023,745,1416]","trial_type":"fractal-mutation","trial_index":74,"time_elapsed":1288605,"internal_node_id":"0.0-5.0-20.0"},{"group":"hexagon_tri","fractal_assignment":["../images/gry_blk.png","../images/org_blu.png","../images/cyn_red.png","../images/blu_wht.png","../images/ylw_slt.png","../images/pnk_blu.png"],"mutagen_generator_assignment":[1,0],"goal":1,"start":4,"action_noise":0.15,"location_history":"[4,0,5,4,0,5,0,5,0,5,0,5,0,1]","action_history":"[0,1,0,1,0,1,0,1,0,1,0,1,0]","mutagen_history":"[1,0,1,0,1,0,1,0,1,0,1,0,1]","location_rts":"[1676,1065,1576,1798,1553,1550,2194,2098,4188,1470,1962,2289,936]","trial_type":"fractal-mutation","trial_index":75,"time_elapsed":1330083,"internal_node_id":"0.0-5.0-21.0"},{"group":"hexagon_tri","fractal_assignment":["../images/gry_blk.png","../images/org_blu.png","../images/cyn_red.png","../images/blu_wht.png","../images/ylw_slt.png","../images/pnk_blu.png"],"mutagen_generator_assignment":[1,0],"goal":3,"start":1,"action_noise":0.15,"location_history":"[1,5,4,0,1,5,4,0,1,3]","action_history":"[1,0,0,1,0,1,0,1,0]","mutagen_history":"[0,1,1,0,1,0,1,0,1]","location_rts":"[1517,1066,771,1502,1393,902,644,1058,943]","trial_type":"fractal-mutation","trial_index":76,"time_elapsed":1352837,"internal_node_id":"0.0-5.0-22.0"},{"group":"hexagon_tri","fractal_assignment":["../images/gry_blk.png","../images/org_blu.png","../images/cyn_red.png","../images/blu_wht.png","../images/ylw_slt.png","../images/pnk_blu.png"],"mutagen_generator_assignment":[1,0],"goal":2,"start":3,"action_noise":0.15,"location_history":"[3,2]","action_history":"[0]","mutagen_history":"[1]","location_rts":"[1910]","trial_type":"fractal-mutation","trial_index":77,"time_elapsed":1359298,"internal_node_id":"0.0-5.0-23.0"},{"group":"hexagon_tri","fractal_assignment":["../images/gry_blk.png","../images/org_blu.png","../images/cyn_red.png","../images/blu_wht.png","../images/ylw_slt.png","../images/pnk_blu.png"],"mutagen_generator_assignment":[1,0],"goal":0,"start":2,"action_noise":0.15,"location_history":"[2,3,2,3,2,1,3,2,3,4,0]","action_history":"[1,0,1,0,0,1,0,0,1,0]","mutagen_history":"[0,1,0,1,1,0,1,1,0,1]","location_rts":"[2109,1204,2085,949,2105,2396,1122,2630,1226,1569]","trial_type":"fractal-mutation","trial_index":78,"time_elapsed":1390673,"internal_node_id":"0.0-5.0-24.0"},{"group":"hexagon_tri","fractal_assignment":["../images/gry_blk.png","../images/org_blu.png","../images/cyn_red.png","../images/blu_wht.png","../images/ylw_slt.png","../images/pnk_blu.png"],"mutagen_generator_assignment":[1,0],"goal":5,"start":0,"action_noise":0.15,"location_history":"[0,1,5]","action_history":"[1,0]","mutagen_history":"[0,1]","location_rts":"[1700,2436]","trial_type":"fractal-mutation","trial_index":79,"time_elapsed":1400405,"internal_node_id":"0.0-5.0-25.0"},{"group":"hexagon_tri","fractal_assignment":["../images/gry_blk.png","../images/org_blu.png","../images/cyn_red.png","../images/blu_wht.png","../images/ylw_slt.png","../images/pnk_blu.png"],"mutagen_generator_assignment":[1,0],"goal":2,"start":5,"action_noise":0.15,"location_history":"[5,0,5,4,2]","action_history":"[1,0,0,1]","mutagen_history":"[0,1,1,0]","location_rts":"[3147,2591,2132,469]","trial_type":"fractal-mutation","trial_index":80,"time_elapsed":1416440,"internal_node_id":"0.0-5.0-26.0"},{"group":"hexagon_tri","fractal_assignment":["../images/gry_blk.png","../images/org_blu.png","../images/cyn_red.png","../images/blu_wht.png","../images/ylw_slt.png","../images/pnk_blu.png"],"mutagen_generator_assignment":[1,0],"goal":3,"start":2,"action_noise":0.15,"location_history":"[2,1,5,4,2,3]","action_history":"[0,1,0,0,1]","mutagen_history":"[1,0,1,1,0]","location_rts":"[2405,3011,1974,4977,3208]","trial_type":"fractal-mutation","trial_index":81,"time_elapsed":1440784,"internal_node_id":"0.0-5.0-27.0"},{"group":"hexagon_tri","fractal_assignment":["../images/gry_blk.png","../images/org_blu.png","../images/cyn_red.png","../images/blu_wht.png","../images/ylw_slt.png","../images/pnk_blu.png"],"mutagen_generator_assignment":[1,0],"goal":0,"start":3,"action_noise":0.15,"location_history":"[3,2,3,2,3,2,3,2,3,2,3,2,1,5,4,2,1,5,0]","action_history":"[0,1,0,1,0,1,0,1,0,1,0,0,1,0,1,0,1,1]","mutagen_history":"[1,0,1,0,1,0,1,0,1,0,1,1,0,1,0,1,0,0]","location_rts":"[905,2577,3972,3421,1729,2617,2472,2129,1261,1755,1114,9466,2403,3448,3635,1081,4068,2085]","trial_type":"fractal-mutation","trial_index":82,"time_elapsed":1513410,"internal_node_id":"0.0-5.0-28.0"},{"group":"hexagon_tri","fractal_assignment":["../images/gry_blk.png","../images/org_blu.png","../images/cyn_red.png","../images/blu_wht.png","../images/ylw_slt.png","../images/pnk_blu.png"],"mutagen_generator_assignment":[1,0],"goal":1,"start":0,"action_noise":0.15,"location_history":"[0,5,4,0,1]","action_history":"[0,0,0,1]","mutagen_history":"[1,1,1,0]","location_rts":"[3831,16373,19564,4274]","trial_type":"fractal-mutation","trial_index":83,"time_elapsed":1565189,"internal_node_id":"0.0-5.0-29.0"},{"group":"hexagon_tri","fractal_assignment":["../images/gry_blk.png","../images/org_blu.png","../images/cyn_red.png","../images/blu_wht.png","../images/ylw_slt.png","../images/pnk_blu.png"],"mutagen_generator_assignment":[1,0],"goal":4,"start":1,"action_noise":0.15,"location_history":"[1,5,0,5,0,1,5,4]","action_history":"[0,1,0,1,0,1,0]","mutagen_history":"[1,0,1,0,1,0,1]","location_rts":"[2558,726,8025,1090,8044,8030,5932]","trial_type":"fractal-mutation","trial_index":84,"time_elapsed":1610461,"internal_node_id":"0.0-5.0-30.0"},{"group":"hexagon_tri","fractal_assignment":["../images/gry_blk.png","../images/org_blu.png","../images/cyn_red.png","../images/blu_wht.png","../images/ylw_slt.png","../images/pnk_blu.png"],"mutagen_generator_assignment":[1,0],"goal":5,"start":4,"action_noise":0.15,"location_history":"[4,0,5]","action_history":"[0,1]","mutagen_history":"[1,0]","location_rts":"[1754,942]","trial_type":"fractal-mutation","trial_index":85,"time_elapsed":1618764,"internal_node_id":"0.0-5.0-31.0"},{"group":"hexagon_tri","fractal_assignment":["../images/gry_blk.png","../images/org_blu.png","../images/cyn_red.png","../images/blu_wht.png","../images/ylw_slt.png","../images/pnk_blu.png"],"mutagen_generator_assignment":[1,0],"goal":0,"start":5,"action_noise":0.15,"location_history":"[5,0]","action_history":"[1]","mutagen_history":"[0]","location_rts":"[1848]","trial_type":"fractal-mutation","trial_index":86,"time_elapsed":1625169,"internal_node_id":"0.0-5.0-32.0"},{"group":"hexagon_tri","fractal_assignment":["../images/gry_blk.png","../images/org_blu.png","../images/cyn_red.png","../images/blu_wht.png","../images/ylw_slt.png","../images/pnk_blu.png"],"mutagen_generator_assignment":[1,0],"goal":3,"start":0,"action_noise":0.15,"location_history":"[0,5,0,5,0,5,4,2,3]","action_history":"[0,1,0,1,0,0,1,1]","mutagen_history":"[1,0,1,0,1,1,0,0]","location_rts":"[3595,2450,5565,4696,7324,6747,2231,1678]","trial_type":"fractal-mutation","trial_index":87,"time_elapsed":1671349,"internal_node_id":"0.0-5.0-33.0"},{"group":"hexagon_tri","fractal_assignment":["../images/gry_blk.png","../images/org_blu.png","../images/cyn_red.png","../images/blu_wht.png","../images/ylw_slt.png","../images/pnk_blu.png"],"mutagen_generator_assignment":[1,0],"goal":1,"start":3,"action_noise":0.15,"location_history":"[3,4,0,1]","action_history":"[1,0,1]","mutagen_history":"[0,1,0]","location_rts":"[3181,1161,4466]","trial_type":"fractal-mutation","trial_index":88,"time_elapsed":1686797,"internal_node_id":"0.0-5.0-34.0"},{"group":"hexagon_tri","fractal_assignment":["../images/gry_blk.png","../images/org_blu.png","../images/cyn_red.png","../images/blu_wht.png","../images/ylw_slt.png","../images/pnk_blu.png"],"mutagen_generator_assignment":[1,0],"goal":2,"start":1,"action_noise":0.15,"location_history":"[1,3,2]","action_history":"[1,0]","mutagen_history":"[0,1]","location_rts":"[1526,7422]","trial_type":"fractal-mutation","trial_index":89,"time_elapsed":1701364,"internal_node_id":"0.0-5.0-35.0"},{"group":"hexagon_tri","fractal_assignment":["../images/gry_blk.png","../images/org_blu.png","../images/cyn_red.png","../images/blu_wht.png","../images/ylw_slt.png","../images/pnk_blu.png"],"mutagen_generator_assignment":[1,0],"goal":4,"start":2,"action_noise":0.15,"location_history":"[2,1,5,0,5,0,5,0,5,4]","action_history":"[0,1,1,0,1,0,1,0,0]","mutagen_history":"[1,0,0,1,0,1,0,1,1]","location_rts":"[5653,4189,7823,1968,7239,801,2972,1015,5190]","trial_type":"fractal-mutation","trial_index":90,"time_elapsed":1751159,"internal_node_id":"0.0-5.0-36.0"},{"group":"hexagon_tri","fractal_assignment":["../images/gry_blk.png","../images/org_blu.png","../images/cyn_red.png","../images/blu_wht.png","../images/ylw_slt.png","../images/pnk_blu.png"],"mutagen_generator_assignment":[1,0],"goal":5,"start":4,"action_noise":0.15,"location_history":"[4,0,1,3,2,3,2,3,2,1,5]","action_history":"[0,0,0,0,1,0,1,0,0,1]","mutagen_history":"[1,1,1,1,0,1,0,1,1,0]","location_rts":"[1340,4530,2325,1096,763,1199,818,1615,2950,6517]","trial_type":"fractal-mutation","trial_index":91,"time_elapsed":1788334,"internal_node_id":"0.0-5.0-37.0"},{"group":"hexagon_tri","fractal_assignment":["../images/gry_blk.png","../images/org_blu.png","../images/cyn_red.png","../images/blu_wht.png","../images/ylw_slt.png","../images/pnk_blu.png"],"mutagen_generator_assignment":[1,0],"goal":1,"start":5,"action_noise":0.15,"location_history":"[5,4,0,5,4,2,3,4,2,1]","action_history":"[0,0,0,0,1,0,1,1,0]","mutagen_history":"[1,1,1,1,0,1,0,0,1]","location_rts":"[909,5923,2069,5242,2014,4331,609,687,540]","trial_type":"fractal-mutation","trial_index":92,"time_elapsed":1823681,"internal_node_id":"0.0-5.0-38.0"},{"group":"hexagon_tri","fractal_assignment":["../images/gry_blk.png","../images/org_blu.png","../images/cyn_red.png","../images/blu_wht.png","../images/ylw_slt.png","../images/pnk_blu.png"],"mutagen_generator_assignment":[1,0],"goal":4,"start":1,"action_noise":0.15,"location_history":"[1,3,4]","action_history":"[1,1]","mutagen_history":"[0,0]","location_rts":"[1083,707]","trial_type":"fractal-mutation","trial_index":93,"time_elapsed":1831083,"internal_node_id":"0.0-5.0-39.0"},{"group":"hexagon_tri","fractal_assignment":["../images/gry_blk.png","../images/org_blu.png","../images/cyn_red.png","../images/blu_wht.png","../images/ylw_slt.png","../images/pnk_blu.png"],"mutagen_generator_assignment":[1,0],"goal":3,"start":4,"action_noise":0.15,"location_history":"[4,0,5,0,1,5,0,1,3]","action_history":"[1,0,0,1,0,1,1,0]","mutagen_history":"[0,1,1,0,1,0,0,1]","location_rts":"[1820,2856,1274,5101,5406,546,656,2973]","trial_type":"fractal-mutation","trial_index":94,"time_elapsed":1863663,"internal_node_id":"0.0-5.0-40.0"},{"group":"hexagon_tri","fractal_assignment":["../images/gry_blk.png","../images/org_blu.png","../images/cyn_red.png","../images/blu_wht.png","../images/ylw_slt.png","../images/pnk_blu.png"],"mutagen_generator_assignment":[1,0],"goal":2,"start":3,"action_noise":0.15,"location_history":"[3,4,2]","action_history":"[1,1]","mutagen_history":"[0,0]","location_rts":"[595,515]","trial_type":"fractal-mutation","trial_index":95,"time_elapsed":1870376,"internal_node_id":"0.0-5.0-41.0"},{"group":"hexagon_tri","fractal_assignment":["../images/gry_blk.png","../images/org_blu.png","../images/cyn_red.png","../images/blu_wht.png","../images/ylw_slt.png","../images/pnk_blu.png"],"mutagen_generator_assignment":[1,0],"goal":0,"start":2,"action_noise":0.15,"location_history":"[2,1,5,4,0]","action_history":"[0,1,0,0]","mutagen_history":"[1,0,1,1]","location_rts":"[1107,1274,2457,777]","trial_type":"fractal-mutation","trial_index":96,"time_elapsed":1883706,"internal_node_id":"0.0-5.0-42.0"},{"group":"hexagon_tri","fractal_assignment":["../images/gry_blk.png","../images/org_blu.png","../images/cyn_red.png","../images/blu_wht.png","../images/ylw_slt.png","../images/pnk_blu.png"],"mutagen_generator_assignment":[1,0],"goal":5,"start":0,"action_noise":0.15,"location_history":"[0,1,5]","action_history":"[1,1]","mutagen_history":"[0,0]","location_rts":"[3558,2385]","trial_type":"fractal-mutation","trial_index":97,"time_elapsed":1895255,"internal_node_id":"0.0-5.0-43.0"},{"group":"hexagon_tri","fractal_assignment":["../images/gry_blk.png","../images/org_blu.png","../images/cyn_red.png","../images/blu_wht.png","../images/ylw_slt.png","../images/pnk_blu.png"],"mutagen_generator_assignment":[1,0],"goal":0,"start":5,"action_noise":0.15,"location_history":"[5,4,0]","action_history":"[0,0]","mutagen_history":"[1,1]","location_rts":"[1159,4324]","trial_type":"fractal-mutation","trial_index":98,"time_elapsed":1906353,"internal_node_id":"0.0-5.0-44.0"},{"group":"hexagon_tri","fractal_assignment":["../images/gry_blk.png","../images/org_blu.png","../images/cyn_red.png","../images/blu_wht.png","../images/ylw_slt.png","../images/pnk_blu.png"],"mutagen_generator_assignment":[1,0],"goal":2,"start":0,"action_noise":0.15,"location_history":"[0,5,0,5,0,5,0,5,0,5,0,1,3,4,0,5,4,2]","action_history":"[0,1,0,1,0,1,0,1,1,0,1,0,0,0,0,1,1]","mutagen_history":"[1,0,1,0,1,0,1,0,0,1,0,1,1,1,1,0,0]","location_rts":"[3061,6047,3869,4477,2174,999,2362,1134,1320,1785,1449,465,335,406,633,549,445]","trial_type":"fractal-mutation","trial_index":99,"time_elapsed":1959270,"internal_node_id":"0.0-5.0-45.0"},{"group":"hexagon_tri","fractal_assignment":["../images/gry_blk.png","../images/org_blu.png","../images/cyn_red.png","../images/blu_wht.png","../images/ylw_slt.png","../images/pnk_blu.png"],"mutagen_generator_assignment":[1,0],"goal":4,"start":2,"action_noise":0.15,"location_history":"[2,3,4]","action_history":"[0,1]","mutagen_history":"[1,0]","location_rts":"[15335,394]","trial_type":"fractal-mutation","trial_index":100,"time_elapsed":1980608,"internal_node_id":"0.0-5.0-46.0"},{"group":"hexagon_tri","fractal_assignment":["../images/gry_blk.png","../images/org_blu.png","../images/cyn_red.png","../images/blu_wht.png","../images/ylw_slt.png","../images/pnk_blu.png"],"mutagen_generator_assignment":[1,0],"goal":1,"start":4,"action_noise":0.15,"location_history":"[4,0,1]","action_history":"[0,1]","mutagen_history":"[1,0]","location_rts":"[27032,528]","trial_type":"fractal-mutation","trial_index":101,"time_elapsed":2013763,"internal_node_id":"0.0-5.0-47.0"},{"group":"hexagon_tri","fractal_assignment":["../images/gry_blk.png","../images/org_blu.png","../images/cyn_red.png","../images/blu_wht.png","../images/ylw_slt.png","../images/pnk_blu.png"],"mutagen_generator_assignment":[1,0],"goal":5,"start":1,"action_noise":0.15,"location_history":"[1,3,4,0,1,5]","action_history":"[0,1,0,1,1]","mutagen_history":"[1,0,1,0,0]","location_rts":"[4597,3609,644,711,661]","trial_type":"fractal-mutation","trial_index":102,"time_elapsed":2032770,"internal_node_id":"0.0-5.0-48.0"},{"group":"hexagon_tri","fractal_assignment":["../images/gry_blk.png","../images/org_blu.png","../images/cyn_red.png","../images/blu_wht.png","../images/ylw_slt.png","../images/pnk_blu.png"],"mutagen_generator_assignment":[1,0],"goal":3,"start":5,"action_noise":0.15,"location_history":"[5,4,2,1,5,0,5,4,0,1,5,4,0,1,3]","action_history":"[0,1,0,1,1,0,0,0,1,1,0,0,1,0]","mutagen_history":"[1,0,1,0,0,1,1,1,0,0,1,1,0,1]","location_rts":"[2783,7424,4190,1522,772,903,534,624,373,5445,963,6813,2934,5337]","trial_type":"fractal-mutation","trial_index":103,"time_elapsed":2091630,"internal_node_id":"0.0-5.0-49.0"},{"view_history":"[{\"page_index\":0,\"viewing_time\":4891}]","rt":4891,"trial_type":"instructions","trial_index":104,"time_elapsed":2097525,"internal_node_id":"0.0-6.0"},{"rt":4254,"responses":"{\"Q0\":\"no\"}","trial_type":"survey-text","trial_index":105,"time_elapsed":2102794,"internal_node_id":"0.0-7.0"}]