[{"view_history":"[{\"page_index\":0,\"viewing_time\":1778},{\"page_index\":1,\"viewing_time\":14644}]","rt":16423,"trial_type":"instructions","trial_index":0,"time_elapsed":16424,"internal_node_id":"0.0-0.0"},{"view_history":"[{\"page_index\":0,\"viewing_time\":5911},{\"page_index\":1,\"viewing_time\":3670}]","rt":9581,"trial_type":"instructions","trial_index":1,"time_elapsed":27006,"internal_node_id":"0.0-1.0"},{"group":"hexagon_tri","room_assignment":["blue","red","green","purple","yellow","grey"],"door_color_assignment":["black","white"],"door_generator_assignment":[0,1],"goal":3,"start":5,"action_noise":0.15,"location_history":"[5,0,5,4,2,3]","action_history":"[1,0,0,1,1]","door_history":"[1,0,0,1,1]","location_rts":"[5607,756,402,598,647]","trial_type":"two-door-navigation","trial_index":2,"time_elapsed":43632,"internal_node_id":"0.0-2.0-0.0"},{"group":"hexagon_tri","room_assignment":["blue","red","green","purple","yellow","grey"],"door_color_assignment":["black","white"],"door_generator_assignment":[0,1],"goal":1,"start":3,"action_noise":0.15,"location_history":"[3,2,3,2,1]","action_history":"[0,1,0,0]","door_history":"[0,1,0,0]","location_rts":"[3757,596,688,316]","trial_type":"two-door-navigation","trial_index":3,"time_elapsed":56581,"internal_node_id":"0.0-2.0-1.0"},{"group":"hexagon_tri","room_assignment":["blue","red","green","purple","yellow","grey"],"door_color_assignment":["black","white"],"door_generator_assignment":[0,1],"goal":0,"start":1,"action_noise":0.15,"location_history":"[1,3,4,0]","action_history":"[0,1,1]","door_history":"[0,1,1]","location_rts":"[2240,601,384]","trial_type":"two-door-navigation","trial_index":4,"time_elapsed":66371,"internal_node_id":"0.0-2.0-2.0"},{"group":"hexagon_tri","room_assignment":["blue","red","green","purple","yellow","grey"],"door_color_assignment":["black","white"],"door_generator_assignment":[0,1],"goal":3,"start":0,"action_noise":0.15,"location_history":"[0,1,3]","action_history":"[0,0]","door_history":"[0,0]","location_rts":"[4019,553]","trial_type":"two-door-navigation","trial_index":5,"time_elapsed":76502,"internal_node_id":"0.0-2.0-3.0"},{"group":"hexagon_tri","room_assignment":["blue","red","green","purple","yellow","grey"],"door_color_assignment":["black","white"],"door_generator_assignment":[0,1],"goal":4,"start":3,"action_noise":0.15,"location_history":"[3,4]","action_history":"[1]","door_history":"[1]","location_rts":"[9158]","trial_type":"two-door-navigation","trial_index":6,"time_elapsed":90185,"internal_node_id":"0.0-2.0-4.0"},{"group":"hexagon_tri","room_assignment":["blue","red","green","purple","yellow","grey"],"door_color_assignment":["black","white"],"door_generator_assignment":[0,1],"goal":2,"start":4,"action_noise":0.15,"location_history":"[4,0,1,3,2]","action_history":"[0,1,0,0]","door_history":"[0,1,0,0]","location_rts":"[1004,596,862,319]","trial_type":"two-door-navigation","trial_index":7,"time_elapsed":100555,"internal_node_id":"0.0-2.0-5.0"},{"group":"hexagon_tri","room_assignment":["blue","red","green","purple","yellow","grey"],"door_color_assignment":["black","white"],"door_generator_assignment":[0,1],"goal":1,"start":2,"action_noise":0.15,"location_history":"[2,1]","action_history":"[0]","door_history":"[0]","location_rts":"[6841]","trial_type":"two-door-navigation","trial_index":8,"time_elapsed":111921,"internal_node_id":"0.0-2.0-6.0"},{"group":"hexagon_tri","room_assignment":["blue","red","green","purple","yellow","grey"],"door_color_assignment":["black","white"],"door_generator_assignment":[0,1],"goal":5,"start":1,"action_noise":0.15,"location_history":"[1,5]","action_history":"[1]","door_history":"[1]","location_rts":"[10543]","trial_type":"two-door-navigation","trial_index":9,"time_elapsed":126995,"internal_node_id":"0.0-2.0-7.0"},{"group":"hexagon_tri","room_assignment":["blue","red","green","purple","yellow","grey"],"door_color_assignment":["black","white"],"door_generator_assignment":[0,1],"goal":4,"start":5,"action_noise":0.15,"location_history":"[5,4]","action_history":"[0]","door_history":"[0]","location_rts":"[4438]","trial_type":"two-door-navigation","trial_index":10,"time_elapsed":135959,"internal_node_id":"0.0-2.0-8.0"},{"group":"hexagon_tri","room_assignment":["blue","red","green","purple","yellow","grey"],"door_color_assignment":["black","white"],"door_generator_assignment":[0,1],"goal":2,"start":4,"action_noise":0.15,"location_history":"[4,2]","action_history":"[0]","door_history":"[0]","location_rts":"[2210]","trial_type":"two-door-navigation","trial_index":11,"time_elapsed":142694,"internal_node_id":"0.0-2.0-9.0"},{"group":"hexagon_tri","room_assignment":["blue","red","green","purple","yellow","grey"],"door_color_assignment":["black","white"],"door_generator_assignment":[0,1],"goal":0,"start":2,"action_noise":0.15,"location_history":"[2,3,2,1,3,4,2,3,4,2,3,4,0]","action_history":"[1,0,0,0,0,1,0,0,1,1,1,0]","door_history":"[1,0,0,0,0,1,0,0,1,1,1,0]","location_rts":"[699,685,415,400,515,372,580,463,329,255,397,652]","trial_type":"two-door-navigation","trial_index":12,"time_elapsed":164220,"internal_node_id":"0.0-2.0-10.0"},{"group":"hexagon_tri","room_assignment":["blue","red","green","purple","yellow","grey"],"door_color_assignment":["black","white"],"door_generator_assignment":[0,1],"goal":1,"start":0,"action_noise":0.15,"location_history":"[0,5,0,5,4,2,1]","action_history":"[0,1,0,0,0,0]","door_history":"[0,1,0,0,0,0]","location_rts":"[567,389,382,398,1368,794]","trial_type":"two-door-navigation","trial_index":13,"time_elapsed":177747,"internal_node_id":"0.0-2.0-11.0"},{"group":"hexagon_tri","room_assignment":["blue","red","green","purple","yellow","grey"],"door_color_assignment":["black","white"],"door_generator_assignment":[0,1],"goal":3,"start":1,"action_noise":0.15,"location_history":"[1,3]","action_history":"[0]","door_history":"[0]","location_rts":"[755]","trial_type":"two-door-navigation","trial_index":14,"time_elapsed":183024,"internal_node_id":"0.0-2.0-12.0"},{"group":"hexagon_tri","room_assignment":["blue","red","green","purple","yellow","grey"],"door_color_assignment":["black","white"],"door_generator_assignment":[0,1],"goal":5,"start":3,"action_noise":0.15,"location_history":"[3,2,3,4,2,1,3,4,0,5]","action_history":"[0,1,1,1,0,0,1,0,0]","door_history":"[0,1,1,1,0,0,1,0,0]","location_rts":"[392,377,418,448,426,418,455,356,607]","trial_type":"two-door-navigation","trial_index":15,"time_elapsed":199612,"internal_node_id":"0.0-2.0-13.0"},{"group":"hexagon_tri","room_assignment":["blue","red","green","purple","yellow","grey"],"door_color_assignment":["black","white"],"door_generator_assignment":[0,1],"goal":4,"start":5,"action_noise":0.15,"location_history":"[5,0,5,0,1,5,4]","action_history":"[1,0,1,1,1,0]","door_history":"[1,0,1,1,1,0]","location_rts":"[1045,515,456,294,439,736]","trial_type":"two-door-navigation","trial_index":16,"time_elapsed":212728,"internal_node_id":"0.0-2.0-14.0"},{"group":"hexagon_tri","room_assignment":["blue","red","green","purple","yellow","grey"],"door_color_assignment":["black","white"],"door_generator_assignment":[0,1],"goal":0,"start":4,"action_noise":0.15,"location_history":"[4,2,3,2,3,2,3,2,3,4,2,1,3,4,2,3,4,0]","action_history":"[1,1,0,1,0,0,0,1,1,1,1,1,1,1,1,1,0]","door_history":"[1,1,0,1,0,0,0,1,1,1,1,1,1,1,1,1,0]","location_rts":"[1436,368,1066,387,585,254,388,430,307,422,551,509,713,466,823,840,677]","trial_type":"two-door-navigation","trial_index":17,"time_elapsed":243812,"internal_node_id":"0.0-2.0-15.0"},{"group":"hexagon_tri","room_assignment":["blue","red","green","purple","yellow","grey"],"door_color_assignment":["black","white"],"door_generator_assignment":[0,1],"goal":3,"start":0,"action_noise":0.15,"location_history":"[0,1,3]","action_history":"[1,0]","door_history":"[1,0]","location_rts":"[533,348]","trial_type":"two-door-navigation","trial_index":18,"time_elapsed":250235,"internal_node_id":"0.0-2.0-16.0"},{"group":"hexagon_tri","room_assignment":["blue","red","green","purple","yellow","grey"],"door_color_assignment":["black","white"],"door_generator_assignment":[0,1],"goal":1,"start":3,"action_noise":0.15,"location_history":"[3,2,3,2,1]","action_history":"[0,1,0,0]","door_history":"[0,1,0,0]","location_rts":"[479,593,382,255]","trial_type":"two-door-navigation","trial_index":19,"time_elapsed":259536,"internal_node_id":"0.0-2.0-17.0"},{"group":"hexagon_tri","room_assignment":["blue","red","green","purple","yellow","grey"],"door_color_assignment":["black","white"],"door_generator_assignment":[0,1],"goal":5,"start":1,"action_noise":0.15,"location_history":"[1,3,4,0,5]","action_history":"[0,1,0,0]","door_history":"[0,1,0,0]","location_rts":"[339,822,497,606]","trial_type":"two-door-navigation","trial_index":20,"time_elapsed":269386,"internal_node_id":"0.0-2.0-18.0"},{"group":"hexagon_tri","room_assignment":["blue","red","green","purple","yellow","grey"],"door_color_assignment":["black","white"],"door_generator_assignment":[0,1],"goal":2,"start":5,"action_noise":0.15,"location_history":"[5,0,5,4,0,5,4,0,1,3,2]","action_history":"[1,0,0,1,0,0,0,1,1,0]","door_history":"[1,0,0,1,0,0,0,1,1,0]","location_rts":"[336,365,371,430,336,371,339,356,431,464]","trial_type":"two-door-navigation","trial_index":21,"time_elapsed":286910,"internal_node_id":"0.0-2.0-19.0"},{"group":"hexagon_tri","room_assignment":["blue","red","green","purple","yellow","grey"],"door_color_assignment":["black","white"],"door_generator_assignment":[0,1],"goal":4,"start":2,"action_noise":0.15,"location_history":"[2,3,2,3,4]","action_history":"[1,0,1,1]","door_history":"[1,0,1,1]","location_rts":"[344,89,385,362]","trial_type":"two-door-navigation","trial_index":22,"time_elapsed":295675,"internal_node_id":"0.0-2.0-20.0"},{"group":"hexagon_tri","room_assignment":["blue","red","green","purple","yellow","grey"],"door_color_assignment":["black","white"],"door_generator_assignment":[0,1],"goal":1,"start":4,"action_noise":0.15,"location_history":"[4,2,3,2,3,2,1]","action_history":"[0,1,0,1,0,0]","door_history":"[0,1,0,1,0,0]","location_rts":"[464,295,351,464,324,253]","trial_type":"two-door-navigation","trial_index":23,"time_elapsed":307452,"internal_node_id":"0.0-2.0-21.0"},{"group":"hexagon_tri","room_assignment":["blue","red","green","purple","yellow","grey"],"door_color_assignment":["black","white"],"door_generator_assignment":[0,1],"goal":3,"start":1,"action_noise":0.15,"location_history":"[1,3]","action_history":"[0]","door_history":"[0]","location_rts":"[736]","trial_type":"two-door-navigation","trial_index":24,"time_elapsed":312712,"internal_node_id":"0.0-2.0-22.0"},{"group":"hexagon_tri","room_assignment":["blue","red","green","purple","yellow","grey"],"door_color_assignment":["black","white"],"door_generator_assignment":[0,1],"goal":2,"start":3,"action_noise":0.15,"location_history":"[3,2]","action_history":"[0]","door_history":"[0]","location_rts":"[443]","trial_type":"two-door-navigation","trial_index":25,"time_elapsed":317679,"internal_node_id":"0.0-2.0-23.0"},{"group":"hexagon_tri","room_assignment":["blue","red","green","purple","yellow","grey"],"door_color_assignment":["black","white"],"door_generator_assignment":[0,1],"goal":0,"start":2,"action_noise":0.15,"location_history":"[2,3,2,1,5,4,2,1,3,2,3,4,0]","action_history":"[1,0,0,0,0,1,0,0,0,1,1,0]","door_history":"[1,0,0,0,0,1,0,0,0,1,1,0]","location_rts":"[1065,451,322,376,638,453,858,340,358,472,214,512]","trial_type":"two-door-navigation","trial_index":26,"time_elapsed":339487,"internal_node_id":"0.0-2.0-24.0"},{"group":"hexagon_tri","room_assignment":["blue","red","green","purple","yellow","grey"],"door_color_assignment":["black","white"],"door_generator_assignment":[0,1],"goal":5,"start":0,"action_noise":0.15,"location_history":"[0,1,5]","action_history":"[0,1]","door_history":"[0,1]","location_rts":"[448,406]","trial_type":"two-door-navigation","trial_index":27,"time_elapsed":345885,"internal_node_id":"0.0-2.0-25.0"},{"group":"hexagon_tri","room_assignment":["blue","red","green","purple","yellow","grey"],"door_color_assignment":["black","white"],"door_generator_assignment":[0,1],"goal":2,"start":5,"action_noise":0.15,"location_history":"[5,4,2]","action_history":"[0,1]","door_history":"[0,1]","location_rts":"[379,402]","trial_type":"two-door-navigation","trial_index":28,"time_elapsed":352212,"internal_node_id":"0.0-2.0-26.0"},{"group":"hexagon_tri","room_assignment":["blue","red","green","purple","yellow","grey"],"door_color_assignment":["black","white"],"door_generator_assignment":[0,1],"goal":3,"start":2,"action_noise":0.15,"location_history":"[2,3]","action_history":"[1]","door_history":"[1]","location_rts":"[533]","trial_type":"two-door-navigation","trial_index":29,"time_elapsed":357268,"internal_node_id":"0.0-2.0-27.0"},{"group":"hexagon_tri","room_assignment":["blue","red","green","purple","yellow","grey"],"door_color_assignment":["black","white"],"door_generator_assignment":[0,1],"goal":0,"start":3,"action_noise":0.15,"location_history":"[3,2,3,2,3,2,3,2,1,5,4,2,1,3,2,3,4,0]","action_history":"[0,1,0,0,0,1,1,1,1,0,1,0,0,0,1,0,0]","door_history":"[0,1,0,0,0,1,1,1,1,0,1,0,0,0,1,0,0]","location_rts":"[273,339,333,224,855,582,355,793,859,627,382,738,359,350,483,350,572]","trial_type":"two-door-navigation","trial_index":30,"time_elapsed":386587,"internal_node_id":"0.0-2.0-28.0"},{"group":"hexagon_tri","room_assignment":["blue","red","green","purple","yellow","grey"],"door_color_assignment":["black","white"],"door_generator_assignment":[0,1],"goal":1,"start":0,"action_noise":0.15,"location_history":"[0,5,4,2,1]","action_history":"[1,0,0,0]","door_history":"[1,0,0,0]","location_rts":"[2223,528,303,400]","trial_type":"two-door-navigation","trial_index":31,"time_elapsed":397624,"internal_node_id":"0.0-2.0-29.0"},{"group":"hexagon_tri","room_assignment":["blue","red","green","purple","yellow","grey"],"door_color_assignment":["black","white"],"door_generator_assignment":[0,1],"goal":4,"start":1,"action_noise":0.15,"location_history":"[1,3,4]","action_history":"[0,1]","door_history":"[0,1]","location_rts":"[504,363]","trial_type":"two-door-navigation","trial_index":32,"time_elapsed":404038,"internal_node_id":"0.0-2.0-30.0"},{"group":"hexagon_tri","room_assignment":["blue","red","green","purple","yellow","grey"],"door_color_assignment":["black","white"],"door_generator_assignment":[0,1],"goal":5,"start":4,"action_noise":0.15,"location_history":"[4,2,3,4,0,5]","action_history":"[0,1,1,0,0]","door_history":"[0,1,1,0,0]","location_rts":"[349,317,538,452,283]","trial_type":"two-door-navigation","trial_index":33,"time_elapsed":414603,"internal_node_id":"0.0-2.0-31.0"},{"group":"hexagon_tri","room_assignment":["blue","red","green","purple","yellow","grey"],"door_color_assignment":["black","white"],"door_generator_assignment":[0,1],"goal":0,"start":5,"action_noise":0.15,"location_history":"[5,0]","action_history":"[1]","door_history":"[1]","location_rts":"[2300]","trial_type":"two-door-navigation","trial_index":34,"time_elapsed":421428,"internal_node_id":"0.0-2.0-32.0"},{"group":"hexagon_tri","room_assignment":["blue","red","green","purple","yellow","grey"],"door_color_assignment":["black","white"],"door_generator_assignment":[0,1],"goal":3,"start":0,"action_noise":0.15,"location_history":"[0,5,0,1,3]","action_history":"[0,1,1,0]","door_history":"[0,1,1,0]","location_rts":"[1320,387,633,504]","trial_type":"two-door-navigation","trial_index":35,"time_elapsed":431853,"internal_node_id":"0.0-2.0-33.0"},{"group":"hexagon_tri","room_assignment":["blue","red","green","purple","yellow","grey"],"door_color_assignment":["black","white"],"door_generator_assignment":[0,1],"goal":1,"start":3,"action_noise":0.15,"location_history":"[3,4,2,1]","action_history":"[1,0,0]","door_history":"[1,0,0]","location_rts":"[2256,497,445]","trial_type":"two-door-navigation","trial_index":36,"time_elapsed":441617,"internal_node_id":"0.0-2.0-34.0"},{"group":"hexagon_tri","room_assignment":["blue","red","green","purple","yellow","grey"],"door_color_assignment":["black","white"],"door_generator_assignment":[0,1],"goal":2,"start":1,"action_noise":0.15,"location_history":"[1,5,4,0,5,0,1,5,4,2]","action_history":"[1,0,0,0,1,1,1,0,1]","door_history":"[1,0,0,0,1,1,1,0,1]","location_rts":"[713,346,206,401,401,252,515,353,390]","trial_type":"two-door-navigation","trial_index":37,"time_elapsed":457883,"internal_node_id":"0.0-2.0-35.0"},{"group":"hexagon_tri","room_assignment":["blue","red","green","purple","yellow","grey"],"door_color_assignment":["black","white"],"door_generator_assignment":[0,1],"goal":4,"start":2,"action_noise":0.15,"location_history":"[2,3,4]","action_history":"[1,1]","door_history":"[1,1]","location_rts":"[2226,303]","trial_type":"two-door-navigation","trial_index":38,"time_elapsed":465955,"internal_node_id":"0.0-2.0-36.0"},{"group":"hexagon_tri","room_assignment":["blue","red","green","purple","yellow","grey"],"door_color_assignment":["black","white"],"door_generator_assignment":[0,1],"goal":5,"start":4,"action_noise":0.15,"location_history":"[4,0,5]","action_history":"[0,0]","door_history":"[0,0]","location_rts":"[2211,289]","trial_type":"two-door-navigation","trial_index":39,"time_elapsed":474000,"internal_node_id":"0.0-2.0-37.0"},{"group":"hexagon_tri","room_assignment":["blue","red","green","purple","yellow","grey"],"door_color_assignment":["black","white"],"door_generator_assignment":[0,1],"goal":1,"start":5,"action_noise":0.15,"location_history":"[5,0,5,4,0,5,0,1]","action_history":"[1,0,0,0,0,1,1]","door_history":"[1,0,0,0,0,1,1]","location_rts":"[1164,431,302,300,361,396,299]","trial_type":"two-door-navigation","trial_index":40,"time_elapsed":487910,"internal_node_id":"0.0-2.0-38.0"},{"group":"hexagon_tri","room_assignment":["blue","red","green","purple","yellow","grey"],"door_color_assignment":["black","white"],"door_generator_assignment":[0,1],"goal":4,"start":1,"action_noise":0.15,"location_history":"[1,3,4]","action_history":"[0,1]","door_history":"[0,1]","location_rts":"[1206,620]","trial_type":"two-door-navigation","trial_index":41,"time_elapsed":495280,"internal_node_id":"0.0-2.0-39.0"},{"group":"hexagon_tri","room_assignment":["blue","red","green","purple","yellow","grey"],"door_color_assignment":["black","white"],"door_generator_assignment":[0,1],"goal":3,"start":4,"action_noise":0.15,"location_history":"[4,2,1,3]","action_history":"[1,0,0]","door_history":"[1,0,0]","location_rts":"[656,364,392]","trial_type":"two-door-navigation","trial_index":42,"time_elapsed":503257,"internal_node_id":"0.0-2.0-40.0"},{"group":"hexagon_tri","room_assignment":["blue","red","green","purple","yellow","grey"],"door_color_assignment":["black","white"],"door_generator_assignment":[0,1],"goal":2,"start":3,"action_noise":0.15,"location_history":"[3,4,0,5,4,2]","action_history":"[1,0,0,0,1]","door_history":"[1,0,0,0,1]","location_rts":"[562,382,538,445,824]","trial_type":"two-door-navigation","trial_index":43,"time_elapsed":514622,"internal_node_id":"0.0-2.0-41.0"},{"group":"hexagon_tri","room_assignment":["blue","red","green","purple","yellow","grey"],"door_color_assignment":["black","white"],"door_generator_assignment":[0,1],"goal":0,"start":2,"action_noise":0.15,"location_history":"[2,1,5,4,0]","action_history":"[0,1,0,0]","door_history":"[0,1,0,0]","location_rts":"[568,285,694,461]","trial_type":"two-door-navigation","trial_index":44,"time_elapsed":524225,"internal_node_id":"0.0-2.0-42.0"},{"group":"hexagon_tri","room_assignment":["blue","red","green","purple","yellow","grey"],"door_color_assignment":["black","white"],"door_generator_assignment":[0,1],"goal":5,"start":0,"action_noise":0.15,"location_history":"[0,1,5]","action_history":"[1,0]","door_history":"[1,0]","location_rts":"[1231,470]","trial_type":"two-door-navigation","trial_index":45,"time_elapsed":531469,"internal_node_id":"0.0-2.0-43.0"},{"group":"hexagon_tri","room_assignment":["blue","red","green","purple","yellow","grey"],"door_color_assignment":["black","white"],"door_generator_assignment":[0,1],"goal":0,"start":5,"action_noise":0.15,"location_history":"[5,0]","action_history":"[1]","door_history":"[1]","location_rts":"[1206]","trial_type":"two-door-navigation","trial_index":46,"time_elapsed":537197,"internal_node_id":"0.0-2.0-44.0"},{"group":"hexagon_tri","room_assignment":["blue","red","green","purple","yellow","grey"],"door_color_assignment":["black","white"],"door_generator_assignment":[0,1],"goal":2,"start":0,"action_noise":0.15,"location_history":"[0,5,4,2]","action_history":"[0,0,1]","door_history":"[0,0,1]","location_rts":"[997,427,316]","trial_type":"two-door-navigation","trial_index":47,"time_elapsed":545503,"internal_node_id":"0.0-2.0-45.0"},{"group":"hexagon_tri","room_assignment":["blue","red","green","purple","yellow","grey"],"door_color_assignment":["black","white"],"door_generator_assignment":[0,1],"goal":4,"start":2,"action_noise":0.15,"location_history":"[2,3,2,3,4]","action_history":"[1,0,1,1]","door_history":"[1,0,1,1]","location_rts":"[623,696,589,327]","trial_type":"two-door-navigation","trial_index":48,"time_elapsed":555327,"internal_node_id":"0.0-2.0-46.0"},{"group":"hexagon_tri","room_assignment":["blue","red","green","purple","yellow","grey"],"door_color_assignment":["black","white"],"door_generator_assignment":[0,1],"goal":1,"start":4,"action_noise":0.15,"location_history":"[4,2,1]","action_history":"[1,0]","door_history":"[1,0]","location_rts":"[935,709]","trial_type":"two-door-navigation","trial_index":49,"time_elapsed":562518,"internal_node_id":"0.0-2.0-47.0"},{"group":"hexagon_tri","room_assignment":["blue","red","green","purple","yellow","grey"],"door_color_assignment":["black","white"],"door_generator_assignment":[0,1],"goal":5,"start":1,"action_noise":0.15,"location_history":"[1,3,4,0,1,5]","action_history":"[0,1,0,0,0]","door_history":"[0,1,0,0,0]","location_rts":"[549,1167,413,227,1361]","trial_type":"two-door-navigation","trial_index":50,"time_elapsed":574837,"internal_node_id":"0.0-2.0-48.0"},{"group":"hexagon_tri","room_assignment":["blue","red","green","purple","yellow","grey"],"door_color_assignment":["black","white"],"door_generator_assignment":[0,1],"goal":3,"start":5,"action_noise":0.15,"location_history":"[5,0,1,3]","action_history":"[1,1,0]","door_history":"[1,1,0]","location_rts":"[1132,617,394]","trial_type":"two-door-navigation","trial_index":51,"time_elapsed":583548,"internal_node_id":"0.0-2.0-49.0"},{"view_history":"[{\"page_index\":0,\"viewing_time\":1209}]","rt":1209,"trial_type":"instructions","trial_index":52,"time_elapsed":585757,"internal_node_id":"0.0-3.0"},{"view_history":"[{\"page_index\":0,\"viewing_time\":2029},{\"page_index\":1,\"viewing_time\":1311}]","rt":3341,"trial_type":"instructions","trial_index":53,"time_elapsed":590099,"internal_node_id":"0.0-4.0"},{"group":"hexagon_tri","fractal_assignment":["../images/cyn_red.png","../images/gry_blk.png","../images/ylw_slt.png","../images/org_blu.png","../images/blu_wht.png","../images/pnk_blu.png"],"mutagen_generator_assignment":[1,0],"goal":3,"start":5,"action_noise":0.15,"location_history":"[5,0,5,4,0,1,3]","action_history":"[1,0,0,0,1,0]","mutagen_history":"[0,1,1,1,0,1]","location_rts":"[4983,115,9,444,475,435]","trial_type":"fractal-mutation","trial_index":54,"time_elapsed":606741,"internal_node_id":"0.0-5.0-0.0"},{"group":"hexagon_tri","fractal_assignment":["../images/cyn_red.png","../images/gry_blk.png","../images/ylw_slt.png","../images/org_blu.png","../images/blu_wht.png","../images/pnk_blu.png"],"mutagen_generator_assignment":[1,0],"goal":1,"start":3,"action_noise":0.15,"location_history":"[3,4,0,5,4,2,3,4,0,5,0,1]","action_history":"[1,0,0,0,1,1,0,0,0,1,1]","mutagen_history":"[0,1,1,1,0,0,1,1,1,0,0]","location_rts":"[432,523,364,407,431,301,367,526,508,267,504]","trial_type":"fractal-mutation","trial_index":55,"time_elapsed":626909,"internal_node_id":"0.0-5.0-1.0"},{"group":"hexagon_tri","fractal_assignment":["../images/cyn_red.png","../images/gry_blk.png","../images/ylw_slt.png","../images/org_blu.png","../images/blu_wht.png","../images/pnk_blu.png"],"mutagen_generator_assignment":[1,0],"goal":0,"start":1,"action_noise":0.15,"location_history":"[1,3,2,1,3,2,1,3,4,0]","action_history":"[0,1,0,0,0,1,0,0,0]","mutagen_history":"[1,0,1,1,1,0,1,1,1]","location_rts":"[639,414,359,389,510,404,427,395,520]","trial_type":"fractal-mutation","trial_index":56,"time_elapsed":644528,"internal_node_id":"0.0-5.0-2.0"},{"group":"hexagon_tri","fractal_assignment":["../images/cyn_red.png","../images/gry_blk.png","../images/ylw_slt.png","../images/org_blu.png","../images/blu_wht.png","../images/pnk_blu.png"],"mutagen_generator_assignment":[1,0],"goal":3,"start":0,"action_noise":0.15,"location_history":"[0,1,3]","action_history":"[1,0]","mutagen_history":"[0,1]","location_rts":"[1167,569]","trial_type":"fractal-mutation","trial_index":57,"time_elapsed":651958,"internal_node_id":"0.0-5.0-3.0"},{"group":"hexagon_tri","fractal_assignment":["../images/cyn_red.png","../images/gry_blk.png","../images/ylw_slt.png","../images/org_blu.png","../images/blu_wht.png","../images/pnk_blu.png"],"mutagen_generator_assignment":[1,0],"goal":4,"start":3,"action_noise":0.15,"location_history":"[3,2,1,5,0,5,4]","action_history":"[0,0,0,1,0,0]","mutagen_history":"[1,1,1,0,1,1]","location_rts":"[1322,396,1783,526,289,460]","trial_type":"fractal-mutation","trial_index":58,"time_elapsed":666879,"internal_node_id":"0.0-5.0-4.0"},{"group":"hexagon_tri","fractal_assignment":["../images/cyn_red.png","../images/gry_blk.png","../images/ylw_slt.png","../images/org_blu.png","../images/blu_wht.png","../images/pnk_blu.png"],"mutagen_generator_assignment":[1,0],"goal":2,"start":4,"action_noise":0.15,"location_history":"[4,0,1,5,0,1,3,2]","action_history":"[0,1,1,1,1,0,1]","mutagen_history":"[1,0,0,0,0,1,0]","location_rts":"[699,265,320,372,449,385,286]","trial_type":"fractal-mutation","trial_index":59,"time_elapsed":680786,"internal_node_id":"0.0-5.0-5.0"},{"group":"hexagon_tri","fractal_assignment":["../images/cyn_red.png","../images/gry_blk.png","../images/ylw_slt.png","../images/org_blu.png","../images/blu_wht.png","../images/pnk_blu.png"],"mutagen_generator_assignment":[1,0],"goal":1,"start":2,"action_noise":0.15,"location_history":"[2,3,2,3,4,0,5,0,5,0,5,4,2,1]","action_history":"[1,0,0,0,0,0,0,1,1,0,1,1,0]","mutagen_history":"[0,1,1,1,1,1,1,0,0,1,0,0,1]","location_rts":"[2017,524,689,556,504,434,509,646,580,426,548,446,505]","trial_type":"fractal-mutation","trial_index":60,"time_elapsed":707043,"internal_node_id":"0.0-5.0-6.0"},{"group":"hexagon_tri","fractal_assignment":["../images/cyn_red.png","../images/gry_blk.png","../images/ylw_slt.png","../images/org_blu.png","../images/blu_wht.png","../images/pnk_blu.png"],"mutagen_generator_assignment":[1,0],"goal":5,"start":1,"action_noise":0.15,"location_history":"[1,5]","action_history":"[1]","mutagen_history":"[0]","location_rts":"[1789]","trial_type":"fractal-mutation","trial_index":61,"time_elapsed":713427,"internal_node_id":"0.0-5.0-7.0"},{"group":"hexagon_tri","fractal_assignment":["../images/cyn_red.png","../images/gry_blk.png","../images/ylw_slt.png","../images/org_blu.png","../images/blu_wht.png","../images/pnk_blu.png"],"mutagen_generator_assignment":[1,0],"goal":4,"start":5,"action_noise":0.15,"location_history":"[5,4]","action_history":"[0]","mutagen_history":"[1]","location_rts":"[781]","trial_type":"fractal-mutation","trial_index":62,"time_elapsed":718831,"internal_node_id":"0.0-5.0-8.0"},{"group":"hexagon_tri","fractal_assignment":["../images/cyn_red.png","../images/gry_blk.png","../images/ylw_slt.png","../images/org_blu.png","../images/blu_wht.png","../images/pnk_blu.png"],"mutagen_generator_assignment":[1,0],"goal":2,"start":4,"action_noise":0.15,"location_history":"[4,0,1,5,0,5,4,2]","action_history":"[0,1,1,1,0,1,1]","mutagen_history":"[1,0,0,0,1,0,0]","location_rts":"[722,308,367,515,394,314,903]","trial_type":"fractal-mutation","trial_index":63,"time_elapsed":733600,"internal_node_id":"0.0-5.0-9.0"},{"group":"hexagon_tri","fractal_assignment":["../images/cyn_red.png","../images/gry_blk.png","../images/ylw_slt.png","../images/org_blu.png","../images/blu_wht.png","../images/pnk_blu.png"],"mutagen_generator_assignment":[1,0],"goal":0,"start":2,"action_noise":0.15,"location_history":"[2,1,5,4,0]","action_history":"[0,1,0,0]","mutagen_history":"[1,0,1,1]","location_rts":"[789,387,499,308]","trial_type":"fractal-mutation","trial_index":64,"time_elapsed":743544,"internal_node_id":"0.0-5.0-10.0"},{"group":"hexagon_tri","fractal_assignment":["../images/cyn_red.png","../images/gry_blk.png","../images/ylw_slt.png","../images/org_blu.png","../images/blu_wht.png","../images/pnk_blu.png"],"mutagen_generator_assignment":[1,0],"goal":1,"start":0,"action_noise":0.15,"location_history":"[0,1]","action_history":"[0]","mutagen_history":"[1]","location_rts":"[390]","trial_type":"fractal-mutation","trial_index":65,"time_elapsed":748572,"internal_node_id":"0.0-5.0-11.0"},{"group":"hexagon_tri","fractal_assignment":["../images/cyn_red.png","../images/gry_blk.png","../images/ylw_slt.png","../images/org_blu.png","../images/blu_wht.png","../images/pnk_blu.png"],"mutagen_generator_assignment":[1,0],"goal":3,"start":1,"action_noise":0.15,"location_history":"[1,3]","action_history":"[0]","mutagen_history":"[1]","location_rts":"[535]","trial_type":"fractal-mutation","trial_index":66,"time_elapsed":753697,"internal_node_id":"0.0-5.0-12.0"},{"group":"hexagon_tri","fractal_assignment":["../images/cyn_red.png","../images/gry_blk.png","../images/ylw_slt.png","../images/org_blu.png","../images/blu_wht.png","../images/pnk_blu.png"],"mutagen_generator_assignment":[1,0],"goal":5,"start":3,"action_noise":0.15,"location_history":"[3,4,0,5]","action_history":"[1,0,0]","mutagen_history":"[0,1,1]","location_rts":"[1404,461,396]","trial_type":"fractal-mutation","trial_index":67,"time_elapsed":762706,"internal_node_id":"0.0-5.0-13.0"},{"group":"hexagon_tri","fractal_assignment":["../images/cyn_red.png","../images/gry_blk.png","../images/ylw_slt.png","../images/org_blu.png","../images/blu_wht.png","../images/pnk_blu.png"],"mutagen_generator_assignment":[1,0],"goal":4,"start":5,"action_noise":0.15,"location_history":"[5,4]","action_history":"[0]","mutagen_history":"[1]","location_rts":"[1579]","trial_type":"fractal-mutation","trial_index":68,"time_elapsed":768868,"internal_node_id":"0.0-5.0-14.0"},{"group":"hexagon_tri","fractal_assignment":["../images/cyn_red.png","../images/gry_blk.png","../images/ylw_slt.png","../images/org_blu.png","../images/blu_wht.png","../images/pnk_blu.png"],"mutagen_generator_assignment":[1,0],"goal":0,"start":4,"action_noise":0.15,"location_history":"[4,2,1,3,2,1,3,2,3,4,2,3,4,0]","action_history":"[1,0,0,0,1,0,0,0,1,1,1,1,0]","mutagen_history":"[0,1,1,1,0,1,1,1,0,0,0,0,1]","location_rts":"[1001,432,519,882,434,365,498,376,2800,436,520,364,491]","trial_type":"fractal-mutation","trial_index":69,"time_elapsed":795662,"internal_node_id":"0.0-5.0-15.0"},{"group":"hexagon_tri","fractal_assignment":["../images/cyn_red.png","../images/gry_blk.png","../images/ylw_slt.png","../images/org_blu.png","../images/blu_wht.png","../images/pnk_blu.png"],"mutagen_generator_assignment":[1,0],"goal":3,"start":0,"action_noise":0.15,"location_history":"[0,5,4,0,1,5,0,1,3]","action_history":"[1,0,0,1,1,1,1,0]","mutagen_history":"[0,1,1,0,0,0,0,1]","location_rts":"[1405,571,758,1138,344,592,385,500]","trial_type":"fractal-mutation","trial_index":70,"time_elapsed":813499,"internal_node_id":"0.0-5.0-16.0"},{"group":"hexagon_tri","fractal_assignment":["../images/cyn_red.png","../images/gry_blk.png","../images/ylw_slt.png","../images/org_blu.png","../images/blu_wht.png","../images/pnk_blu.png"],"mutagen_generator_assignment":[1,0],"goal":1,"start":3,"action_noise":0.15,"location_history":"[3,4,0,5,0,5,0,5,0,1]","action_history":"[1,0,0,1,0,0,0,1,1]","mutagen_history":"[0,1,1,0,1,1,1,0,0]","location_rts":"[2599,578,442,520,552,1974012,873,500,758]","trial_type":"fractal-mutation","trial_index":71,"time_elapsed":2807688,"internal_node_id":"0.0-5.0-17.0"},{"group":"hexagon_tri","fractal_assignment":["../images/cyn_red.png","../images/gry_blk.png","../images/ylw_slt.png","../images/org_blu.png","../images/blu_wht.png","../images/pnk_blu.png"],"mutagen_generator_assignment":[1,0],"goal":5,"start":1,"action_noise":0.15,"location_history":"[1,3,2,3,2,1,3,2,3,4,2,1,3,2,1,3,2,3,2,3,2,1,3,2,3,4,2,1,3,4,2,1,3,2,1,5]","action_history":"[0,0,1,0,0,0,0,1,1,0,0,1,1,1,0,0,1,0,1,0,0,1,0,1,1,1,0,0,1,0,0,0,0,0,1]","mutagen_history":"[1,1,0,1,1,1,1,0,0,1,1,0,0,0,1,1,0,1,0,1,1,0,1,0,0,0,1,1,0,1,1,1,1,1,0]","location_rts":"[3377,777,422,419,568,482,492,391,321,420,435,571,662,356,375,468,529,413,317,356,340,230,574,549,233,437,468,915,842,711,354,272,174,402,623]","trial_type":"fractal-mutation","trial_index":72,"time_elapsed":2869254,"internal_node_id":"0.0-5.0-18.0"},{"group":"hexagon_tri","fractal_assignment":["../images/cyn_red.png","../images/gry_blk.png","../images/ylw_slt.png","../images/org_blu.png","../images/blu_wht.png","../images/pnk_blu.png"],"mutagen_generator_assignment":[1,0],"goal":2,"start":5,"action_noise":0.15,"location_history":"[5,0,1,5,4,0,5,4,0,5,0,1,5,4,0,5,0,5,0,5,4,2]","action_history":"[0,1,1,0,1,0,0,0,0,1,1,1,0,0,0,1,0,1,0,0,1]","mutagen_history":"[1,0,0,1,0,1,1,1,1,0,0,0,1,1,1,0,1,0,1,1,0]","location_rts":"[1597,431,484,445,542,376,248,295,453,158,287,386,510,366,387,677,254,40792,486,395,755]","trial_type":"fractal-mutation","trial_index":73,"time_elapsed":2946132,"internal_node_id":"0.0-5.0-19.0"},{"group":"hexagon_tri","fractal_assignment":["../images/cyn_red.png","../images/gry_blk.png","../images/ylw_slt.png","../images/org_blu.png","../images/blu_wht.png","../images/pnk_blu.png"],"mutagen_generator_assignment":[1,0],"goal":4,"start":2,"action_noise":0.15,"location_history":"[2,1,3,2,1,5,4]","action_history":"[0,1,0,0,0,0]","mutagen_history":"[1,0,1,1,1,1]","location_rts":"[3255,406,300,247,448,618]","trial_type":"fractal-mutation","trial_index":74,"time_elapsed":2961624,"internal_node_id":"0.0-5.0-20.0"},{"group":"hexagon_tri","fractal_assignment":["../images/cyn_red.png","../images/gry_blk.png","../images/ylw_slt.png","../images/org_blu.png","../images/blu_wht.png","../images/pnk_blu.png"],"mutagen_generator_assignment":[1,0],"goal":1,"start":4,"action_noise":0.15,"location_history":"[4,0,1]","action_history":"[0,1]","mutagen_history":"[1,0]","location_rts":"[402,245]","trial_type":"fractal-mutation","trial_index":75,"time_elapsed":2967971,"internal_node_id":"0.0-5.0-21.0"},{"group":"hexagon_tri","fractal_assignment":["../images/cyn_red.png","../images/gry_blk.png","../images/ylw_slt.png","../images/org_blu.png","../images/blu_wht.png","../images/pnk_blu.png"],"mutagen_generator_assignment":[1,0],"goal":3,"start":1,"action_noise":0.15,"location_history":"[1,3]","action_history":"[0]","mutagen_history":"[1]","location_rts":"[304]","trial_type":"fractal-mutation","trial_index":76,"time_elapsed":2972885,"internal_node_id":"0.0-5.0-22.0"},{"group":"hexagon_tri","fractal_assignment":["../images/cyn_red.png","../images/gry_blk.png","../images/ylw_slt.png","../images/org_blu.png","../images/blu_wht.png","../images/pnk_blu.png"],"mutagen_generator_assignment":[1,0],"goal":2,"start":3,"action_noise":0.15,"location_history":"[3,4,2]","action_history":"[1,1]","mutagen_history":"[0,0]","location_rts":"[790,435]","trial_type":"fractal-mutation","trial_index":77,"time_elapsed":2979769,"internal_node_id":"0.0-5.0-23.0"},{"group":"hexagon_tri","fractal_assignment":["../images/cyn_red.png","../images/gry_blk.png","../images/ylw_slt.png","../images/org_blu.png","../images/blu_wht.png","../images/pnk_blu.png"],"mutagen_generator_assignment":[1,0],"goal":0,"start":2,"action_noise":0.15,"location_history":"[2,1,3,2,3,2,3,4,0]","action_history":"[0,0,0,1,0,1,1,0]","mutagen_history":"[1,1,1,0,1,0,0,1]","location_rts":"[408,710,835,590,281,346,67,240]","trial_type":"fractal-mutation","trial_index":78,"time_elapsed":2995594,"internal_node_id":"0.0-5.0-24.0"},{"group":"hexagon_tri","fractal_assignment":["../images/cyn_red.png","../images/gry_blk.png","../images/ylw_slt.png","../images/org_blu.png","../images/blu_wht.png","../images/pnk_blu.png"],"mutagen_generator_assignment":[1,0],"goal":5,"start":0,"action_noise":0.15,"location_history":"[0,1,5]","action_history":"[1,1]","mutagen_history":"[0,0]","location_rts":"[1245,559]","trial_type":"fractal-mutation","trial_index":79,"time_elapsed":3003006,"internal_node_id":"0.0-5.0-25.0"},{"group":"hexagon_tri","fractal_assignment":["../images/cyn_red.png","../images/gry_blk.png","../images/ylw_slt.png","../images/org_blu.png","../images/blu_wht.png","../images/pnk_blu.png"],"mutagen_generator_assignment":[1,0],"goal":2,"start":5,"action_noise":0.15,"location_history":"[5,4,2]","action_history":"[0,1]","mutagen_history":"[1,0]","location_rts":"[468,221]","trial_type":"fractal-mutation","trial_index":80,"time_elapsed":3009428,"internal_node_id":"0.0-5.0-26.0"},{"group":"hexagon_tri","fractal_assignment":["../images/cyn_red.png","../images/gry_blk.png","../images/ylw_slt.png","../images/org_blu.png","../images/blu_wht.png","../images/pnk_blu.png"],"mutagen_generator_assignment":[1,0],"goal":3,"start":2,"action_noise":0.15,"location_history":"[2,1,5,4,0,1,3]","action_history":"[0,1,0,0,1,0]","mutagen_history":"[1,0,1,1,0,1]","location_rts":"[937,357,516,289,488,364]","trial_type":"fractal-mutation","trial_index":81,"time_elapsed":3022572,"internal_node_id":"0.0-5.0-27.0"},{"group":"hexagon_tri","fractal_assignment":["../images/cyn_red.png","../images/gry_blk.png","../images/ylw_slt.png","../images/org_blu.png","../images/blu_wht.png","../images/pnk_blu.png"],"mutagen_generator_assignment":[1,0],"goal":0,"start":3,"action_noise":0.15,"location_history":"[3,2,3,4,0]","action_history":"[0,1,1,0]","mutagen_history":"[1,0,0,1]","location_rts":"[462,654,220,606]","trial_type":"fractal-mutation","trial_index":82,"time_elapsed":3032367,"internal_node_id":"0.0-5.0-28.0"},{"group":"hexagon_tri","fractal_assignment":["../images/cyn_red.png","../images/gry_blk.png","../images/ylw_slt.png","../images/org_blu.png","../images/blu_wht.png","../images/pnk_blu.png"],"mutagen_generator_assignment":[1,0],"goal":1,"start":0,"action_noise":0.15,"location_history":"[0,1]","action_history":"[1]","mutagen_history":"[0]","location_rts":"[872]","trial_type":"fractal-mutation","trial_index":83,"time_elapsed":3037858,"internal_node_id":"0.0-5.0-29.0"},{"group":"hexagon_tri","fractal_assignment":["../images/cyn_red.png","../images/gry_blk.png","../images/ylw_slt.png","../images/org_blu.png","../images/blu_wht.png","../images/pnk_blu.png"],"mutagen_generator_assignment":[1,0],"goal":4,"start":1,"action_noise":0.15,"location_history":"[1,3,4]","action_history":"[0,0]","mutagen_history":"[1,1]","location_rts":"[682,415]","trial_type":"fractal-mutation","trial_index":84,"time_elapsed":3044702,"internal_node_id":"0.0-5.0-30.0"},{"group":"hexagon_tri","fractal_assignment":["../images/cyn_red.png","../images/gry_blk.png","../images/ylw_slt.png","../images/org_blu.png","../images/blu_wht.png","../images/pnk_blu.png"],"mutagen_generator_assignment":[1,0],"goal":5,"start":4,"action_noise":0.15,"location_history":"[4,2,3,2,1,3,2,3,4,0,5]","action_history":"[1,1,0,0,0,0,1,1,1,0]","mutagen_history":"[0,0,1,1,1,1,0,0,0,1]","location_rts":"[788,369,370,373,436,388,336,253,265,242]","trial_type":"fractal-mutation","trial_index":85,"time_elapsed":3062939,"internal_node_id":"0.0-5.0-31.0"},{"group":"hexagon_tri","fractal_assignment":["../images/cyn_red.png","../images/gry_blk.png","../images/ylw_slt.png","../images/org_blu.png","../images/blu_wht.png","../images/pnk_blu.png"],"mutagen_generator_assignment":[1,0],"goal":0,"start":5,"action_noise":0.15,"location_history":"[5,4,0]","action_history":"[0,0]","mutagen_history":"[1,1]","location_rts":"[1275,343]","trial_type":"fractal-mutation","trial_index":86,"time_elapsed":3070312,"internal_node_id":"0.0-5.0-32.0"},{"group":"hexagon_tri","fractal_assignment":["../images/cyn_red.png","../images/gry_blk.png","../images/ylw_slt.png","../images/org_blu.png","../images/blu_wht.png","../images/pnk_blu.png"],"mutagen_generator_assignment":[1,0],"goal":3,"start":0,"action_noise":0.15,"location_history":"[0,1,3]","action_history":"[1,0]","mutagen_history":"[0,1]","location_rts":"[830,475]","trial_type":"fractal-mutation","trial_index":87,"time_elapsed":3077349,"internal_node_id":"0.0-5.0-33.0"},{"group":"hexagon_tri","fractal_assignment":["../images/cyn_red.png","../images/gry_blk.png","../images/ylw_slt.png","../images/org_blu.png","../images/blu_wht.png","../images/pnk_blu.png"],"mutagen_generator_assignment":[1,0],"goal":1,"start":3,"action_noise":0.15,"location_history":"[3,4,2,1]","action_history":"[1,1,1]","mutagen_history":"[0,0,0]","location_rts":"[873,838,480]","trial_type":"fractal-mutation","trial_index":88,"time_elapsed":3086322,"internal_node_id":"0.0-5.0-34.0"},{"group":"hexagon_tri","fractal_assignment":["../images/cyn_red.png","../images/gry_blk.png","../images/ylw_slt.png","../images/org_blu.png","../images/blu_wht.png","../images/pnk_blu.png"],"mutagen_generator_assignment":[1,0],"goal":2,"start":1,"action_noise":0.15,"location_history":"[1,5,0,1,3,2]","action_history":"[1,1,1,0,1]","mutagen_history":"[0,0,0,1,0]","location_rts":"[995,443,380,333,281]","trial_type":"fractal-mutation","trial_index":89,"time_elapsed":3097676,"internal_node_id":"0.0-5.0-35.0"},{"group":"hexagon_tri","fractal_assignment":["../images/cyn_red.png","../images/gry_blk.png","../images/ylw_slt.png","../images/org_blu.png","../images/blu_wht.png","../images/pnk_blu.png"],"mutagen_generator_assignment":[1,0],"goal":4,"start":2,"action_noise":0.15,"location_history":"[2,1,3,4]","action_history":"[0,0,1]","mutagen_history":"[1,1,0]","location_rts":"[1055,494,822]","trial_type":"fractal-mutation","trial_index":90,"time_elapsed":3106875,"internal_node_id":"0.0-5.0-36.0"},{"group":"hexagon_tri","fractal_assignment":["../images/cyn_red.png","../images/gry_blk.png","../images/ylw_slt.png","../images/org_blu.png","../images/blu_wht.png","../images/pnk_blu.png"],"mutagen_generator_assignment":[1,0],"goal":5,"start":4,"action_noise":0.15,"location_history":"[4,0,1,3,4,2,3,4,2,3,4,2,3,4,2,1,5]","action_history":"[0,1,0,0,1,1,1,0,1,1,0,0,0,0,0,1]","mutagen_history":"[1,0,1,1,0,0,0,1,0,0,1,1,1,1,1,0]","location_rts":"[424,288,352,366,452,223,338,282,264,371,264,144,583,356,533,125]","trial_type":"fractal-mutation","trial_index":91,"time_elapsed":3133268,"internal_node_id":"0.0-5.0-37.0"},{"group":"hexagon_tri","fractal_assignment":["../images/cyn_red.png","../images/gry_blk.png","../images/ylw_slt.png","../images/org_blu.png","../images/blu_wht.png","../images/pnk_blu.png"],"mutagen_generator_assignment":[1,0],"goal":1,"start":5,"action_noise":0.15,"location_history":"[5,0,5,0,1]","action_history":"[1,0,1,1]","mutagen_history":"[0,1,0,0]","location_rts":"[1384,417,416,225]","trial_type":"fractal-mutation","trial_index":92,"time_elapsed":3143644,"internal_node_id":"0.0-5.0-38.0"},{"group":"hexagon_tri","fractal_assignment":["../images/cyn_red.png","../images/gry_blk.png","../images/ylw_slt.png","../images/org_blu.png","../images/blu_wht.png","../images/pnk_blu.png"],"mutagen_generator_assignment":[1,0],"goal":4,"start":1,"action_noise":0.15,"location_history":"[1,3,4]","action_history":"[0,1]","mutagen_history":"[1,0]","location_rts":"[361,323]","trial_type":"fractal-mutation","trial_index":93,"time_elapsed":3150059,"internal_node_id":"0.0-5.0-39.0"},{"group":"hexagon_tri","fractal_assignment":["../images/cyn_red.png","../images/gry_blk.png","../images/ylw_slt.png","../images/org_blu.png","../images/blu_wht.png","../images/pnk_blu.png"],"mutagen_generator_assignment":[1,0],"goal":3,"start":4,"action_noise":0.15,"location_history":"[4,2,1,5,0,1,5,4,0,5,0,5,0,5,4,0,5,4,2,1,5,4,0,5,0,5,4,2,3]","action_history":"[1,0,0,1,1,1,0,0,0,1,0,1,1,1,0,0,0,1,0,1,0,0,0,1,0,0,0,1]","mutagen_history":"[0,1,1,0,0,0,1,1,1,0,1,0,0,0,1,1,1,0,1,0,1,1,1,0,1,1,1,0]","location_rts":"[402,229,968,456,353,569,564,283,329,263,290,149,281,373,265,818,398,374,411,427,433,329,446,264,285,451,308,195]","trial_type":"fractal-mutation","trial_index":94,"time_elapsed":3195382,"internal_node_id":"0.0-5.0-40.0"},{"group":"hexagon_tri","fractal_assignment":["../images/cyn_red.png","../images/gry_blk.png","../images/ylw_slt.png","../images/org_blu.png","../images/blu_wht.png","../images/pnk_blu.png"],"mutagen_generator_assignment":[1,0],"goal":2,"start":3,"action_noise":0.15,"location_history":"[3,2]","action_history":"[0]","mutagen_history":"[1]","location_rts":"[856]","trial_type":"fractal-mutation","trial_index":95,"time_elapsed":3200859,"internal_node_id":"0.0-5.0-41.0"},{"group":"hexagon_tri","fractal_assignment":["../images/cyn_red.png","../images/gry_blk.png","../images/ylw_slt.png","../images/org_blu.png","../images/blu_wht.png","../images/pnk_blu.png"],"mutagen_generator_assignment":[1,0],"goal":0,"start":2,"action_noise":0.15,"location_history":"[2,3,2,3,4,0]","action_history":"[1,0,0,1,0]","mutagen_history":"[0,1,1,0,1]","location_rts":"[626,419,350,470,242]","trial_type":"fractal-mutation","trial_index":96,"time_elapsed":3212034,"internal_node_id":"0.0-5.0-42.0"},{"group":"hexagon_tri","fractal_assignment":["../images/cyn_red.png","../images/gry_blk.png","../images/ylw_slt.png","../images/org_blu.png","../images/blu_wht.png","../images/pnk_blu.png"],"mutagen_generator_assignment":[1,0],"goal":5,"start":0,"action_noise":0.15,"location_history":"[0,1,3,4,2,1,5]","action_history":"[1,0,1,1,1,1]","mutagen_history":"[0,1,0,0,0,0]","location_rts":"[813,450,365,456,371,671]","trial_type":"fractal-mutation","trial_index":97,"time_elapsed":3225205,"internal_node_id":"0.0-5.0-43.0"},{"group":"hexagon_tri","fractal_assignment":["../images/cyn_red.png","../images/gry_blk.png","../images/ylw_slt.png","../images/org_blu.png","../images/blu_wht.png","../images/pnk_blu.png"],"mutagen_generator_assignment":[1,0],"goal":0,"start":5,"action_noise":0.15,"location_history":"[5,0]","action_history":"[1]","mutagen_history":"[0]","location_rts":"[622]","trial_type":"fractal-mutation","trial_index":98,"time_elapsed":3230422,"internal_node_id":"0.0-5.0-44.0"},{"group":"hexagon_tri","fractal_assignment":["../images/cyn_red.png","../images/gry_blk.png","../images/ylw_slt.png","../images/org_blu.png","../images/blu_wht.png","../images/pnk_blu.png"],"mutagen_generator_assignment":[1,0],"goal":2,"start":0,"action_noise":0.15,"location_history":"[0,5,0,1,3,4,2]","action_history":"[0,1,1,0,1,1]","mutagen_history":"[1,0,0,1,0,0]","location_rts":"[361,360,362,311,549,313]","trial_type":"fractal-mutation","trial_index":99,"time_elapsed":3242802,"internal_node_id":"0.0-5.0-45.0"},{"group":"hexagon_tri","fractal_assignment":["../images/cyn_red.png","../images/gry_blk.png","../images/ylw_slt.png","../images/org_blu.png","../images/blu_wht.png","../images/pnk_blu.png"],"mutagen_generator_assignment":[1,0],"goal":4,"start":2,"action_noise":0.15,"location_history":"[2,1,5,0,1,3,2,1,5,0,5,0,1,5,4]","action_history":"[0,1,1,0,0,0,0,1,1,0,1,1,1,1]","mutagen_history":"[1,0,0,1,1,1,1,0,0,1,0,0,0,0]","location_rts":"[630,366,436,388,604,473,578,347,461,1043,620,208,374,534]","trial_type":"fractal-mutation","trial_index":100,"time_elapsed":3268741,"internal_node_id":"0.0-5.0-46.0"},{"group":"hexagon_tri","fractal_assignment":["../images/cyn_red.png","../images/gry_blk.png","../images/ylw_slt.png","../images/org_blu.png","../images/blu_wht.png","../images/pnk_blu.png"],"mutagen_generator_assignment":[1,0],"goal":1,"start":4,"action_noise":0.15,"location_history":"[4,0,1]","action_history":"[0,1]","mutagen_history":"[1,0]","location_rts":"[674,325]","trial_type":"fractal-mutation","trial_index":101,"time_elapsed":3275395,"internal_node_id":"0.0-5.0-47.0"},{"group":"hexagon_tri","fractal_assignment":["../images/cyn_red.png","../images/gry_blk.png","../images/ylw_slt.png","../images/org_blu.png","../images/blu_wht.png","../images/pnk_blu.png"],"mutagen_generator_assignment":[1,0],"goal":5,"start":1,"action_noise":0.15,"location_history":"[1,5]","action_history":"[1]","mutagen_history":"[0]","location_rts":"[370]","trial_type":"fractal-mutation","trial_index":102,"time_elapsed":3280353,"internal_node_id":"0.0-5.0-48.0"},{"group":"hexagon_tri","fractal_assignment":["../images/cyn_red.png","../images/gry_blk.png","../images/ylw_slt.png","../images/org_blu.png","../images/blu_wht.png","../images/pnk_blu.png"],"mutagen_generator_assignment":[1,0],"goal":3,"start":5,"action_noise":0.15,"location_history":"[5,0,5,4,2,3]","action_history":"[1,0,0,1,1]","mutagen_history":"[0,1,1,0,0]","location_rts":"[808,577,211,365,215]","trial_type":"fractal-mutation","trial_index":103,"time_elapsed":3291436,"internal_node_id":"0.0-5.0-49.0"},{"view_history":"[{\"page_index\":0,\"viewing_time\":5419}]","rt":5420,"trial_type":"instructions","trial_index":104,"time_elapsed":3297858,"internal_node_id":"0.0-6.0"},{"rt":4283,"responses":"{\"Q0\":\"Thanks\"}","trial_type":"survey-text","trial_index":105,"time_elapsed":3303147,"internal_node_id":"0.0-7.0"}]