[{"view_history":"[{\"page_index\":0,\"viewing_time\":51987},{\"page_index\":1,\"viewing_time\":12647}]","rt":64634,"trial_type":"instructions","trial_index":0,"time_elapsed":64635,"internal_node_id":"0.0-0.0"},{"view_history":"[{\"page_index\":0,\"viewing_time\":6245},{\"page_index\":1,\"viewing_time\":36248}]","rt":42494,"trial_type":"instructions","trial_index":1,"time_elapsed":108131,"internal_node_id":"0.0-1.0"},{"group":"dicyclic group of order 12","room_assignment":["purple","brown","ivory","olive","yellow","blue","red","cyan","pink","orange","grey","green"],"door_color_assignment":["white","black"],"door_generator_assignment":[0,1],"goal":7,"start":11,"action_noise":0.15,"location_history":"[11,4,9,1,2,6,11,3,0,1,2,6,10,2,3,0,1,5,9,1,2,6,10,7]","action_history":"[1,0,0,0,1,1,1,0,1,0,1,1,1,0,0,0,1,0,1,0,1,1,0]","door_history":"[1,0,0,0,1,1,1,0,1,0,1,1,1,0,0,0,1,0,1,0,1,1,0]","location_rts":"[2448,990,368,521,397,451,450,747,996,976,846,344,401,811,424,389,1120,787,1312,732,497,424,857]","trial_type":"two-door-navigation","trial_index":2,"time_elapsed":152433,"internal_node_id":"0.0-2.0-0.0"},{"group":"dicyclic group of order 12","room_assignment":["purple","brown","ivory","olive","yellow","blue","red","cyan","pink","orange","grey","green"],"door_color_assignment":["white","black"],"door_generator_assignment":[0,1],"goal":8,"start":7,"action_noise":0.15,"location_history":"[7,8]","action_history":"[0]","door_history":"[0]","location_rts":"[2608]","trial_type":"two-door-navigation","trial_index":3,"time_elapsed":159559,"internal_node_id":"0.0-2.0-1.0"},{"group":"dicyclic group of order 12","room_assignment":["purple","brown","ivory","olive","yellow","blue","red","cyan","pink","orange","grey","green"],"door_color_assignment":["white","black"],"door_generator_assignment":[0,1],"goal":4,"start":8,"action_noise":0.15,"location_history":"[8,0,4]","action_history":"[1,1]","door_history":"[1,1]","location_rts":"[2282,569]","trial_type":"two-door-navigation","trial_index":4,"time_elapsed":167939,"internal_node_id":"0.0-2.0-2.0"},{"group":"dicyclic group of order 12","room_assignment":["purple","brown","ivory","olive","yellow","blue","red","cyan","pink","orange","grey","green"],"door_color_assignment":["white","black"],"door_generator_assignment":[0,1],"goal":5,"start":4,"action_noise":0.15,"location_history":"[4,8,5]","action_history":"[1,0]","door_history":"[1,0]","location_rts":"[1519,1277]","trial_type":"two-door-navigation","trial_index":5,"time_elapsed":176273,"internal_node_id":"0.0-2.0-3.0"},{"group":"dicyclic group of order 12","room_assignment":["purple","brown","ivory","olive","yellow","blue","red","cyan","pink","orange","grey","green"],"door_color_assignment":["white","black"],"door_generator_assignment":[0,1],"goal":10,"start":5,"action_noise":0.15,"location_history":"[5,9,6,10]","action_history":"[1,0,0]","door_history":"[1,0,0]","location_rts":"[4161,923,360]","trial_type":"two-door-navigation","trial_index":6,"time_elapsed":188277,"internal_node_id":"0.0-2.0-4.0"},{"group":"dicyclic group of order 12","room_assignment":["purple","brown","ivory","olive","yellow","blue","red","cyan","pink","orange","grey","green"],"door_color_assignment":["white","black"],"door_generator_assignment":[0,1],"goal":1,"start":10,"action_noise":0.15,"location_history":"[10,7,11,4,8,0,1]","action_history":"[0,1,1,1,0,0]","door_history":"[0,1,1,1,0,0]","location_rts":"[1554,677,399,388,1276,498]","trial_type":"two-door-navigation","trial_index":7,"time_elapsed":202686,"internal_node_id":"0.0-2.0-5.0"},{"group":"dicyclic group of order 12","room_assignment":["purple","brown","ivory","olive","yellow","blue","red","cyan","pink","orange","grey","green"],"door_color_assignment":["white","black"],"door_generator_assignment":[0,1],"goal":6,"start":1,"action_noise":0.15,"location_history":"[1,2,3,0,1,5,9,6]","action_history":"[0,0,0,1,1,1,0]","door_history":"[0,0,0,1,1,1,0]","location_rts":"[2404,613,608,669,564,472,730]","trial_type":"two-door-navigation","trial_index":8,"time_elapsed":219363,"internal_node_id":"0.0-2.0-6.0"},{"group":"dicyclic group of order 12","room_assignment":["purple","brown","ivory","olive","yellow","blue","red","cyan","pink","orange","grey","green"],"door_color_assignment":["white","black"],"door_generator_assignment":[0,1],"goal":9,"start":6,"action_noise":0.15,"location_history":"[6,11,3,7,8,0,4,8,5,9]","action_history":"[0,1,1,1,1,1,1,0,0]","door_history":"[0,1,1,1,1,1,1,0,0]","location_rts":"[3679,1099,406,395,572,426,394,346,323]","trial_type":"two-door-navigation","trial_index":9,"time_elapsed":239683,"internal_node_id":"0.0-2.0-7.0"},{"group":"dicyclic group of order 12","room_assignment":["purple","brown","ivory","olive","yellow","blue","red","cyan","pink","orange","grey","green"],"door_color_assignment":["white","black"],"door_generator_assignment":[0,1],"goal":2,"start":9,"action_noise":0.15,"location_history":"[9,1,5,9,6,11,3,7,8,5,10,2]","action_history":"[1,1,1,0,0,0,1,1,0,0,0]","door_history":"[1,1,1,0,0,0,1,1,0,0,0]","location_rts":"[2791,382,729,768,398,423,436,362,838,620,333]","trial_type":"two-door-navigation","trial_index":10,"time_elapsed":262461,"internal_node_id":"0.0-2.0-8.0"},{"group":"dicyclic group of order 12","room_assignment":["purple","brown","ivory","olive","yellow","blue","red","cyan","pink","orange","grey","green"],"door_color_assignment":["white","black"],"door_generator_assignment":[0,1],"goal":0,"start":2,"action_noise":0.15,"location_history":"[2,6,10,2,3,7,11,3,0]","action_history":"[1,0,1,0,1,1,1,0]","door_history":"[1,0,1,0,1,1,1,0]","location_rts":"[1412,931,1124,1083,1286,607,435,646]","trial_type":"two-door-navigation","trial_index":11,"time_elapsed":281675,"internal_node_id":"0.0-2.0-9.0"},{"group":"dicyclic group of order 12","room_assignment":["purple","brown","ivory","olive","yellow","blue","red","cyan","pink","orange","grey","green"],"door_color_assignment":["white","black"],"door_generator_assignment":[0,1],"goal":3,"start":0,"action_noise":0.15,"location_history":"[0,4,9,1,5,10,7,8,0,4,8,5,10,2,6,11,4,9,1,5,9,1,2,6,10,2,3]","action_history":"[0,1,1,1,0,0,0,1,1,1,0,1,1,1,0,0,0,1,1,1,1,0,1,1,1,0]","door_history":"[0,1,1,1,0,0,0,1,1,1,0,1,1,1,0,0,0,1,1,1,1,0,1,1,1,0]","location_rts":"[6023,462,337,549,887,824,359,852,504,416,656,749,618,357,881,479,467,789,823,517,1448,1499,2245,1396,911,1363]","trial_type":"two-door-navigation","trial_index":12,"time_elapsed":338176,"internal_node_id":"0.0-2.0-10.0"},{"group":"dicyclic group of order 12","room_assignment":["purple","brown","ivory","olive","yellow","blue","red","cyan","pink","orange","grey","green"],"door_color_assignment":["white","black"],"door_generator_assignment":[0,1],"goal":10,"start":3,"action_noise":0.15,"location_history":"[3,0,4,8,5,10]","action_history":"[0,1,1,0,0]","door_history":"[0,1,1,0,0]","location_rts":"[833,905,412,609,432]","trial_type":"two-door-navigation","trial_index":13,"time_elapsed":349944,"internal_node_id":"0.0-2.0-11.0"},{"group":"dicyclic group of order 12","room_assignment":["purple","brown","ivory","olive","yellow","blue","red","cyan","pink","orange","grey","green"],"door_color_assignment":["white","black"],"door_generator_assignment":[0,1],"goal":8,"start":10,"action_noise":0.15,"location_history":"[10,7,8]","action_history":"[0,1]","door_history":"[0,1]","location_rts":"[1951,580]","trial_type":"two-door-navigation","trial_index":14,"time_elapsed":358010,"internal_node_id":"0.0-2.0-12.0"},{"group":"dicyclic group of order 12","room_assignment":["purple","brown","ivory","olive","yellow","blue","red","cyan","pink","orange","grey","green"],"door_color_assignment":["white","black"],"door_generator_assignment":[0,1],"goal":4,"start":8,"action_noise":0.15,"location_history":"[8,5,10,2,6,10,7,11,4]","action_history":"[0,0,1,1,1,0,0,0]","door_history":"[0,0,1,1,1,0,0,0]","location_rts":"[2352,791,868,603,342,750,939,454]","trial_type":"two-door-navigation","trial_index":15,"time_elapsed":376745,"internal_node_id":"0.0-2.0-13.0"},{"group":"dicyclic group of order 12","room_assignment":["purple","brown","ivory","olive","yellow","blue","red","cyan","pink","orange","grey","green"],"door_color_assignment":["white","black"],"door_generator_assignment":[0,1],"goal":0,"start":4,"action_noise":0.15,"location_history":"[4,9,1,5,9,6,11,3,7,8,0]","action_history":"[0,1,1,1,1,0,1,1,0,0]","door_history":"[0,1,1,1,1,0,1,1,0,0]","location_rts":"[904,666,418,408,798,908,1071,486,433,989]","trial_type":"two-door-navigation","trial_index":16,"time_elapsed":397555,"internal_node_id":"0.0-2.0-14.0"},{"group":"dicyclic group of order 12","room_assignment":["purple","brown","ivory","olive","yellow","blue","red","cyan","pink","orange","grey","green"],"door_color_assignment":["white","black"],"door_generator_assignment":[0,1],"goal":11,"start":0,"action_noise":0.15,"location_history":"[0,1,5,9,1,2,3,0,1,5,9,1,2,3,7,8,0,1,5,10,2,3,7,8,0,4,8,0,1,2,3,7,11]","action_history":"[0,1,1,1,0,0,0,0,1,1,1,0,0,1,0,1,0,1,0,1,0,1,0,0,1,1,1,0,0,0,1,1]","door_history":"[0,1,1,1,0,0,0,0,1,1,1,0,0,1,0,1,0,1,0,1,0,1,0,0,1,1,1,0,0,0,1,1]","location_rts":"[1502,826,400,369,776,425,1251,676,809,648,850,1142,681,1035,671,674,673,701,838,761,617,1094,461,475,539,385,474,988,386,564,717,450]","trial_type":"two-door-navigation","trial_index":17,"time_elapsed":456492,"internal_node_id":"0.0-2.0-15.0"},{"group":"dicyclic group of order 12","room_assignment":["purple","brown","ivory","olive","yellow","blue","red","cyan","pink","orange","grey","green"],"door_color_assignment":["white","black"],"door_generator_assignment":[0,1],"goal":2,"start":11,"action_noise":0.15,"location_history":"[11,4,8,0,1,2]","action_history":"[0,1,1,1,0]","door_history":"[0,1,1,1,0]","location_rts":"[2580,1072,471,341,812]","trial_type":"two-door-navigation","trial_index":18,"time_elapsed":470350,"internal_node_id":"0.0-2.0-16.0"},{"group":"dicyclic group of order 12","room_assignment":["purple","brown","ivory","olive","yellow","blue","red","cyan","pink","orange","grey","green"],"door_color_assignment":["white","black"],"door_generator_assignment":[0,1],"goal":7,"start":2,"action_noise":0.15,"location_history":"[2,6,11,4,8,0,1,5,10,7]","action_history":"[1,0,0,0,1,0,1,0,1]","door_history":"[1,0,0,0,1,0,1,0,1]","location_rts":"[1530,864,374,583,391,1178,680,501,458]","trial_type":"two-door-navigation","trial_index":19,"time_elapsed":489592,"internal_node_id":"0.0-2.0-17.0"},{"group":"dicyclic group of order 12","room_assignment":["purple","brown","ivory","olive","yellow","blue","red","cyan","pink","orange","grey","green"],"door_color_assignment":["white","black"],"door_generator_assignment":[0,1],"goal":5,"start":7,"action_noise":0.15,"location_history":"[7,8,5]","action_history":"[0,1]","door_history":"[0,1]","location_rts":"[1510,1134]","trial_type":"two-door-navigation","trial_index":20,"time_elapsed":497783,"internal_node_id":"0.0-2.0-18.0"},{"group":"dicyclic group of order 12","room_assignment":["purple","brown","ivory","olive","yellow","blue","red","cyan","pink","orange","grey","green"],"door_color_assignment":["white","black"],"door_generator_assignment":[0,1],"goal":6,"start":5,"action_noise":0.15,"location_history":"[5,9,6]","action_history":"[1,0]","door_history":"[1,0]","location_rts":"[1267,617]","trial_type":"two-door-navigation","trial_index":21,"time_elapsed":505228,"internal_node_id":"0.0-2.0-19.0"},{"group":"dicyclic group of order 12","room_assignment":["purple","brown","ivory","olive","yellow","blue","red","cyan","pink","orange","grey","green"],"door_color_assignment":["white","black"],"door_generator_assignment":[0,1],"goal":3,"start":6,"action_noise":0.15,"location_history":"[6,11,3]","action_history":"[0,1]","door_history":"[0,1]","location_rts":"[1299,923]","trial_type":"two-door-navigation","trial_index":22,"time_elapsed":513012,"internal_node_id":"0.0-2.0-20.0"},{"group":"dicyclic group of order 12","room_assignment":["purple","brown","ivory","olive","yellow","blue","red","cyan","pink","orange","grey","green"],"door_color_assignment":["white","black"],"door_generator_assignment":[0,1],"goal":1,"start":3,"action_noise":0.15,"location_history":"[3,7,8,0,4,9,6,11,4,9,6,10,2,3,0,4,8,5,10,7,8,0,4,8,5,10,2,6,11,3,7,11,4,8,5,9,6,10,7,11,4,8,5,10,2,6,11,4,8,5,10,2,6,10,7,11,3,7,8,5,10,2,6,11,4,9,6,10,2,3,7,8,5,10,2,3,0,4,9,1]","action_history":"[1,0,0,1,0,0,0,1,0,0,0,1,0,0,0,1,0,0,0,0,1,1,1,0,1,1,1,0,1,1,1,0,1,0,1,0,1,0,0,0,1,0,0,0,1,0,0,0,1,0,1,0,1,0,1,1,1,0,1,0,1,0,1,0,0,0,1,1,0,1,0,1,0,1,0,0,1,1,1]","door_history":"[1,0,0,1,0,0,0,1,0,0,0,1,0,0,0,1,0,0,0,0,1,1,1,0,1,1,1,0,1,1,1,0,1,0,1,0,1,0,0,0,1,0,0,0,1,0,0,0,1,0,1,0,1,0,1,1,1,0,1,0,1,0,1,0,0,0,1,1,0,1,0,1,0,1,0,0,1,1,1]","location_rts":"[1203,600,505,414,569,443,342,454,426,512,481,371,483,461,344,411,410,417,379,375,393,479,406,358,572,598,889,726,405,589,395,429,468,373,360,372,256,334,914,392,728,350,241,641,339,486,342,343,501,400,460,358,357,360,346,323,262,955,775,585,617,2129,1292,854,839,1306,921,1015,1819,1722,641,983,562,1216,365,408,505,393,490]","trial_type":"two-door-navigation","trial_index":23,"time_elapsed":643617,"internal_node_id":"0.0-2.0-21.0"},{"group":"dicyclic group of order 12","room_assignment":["purple","brown","ivory","olive","yellow","blue","red","cyan","pink","orange","grey","green"],"door_color_assignment":["white","black"],"door_generator_assignment":[0,1],"goal":9,"start":1,"action_noise":0.15,"location_history":"[1,2,6,10,2,6,10,7,11,4,9]","action_history":"[0,1,1,1,0,0,0,1,0,0]","door_history":"[0,1,1,1,0,0,0,1,0,0]","location_rts":"[1211,541,289,413,337,448,429,549,2746,560]","trial_type":"two-door-navigation","trial_index":24,"time_elapsed":664875,"internal_node_id":"0.0-2.0-22.0"},{"group":"dicyclic group of order 12","room_assignment":["purple","brown","ivory","olive","yellow","blue","red","cyan","pink","orange","grey","green"],"door_color_assignment":["white","black"],"door_generator_assignment":[0,1],"goal":3,"start":9,"action_noise":0.15,"location_history":"[9,1,2,3]","action_history":"[1,0,0]","door_history":"[1,0,0]","location_rts":"[948,652,498]","trial_type":"two-door-navigation","trial_index":25,"time_elapsed":673531,"internal_node_id":"0.0-2.0-23.0"},{"group":"dicyclic group of order 12","room_assignment":["purple","brown","ivory","olive","yellow","blue","red","cyan","pink","orange","grey","green"],"door_color_assignment":["white","black"],"door_generator_assignment":[0,1],"goal":4,"start":3,"action_noise":0.15,"location_history":"[3,0,4]","action_history":"[0,1]","door_history":"[0,1]","location_rts":"[678,875]","trial_type":"two-door-navigation","trial_index":26,"time_elapsed":680612,"internal_node_id":"0.0-2.0-24.0"},{"group":"dicyclic group of order 12","room_assignment":["purple","brown","ivory","olive","yellow","blue","red","cyan","pink","orange","grey","green"],"door_color_assignment":["white","black"],"door_generator_assignment":[0,1],"goal":2,"start":4,"action_noise":0.15,"location_history":"[4,8,0,4,9,6,10,7,11,4,8,5,9,6,11,4,8,5,9,6,10,7,8,5,10,7,11,4,8,0,1,2]","action_history":"[0,1,1,1,0,0,0,1,0,0,0,1,0,0,0,1,0,1,0,1,0,1,0,0,0,0,0,0,1,0,0]","door_history":"[0,1,1,1,0,0,0,1,0,0,0,1,0,0,0,1,0,1,0,1,0,1,0,0,0,0,0,0,1,0,0]","location_rts":"[1131,601,507,377,605,491,401,663,346,414,534,890,346,523,375,389,370,330,344,336,271,401,716,439,275,760,529,367,1264,782,505]","trial_type":"two-door-navigation","trial_index":27,"time_elapsed":732033,"internal_node_id":"0.0-2.0-25.0"},{"group":"dicyclic group of order 12","room_assignment":["purple","brown","ivory","olive","yellow","blue","red","cyan","pink","orange","grey","green"],"door_color_assignment":["white","black"],"door_generator_assignment":[0,1],"goal":1,"start":2,"action_noise":0.15,"location_history":"[2,3,0,1]","action_history":"[1,0,0]","door_history":"[1,0,0]","location_rts":"[1408,857,786]","trial_type":"two-door-navigation","trial_index":28,"time_elapsed":741632,"internal_node_id":"0.0-2.0-26.0"},{"group":"dicyclic group of order 12","room_assignment":["purple","brown","ivory","olive","yellow","blue","red","cyan","pink","orange","grey","green"],"door_color_assignment":["white","black"],"door_generator_assignment":[0,1],"goal":8,"start":1,"action_noise":0.15,"location_history":"[1,5,10,7,11,4,9,6,10,7,8]","action_history":"[1,0,0,1,0,0,0,1,0,0]","door_history":"[1,0,0,1,0,0,0,1,0,0]","location_rts":"[1441,441,583,961,748,508,324,563,393,381]","trial_type":"two-door-navigation","trial_index":29,"time_elapsed":761702,"internal_node_id":"0.0-2.0-27.0"},{"group":"dicyclic group of order 12","room_assignment":["purple","brown","ivory","olive","yellow","blue","red","cyan","pink","orange","grey","green"],"door_color_assignment":["white","black"],"door_generator_assignment":[0,1],"goal":10,"start":8,"action_noise":0.15,"location_history":"[8,5,9,6,11,4,8,5,10]","action_history":"[0,1,0,1,0,1,0,0]","door_history":"[0,1,0,1,0,1,0,0]","location_rts":"[1364,931,662,524,697,1052,553,337]","trial_type":"two-door-navigation","trial_index":30,"time_elapsed":779465,"internal_node_id":"0.0-2.0-28.0"},{"group":"dicyclic group of order 12","room_assignment":["purple","brown","ivory","olive","yellow","blue","red","cyan","pink","orange","grey","green"],"door_color_assignment":["white","black"],"door_generator_assignment":[0,1],"goal":7,"start":10,"action_noise":0.15,"location_history":"[10,7]","action_history":"[1]","door_history":"[1]","location_rts":"[776]","trial_type":"two-door-navigation","trial_index":31,"time_elapsed":784760,"internal_node_id":"0.0-2.0-29.0"},{"group":"dicyclic group of order 12","room_assignment":["purple","brown","ivory","olive","yellow","blue","red","cyan","pink","orange","grey","green"],"door_color_assignment":["white","black"],"door_generator_assignment":[0,1],"goal":6,"start":7,"action_noise":0.15,"location_history":"[7,8,0,4,8,5,10,7,11,3,7,8,5,9,6]","action_history":"[0,1,1,1,0,0,0,1,1,1,0,0,1,0]","door_history":"[0,1,1,1,0,0,0,1,1,1,0,0,1,0]","location_rts":"[1649,1288,479,473,742,1769,393,711,385,432,40449,408,424,300]","trial_type":"two-door-navigation","trial_index":32,"time_elapsed":852516,"internal_node_id":"0.0-2.0-30.0"},{"group":"dicyclic group of order 12","room_assignment":["purple","brown","ivory","olive","yellow","blue","red","cyan","pink","orange","grey","green"],"door_color_assignment":["white","black"],"door_generator_assignment":[0,1],"goal":0,"start":6,"action_noise":0.15,"location_history":"[6,11,4,8,5,10,7,8,0]","action_history":"[1,1,1,0,0,0,1,1]","door_history":"[1,1,1,0,0,0,1,1]","location_rts":"[1714,681,418,607,389,392,737,678]","trial_type":"two-door-navigation","trial_index":33,"time_elapsed":869787,"internal_node_id":"0.0-2.0-31.0"},{"group":"dicyclic group of order 12","room_assignment":["purple","brown","ivory","olive","yellow","blue","red","cyan","pink","orange","grey","green"],"door_color_assignment":["white","black"],"door_generator_assignment":[0,1],"goal":11,"start":0,"action_noise":0.15,"location_history":"[0,1,5,9,1,2,3,0,1,2,3,7,11]","action_history":"[0,1,1,1,0,0,0,0,0,1,1,1]","door_history":"[0,1,1,1,0,0,0,0,0,1,1,1]","location_rts":"[131926,527,382,349,643,395,1156,901,903,934,1073,432]","trial_type":"two-door-navigation","trial_index":34,"time_elapsed":1025149,"internal_node_id":"0.0-2.0-32.0"},{"group":"dicyclic group of order 12","room_assignment":["purple","brown","ivory","olive","yellow","blue","red","cyan","pink","orange","grey","green"],"door_color_assignment":["white","black"],"door_generator_assignment":[0,1],"goal":9,"start":11,"action_noise":0.15,"location_history":"[11,3,7,8,0,4,8,5,10,7,11,4,9]","action_history":"[0,1,0,1,0,1,0,0,0,1,0,1]","door_history":"[0,1,0,1,0,1,0,0,0,1,0,1]","location_rts":"[50794,550,1190,438,408,677,475,375,778,424,361,462]","trial_type":"two-door-navigation","trial_index":35,"time_elapsed":1097913,"internal_node_id":"0.0-2.0-33.0"},{"group":"dicyclic group of order 12","room_assignment":["purple","brown","ivory","olive","yellow","blue","red","cyan","pink","orange","grey","green"],"door_color_assignment":["white","black"],"door_generator_assignment":[0,1],"goal":5,"start":9,"action_noise":0.15,"location_history":"[9,6,11,4,8,0,1,5]","action_history":"[0,0,0,1,1,0,1]","door_history":"[0,0,0,1,1,0,1]","location_rts":"[3888,1088,735,1071,438,8854,1043]","trial_type":"two-door-navigation","trial_index":36,"time_elapsed":1125733,"internal_node_id":"0.0-2.0-34.0"},{"view_history":"[{\"page_index\":0,\"viewing_time\":60490}]","rt":60493,"trial_type":"instructions","trial_index":37,"time_elapsed":1187228,"internal_node_id":"0.0-3.0"},{"view_history":"[{\"page_index\":0,\"viewing_time\":5290},{\"page_index\":1,\"viewing_time\":31657}]","rt":36947,"trial_type":"instructions","trial_index":38,"time_elapsed":1225177,"internal_node_id":"0.0-4.0"},{"group":"dicyclic group of order 12","fractal_assignment":["../images/grn_red.png","../images/grn_blu.png","../images/grn_prp.png","../images/org_blu.png","../images/red_prp.png","../images/ylw_slt.png","../images/cyn_red.png","../images/wht_red.png","../images/ylw_pnk.png","../images/blu_wht.png","../images/gry_blk.png","../images/pnk_blu.png"],"mutagen_generator_assignment":[1,0],"goal":7,"start":11,"action_noise":0.15,"location_history":"[11,3,0,4,8,0,1,2,3,0,4,9,1,2,6,11,4,9,1,5,10,7]","action_history":"[1,0,1,1,1,0,0,0,0,1,0,1,0,1,0,0,1,1,1,0,0]","mutagen_history":"[0,1,0,0,0,1,1,1,1,0,1,0,1,0,1,1,0,0,0,1,1]","location_rts":"[2002,918,1300,774,560,548,677,543,879,438,939,749,559,498,562,735,730,1013,2320,988,747]","trial_type":"fractal-mutation","trial_index":39,"time_elapsed":1269472,"internal_node_id":"0.0-5.0-0.0"},{"group":"dicyclic group of order 12","fractal_assignment":["../images/grn_red.png","../images/grn_blu.png","../images/grn_prp.png","../images/org_blu.png","../images/red_prp.png","../images/ylw_slt.png","../images/cyn_red.png","../images/wht_red.png","../images/ylw_pnk.png","../images/blu_wht.png","../images/gry_blk.png","../images/pnk_blu.png"],"mutagen_generator_assignment":[1,0],"goal":8,"start":7,"action_noise":0.15,"location_history":"[7,8]","action_history":"[0]","mutagen_history":"[1]","location_rts":"[2714]","trial_type":"fractal-mutation","trial_index":40,"time_elapsed":1276750,"internal_node_id":"0.0-5.0-1.0"},{"group":"dicyclic group of order 12","fractal_assignment":["../images/grn_red.png","../images/grn_blu.png","../images/grn_prp.png","../images/org_blu.png","../images/red_prp.png","../images/ylw_slt.png","../images/cyn_red.png","../images/wht_red.png","../images/ylw_pnk.png","../images/blu_wht.png","../images/gry_blk.png","../images/pnk_blu.png"],"mutagen_generator_assignment":[1,0],"goal":4,"start":8,"action_noise":0.15,"location_history":"[8,5,9,6,11,4]","action_history":"[0,1,0,0,0]","mutagen_history":"[1,0,1,1,1]","location_rts":"[971,592,522,989,525]","trial_type":"fractal-mutation","trial_index":41,"time_elapsed":1289201,"internal_node_id":"0.0-5.0-2.0"},{"group":"dicyclic group of order 12","fractal_assignment":["../images/grn_red.png","../images/grn_blu.png","../images/grn_prp.png","../images/org_blu.png","../images/red_prp.png","../images/ylw_slt.png","../images/cyn_red.png","../images/wht_red.png","../images/ylw_pnk.png","../images/blu_wht.png","../images/gry_blk.png","../images/pnk_blu.png"],"mutagen_generator_assignment":[1,0],"goal":5,"start":4,"action_noise":0.15,"location_history":"[4,9,1,2,3,7,8,5]","action_history":"[0,1,1,1,1,0,0]","mutagen_history":"[1,0,0,0,0,1,1]","location_rts":"[897,726,539,486,553,845,515]","trial_type":"fractal-mutation","trial_index":42,"time_elapsed":1304692,"internal_node_id":"0.0-5.0-3.0"},{"group":"dicyclic group of order 12","fractal_assignment":["../images/grn_red.png","../images/grn_blu.png","../images/grn_prp.png","../images/org_blu.png","../images/red_prp.png","../images/ylw_slt.png","../images/cyn_red.png","../images/wht_red.png","../images/ylw_pnk.png","../images/blu_wht.png","../images/gry_blk.png","../images/pnk_blu.png"],"mutagen_generator_assignment":[1,0],"goal":10,"start":5,"action_noise":0.15,"location_history":"[5,10]","action_history":"[0]","mutagen_history":"[1]","location_rts":"[2175]","trial_type":"fractal-mutation","trial_index":43,"time_elapsed":1311430,"internal_node_id":"0.0-5.0-4.0"},{"group":"dicyclic group of order 12","fractal_assignment":["../images/grn_red.png","../images/grn_blu.png","../images/grn_prp.png","../images/org_blu.png","../images/red_prp.png","../images/ylw_slt.png","../images/cyn_red.png","../images/wht_red.png","../images/ylw_pnk.png","../images/blu_wht.png","../images/gry_blk.png","../images/pnk_blu.png"],"mutagen_generator_assignment":[1,0],"goal":1,"start":10,"action_noise":0.15,"location_history":"[10,7,8,5,9,1]","action_history":"[1,0,1,1,1]","mutagen_history":"[0,1,0,0,0]","location_rts":"[1572,1420,623,912,494]","trial_type":"fractal-mutation","trial_index":44,"time_elapsed":1325243,"internal_node_id":"0.0-5.0-5.0"},{"group":"dicyclic group of order 12","fractal_assignment":["../images/grn_red.png","../images/grn_blu.png","../images/grn_prp.png","../images/org_blu.png","../images/red_prp.png","../images/ylw_slt.png","../images/cyn_red.png","../images/wht_red.png","../images/ylw_pnk.png","../images/blu_wht.png","../images/gry_blk.png","../images/pnk_blu.png"],"mutagen_generator_assignment":[1,0],"goal":6,"start":1,"action_noise":0.15,"location_history":"[1,2,6]","action_history":"[0,1]","mutagen_history":"[1,0]","location_rts":"[2031,805]","trial_type":"fractal-mutation","trial_index":45,"time_elapsed":1333701,"internal_node_id":"0.0-5.0-6.0"},{"group":"dicyclic group of order 12","fractal_assignment":["../images/grn_red.png","../images/grn_blu.png","../images/grn_prp.png","../images/org_blu.png","../images/red_prp.png","../images/ylw_slt.png","../images/cyn_red.png","../images/wht_red.png","../images/ylw_pnk.png","../images/blu_wht.png","../images/gry_blk.png","../images/pnk_blu.png"],"mutagen_generator_assignment":[1,0],"goal":9,"start":6,"action_noise":0.15,"location_history":"[6,10,2,6,11,3,7,8,0,4,8,0,4,9]","action_history":"[1,1,1,0,1,1,0,1,1,0,1,1,1]","mutagen_history":"[0,0,0,1,0,0,1,0,0,1,0,0,0]","location_rts":"[1126,758,624,551,497,815,485,487,714,1538,723,470,575]","trial_type":"fractal-mutation","trial_index":46,"time_elapsed":1360116,"internal_node_id":"0.0-5.0-7.0"},{"group":"dicyclic group of order 12","fractal_assignment":["../images/grn_red.png","../images/grn_blu.png","../images/grn_prp.png","../images/org_blu.png","../images/red_prp.png","../images/ylw_slt.png","../images/cyn_red.png","../images/wht_red.png","../images/ylw_pnk.png","../images/blu_wht.png","../images/gry_blk.png","../images/pnk_blu.png"],"mutagen_generator_assignment":[1,0],"goal":2,"start":9,"action_noise":0.15,"location_history":"[9,6,11,4,8,5,10,2]","action_history":"[0,1,0,1,0,0,0]","mutagen_history":"[1,0,1,0,1,1,1]","location_rts":"[1759,1048,778,635,835,585,488]","trial_type":"fractal-mutation","trial_index":47,"time_elapsed":1377397,"internal_node_id":"0.0-5.0-8.0"},{"group":"dicyclic group of order 12","fractal_assignment":["../images/grn_red.png","../images/grn_blu.png","../images/grn_prp.png","../images/org_blu.png","../images/red_prp.png","../images/ylw_slt.png","../images/cyn_red.png","../images/wht_red.png","../images/ylw_pnk.png","../images/blu_wht.png","../images/gry_blk.png","../images/pnk_blu.png"],"mutagen_generator_assignment":[1,0],"goal":0,"start":2,"action_noise":0.15,"location_history":"[2,3,0]","action_history":"[0,1]","mutagen_history":"[1,0]","location_rts":"[1173,706]","trial_type":"fractal-mutation","trial_index":48,"time_elapsed":1384881,"internal_node_id":"0.0-5.0-9.0"},{"group":"dicyclic group of order 12","fractal_assignment":["../images/grn_red.png","../images/grn_blu.png","../images/grn_prp.png","../images/org_blu.png","../images/red_prp.png","../images/ylw_slt.png","../images/cyn_red.png","../images/wht_red.png","../images/ylw_pnk.png","../images/blu_wht.png","../images/gry_blk.png","../images/pnk_blu.png"],"mutagen_generator_assignment":[1,0],"goal":3,"start":0,"action_noise":0.15,"location_history":"[0,1,5,9,1,2,3]","action_history":"[0,1,1,1,0,1]","mutagen_history":"[1,0,0,0,1,0]","location_rts":"[931,687,1014,511,486,2038]","trial_type":"fractal-mutation","trial_index":49,"time_elapsed":1400377,"internal_node_id":"0.0-5.0-10.0"},{"group":"dicyclic group of order 12","fractal_assignment":["../images/grn_red.png","../images/grn_blu.png","../images/grn_prp.png","../images/org_blu.png","../images/red_prp.png","../images/ylw_slt.png","../images/cyn_red.png","../images/wht_red.png","../images/ylw_pnk.png","../images/blu_wht.png","../images/gry_blk.png","../images/pnk_blu.png"],"mutagen_generator_assignment":[1,0],"goal":10,"start":3,"action_noise":0.15,"location_history":"[3,7,8,5,10]","action_history":"[1,0,0,1]","mutagen_history":"[0,1,1,0]","location_rts":"[1789,913,492,868]","trial_type":"fractal-mutation","trial_index":50,"time_elapsed":1412185,"internal_node_id":"0.0-5.0-11.0"},{"group":"dicyclic group of order 12","fractal_assignment":["../images/grn_red.png","../images/grn_blu.png","../images/grn_prp.png","../images/org_blu.png","../images/red_prp.png","../images/ylw_slt.png","../images/cyn_red.png","../images/wht_red.png","../images/ylw_pnk.png","../images/blu_wht.png","../images/gry_blk.png","../images/pnk_blu.png"],"mutagen_generator_assignment":[1,0],"goal":8,"start":10,"action_noise":0.15,"location_history":"[10,2,3,0,4,8]","action_history":"[1,0,1,1,1]","mutagen_history":"[0,1,0,0,0]","location_rts":"[6027,1246,759,1021,585]","trial_type":"fractal-mutation","trial_index":51,"time_elapsed":1430602,"internal_node_id":"0.0-5.0-12.0"},{"group":"dicyclic group of order 12","fractal_assignment":["../images/grn_red.png","../images/grn_blu.png","../images/grn_prp.png","../images/org_blu.png","../images/red_prp.png","../images/ylw_slt.png","../images/cyn_red.png","../images/wht_red.png","../images/ylw_pnk.png","../images/blu_wht.png","../images/gry_blk.png","../images/pnk_blu.png"],"mutagen_generator_assignment":[1,0],"goal":4,"start":8,"action_noise":0.15,"location_history":"[8,5,10,2,6,10,2,3,0,1,2,6,10,2,3,7,11,3,7,8,0,1,5,9,1,2,3,0,4]","action_history":"[0,0,1,1,1,1,1,0,0,0,1,1,0,0,1,1,1,1,0,1,0,1,1,1,0,0,0,1]","mutagen_history":"[1,1,0,0,0,0,0,1,1,1,0,0,1,1,0,0,0,0,1,0,1,0,0,0,1,1,1,0]","location_rts":"[1520,882,630,691,654,822,880,871,474,603,666,1042,9387,1346,1542,909,544,1245,440,813,515,532,446,953,662,960,960,752]","trial_type":"fractal-mutation","trial_index":52,"time_elapsed":1495404,"internal_node_id":"0.0-5.0-13.0"},{"group":"dicyclic group of order 12","fractal_assignment":["../images/grn_red.png","../images/grn_blu.png","../images/grn_prp.png","../images/org_blu.png","../images/red_prp.png","../images/ylw_slt.png","../images/cyn_red.png","../images/wht_red.png","../images/ylw_pnk.png","../images/blu_wht.png","../images/gry_blk.png","../images/pnk_blu.png"],"mutagen_generator_assignment":[1,0],"goal":0,"start":4,"action_noise":0.15,"location_history":"[4,9,6,11,4,9,1,5,10,7,8,0]","action_history":"[0,0,0,0,1,1,1,1,0,0,1]","mutagen_history":"[1,1,1,1,0,0,0,0,1,1,0]","location_rts":"[1062,1094,2205,667,389,673,712,610,540,492,546]","trial_type":"fractal-mutation","trial_index":53,"time_elapsed":1519504,"internal_node_id":"0.0-5.0-14.0"},{"group":"dicyclic group of order 12","fractal_assignment":["../images/grn_red.png","../images/grn_blu.png","../images/grn_prp.png","../images/org_blu.png","../images/red_prp.png","../images/ylw_slt.png","../images/cyn_red.png","../images/wht_red.png","../images/ylw_pnk.png","../images/blu_wht.png","../images/gry_blk.png","../images/pnk_blu.png"],"mutagen_generator_assignment":[1,0],"goal":11,"start":0,"action_noise":0.15,"location_history":"[0,1,5,10,7,8,0,4,8,5,9,6,11]","action_history":"[0,0,0,0,0,1,1,1,1,1,0,0]","mutagen_history":"[1,1,1,1,1,0,0,0,0,0,1,1]","location_rts":"[1297,662,570,531,543,288,1409,589,761,666,464,593]","trial_type":"fractal-mutation","trial_index":54,"time_elapsed":1544049,"internal_node_id":"0.0-5.0-15.0"},{"group":"dicyclic group of order 12","fractal_assignment":["../images/grn_red.png","../images/grn_blu.png","../images/grn_prp.png","../images/org_blu.png","../images/red_prp.png","../images/ylw_slt.png","../images/cyn_red.png","../images/wht_red.png","../images/ylw_pnk.png","../images/blu_wht.png","../images/gry_blk.png","../images/pnk_blu.png"],"mutagen_generator_assignment":[1,0],"goal":2,"start":11,"action_noise":0.15,"location_history":"[11,3,0,1,2]","action_history":"[1,0,0,0]","mutagen_history":"[0,1,1,1]","location_rts":"[1164,1196,576,564]","trial_type":"fractal-mutation","trial_index":55,"time_elapsed":1555455,"internal_node_id":"0.0-5.0-16.0"},{"group":"dicyclic group of order 12","fractal_assignment":["../images/grn_red.png","../images/grn_blu.png","../images/grn_prp.png","../images/org_blu.png","../images/red_prp.png","../images/ylw_slt.png","../images/cyn_red.png","../images/wht_red.png","../images/ylw_pnk.png","../images/blu_wht.png","../images/gry_blk.png","../images/pnk_blu.png"],"mutagen_generator_assignment":[1,0],"goal":7,"start":2,"action_noise":0.15,"location_history":"[2,6,10,7]","action_history":"[1,0,0]","mutagen_history":"[0,1,1]","location_rts":"[2393,429,464]","trial_type":"fractal-mutation","trial_index":56,"time_elapsed":1565471,"internal_node_id":"0.0-5.0-17.0"},{"group":"dicyclic group of order 12","fractal_assignment":["../images/grn_red.png","../images/grn_blu.png","../images/grn_prp.png","../images/org_blu.png","../images/red_prp.png","../images/ylw_slt.png","../images/cyn_red.png","../images/wht_red.png","../images/ylw_pnk.png","../images/blu_wht.png","../images/gry_blk.png","../images/pnk_blu.png"],"mutagen_generator_assignment":[1,0],"goal":5,"start":7,"action_noise":0.15,"location_history":"[7,11,3,0,4,9,1,5]","action_history":"[1,1,1,0,0,1,0]","mutagen_history":"[0,0,0,1,1,0,1]","location_rts":"[1339,502,524,455,537,1228,573]","trial_type":"fractal-mutation","trial_index":57,"time_elapsed":1581634,"internal_node_id":"0.0-5.0-18.0"},{"group":"dicyclic group of order 12","fractal_assignment":["../images/grn_red.png","../images/grn_blu.png","../images/grn_prp.png","../images/org_blu.png","../images/red_prp.png","../images/ylw_slt.png","../images/cyn_red.png","../images/wht_red.png","../images/ylw_pnk.png","../images/blu_wht.png","../images/gry_blk.png","../images/pnk_blu.png"],"mutagen_generator_assignment":[1,0],"goal":6,"start":5,"action_noise":0.15,"location_history":"[5,9,6]","action_history":"[1,0]","mutagen_history":"[0,1]","location_rts":"[2912,784]","trial_type":"fractal-mutation","trial_index":58,"time_elapsed":1590928,"internal_node_id":"0.0-5.0-19.0"},{"group":"dicyclic group of order 12","fractal_assignment":["../images/grn_red.png","../images/grn_blu.png","../images/grn_prp.png","../images/org_blu.png","../images/red_prp.png","../images/ylw_slt.png","../images/cyn_red.png","../images/wht_red.png","../images/ylw_pnk.png","../images/blu_wht.png","../images/gry_blk.png","../images/pnk_blu.png"],"mutagen_generator_assignment":[1,0],"goal":3,"start":6,"action_noise":0.15,"location_history":"[6,10,7,11,4,8,0,4,8,5,10,7,11,4,9,6,10,7,11,3]","action_history":"[1,1,1,0,1,1,1,1,0,0,0,1,0,0,0,1,0,1,1]","mutagen_history":"[0,0,0,1,0,0,0,0,1,1,1,0,1,1,1,0,1,0,0]","location_rts":"[1155,617,527,514,837,540,433,863,692,691,471,1365,543,533,699,958,860,1179,907]","trial_type":"fractal-mutation","trial_index":59,"time_elapsed":1628945,"internal_node_id":"0.0-5.0-20.0"},{"group":"dicyclic group of order 12","fractal_assignment":["../images/grn_red.png","../images/grn_blu.png","../images/grn_prp.png","../images/org_blu.png","../images/red_prp.png","../images/ylw_slt.png","../images/cyn_red.png","../images/wht_red.png","../images/ylw_pnk.png","../images/blu_wht.png","../images/gry_blk.png","../images/pnk_blu.png"],"mutagen_generator_assignment":[1,0],"goal":1,"start":3,"action_noise":0.15,"location_history":"[3,0,4,8,0,1]","action_history":"[0,1,1,1,0]","mutagen_history":"[1,0,0,0,1]","location_rts":"[1130,758,724,480,538]","trial_type":"fractal-mutation","trial_index":60,"time_elapsed":1641298,"internal_node_id":"0.0-5.0-21.0"},{"group":"dicyclic group of order 12","fractal_assignment":["../images/grn_red.png","../images/grn_blu.png","../images/grn_prp.png","../images/org_blu.png","../images/red_prp.png","../images/ylw_slt.png","../images/cyn_red.png","../images/wht_red.png","../images/ylw_pnk.png","../images/blu_wht.png","../images/gry_blk.png","../images/pnk_blu.png"],"mutagen_generator_assignment":[1,0],"goal":9,"start":1,"action_noise":0.15,"location_history":"[1,5,9]","action_history":"[1,1]","mutagen_history":"[0,0]","location_rts":"[3227,443]","trial_type":"fractal-mutation","trial_index":61,"time_elapsed":1650602,"internal_node_id":"0.0-5.0-22.0"},{"group":"dicyclic group of order 12","fractal_assignment":["../images/grn_red.png","../images/grn_blu.png","../images/grn_prp.png","../images/org_blu.png","../images/red_prp.png","../images/ylw_slt.png","../images/cyn_red.png","../images/wht_red.png","../images/ylw_pnk.png","../images/blu_wht.png","../images/gry_blk.png","../images/pnk_blu.png"],"mutagen_generator_assignment":[1,0],"goal":3,"start":9,"action_noise":0.15,"location_history":"[9,6,11,4,8,5,9,6,10,7,11,4,8,5,9,1,5,9,6,10,7,11,4,8,0,4,9,1,5,9,6,10,2,6,11,3]","action_history":"[0,0,0,1,1,1,0,1,0,1,0,1,0,0,1,0,1,0,1,0,0,0,1,1,1,0,1,1,1,0,1,1,1,0,1]","mutagen_history":"[1,1,1,0,0,0,1,0,1,0,1,0,1,1,0,1,0,1,0,1,1,1,0,0,0,1,0,0,0,1,0,0,0,1,0]","location_rts":"[1488,2541,575,541,732,522,732,695,1556,984,565,902,786,512,1000,684,540,590,562,503,608,480,1024,537,421,655,508,462,494,389,720,1053,446,1121,537]","trial_type":"fractal-mutation","trial_index":62,"time_elapsed":1717676,"internal_node_id":"0.0-5.0-23.0"},{"group":"dicyclic group of order 12","fractal_assignment":["../images/grn_red.png","../images/grn_blu.png","../images/grn_prp.png","../images/org_blu.png","../images/red_prp.png","../images/ylw_slt.png","../images/cyn_red.png","../images/wht_red.png","../images/ylw_pnk.png","../images/blu_wht.png","../images/gry_blk.png","../images/pnk_blu.png"],"mutagen_generator_assignment":[1,0],"goal":4,"start":3,"action_noise":0.15,"location_history":"[3,0,1,2,3,7,8,5,10,2,3,0,1,2,6,10,7,11,4]","action_history":"[1,0,0,0,1,0,0,0,1,0,0,0,0,1,1,1,1,0]","mutagen_history":"[0,1,1,1,0,1,1,1,0,1,1,1,1,0,0,0,0,1]","location_rts":"[2076,617,374,413,952,708,404,430,447,351,695,580,663,335,711,908,4448,1196]","trial_type":"fractal-mutation","trial_index":63,"time_elapsed":1756770,"internal_node_id":"0.0-5.0-24.0"},{"group":"dicyclic group of order 12","fractal_assignment":["../images/grn_red.png","../images/grn_blu.png","../images/grn_prp.png","../images/org_blu.png","../images/red_prp.png","../images/ylw_slt.png","../images/cyn_red.png","../images/wht_red.png","../images/ylw_pnk.png","../images/blu_wht.png","../images/gry_blk.png","../images/pnk_blu.png"],"mutagen_generator_assignment":[1,0],"goal":2,"start":4,"action_noise":0.15,"location_history":"[4,9,1,2]","action_history":"[0,1,1]","mutagen_history":"[1,0,0]","location_rts":"[1064,462,490]","trial_type":"fractal-mutation","trial_index":64,"time_elapsed":1765465,"internal_node_id":"0.0-5.0-25.0"},{"group":"dicyclic group of order 12","fractal_assignment":["../images/grn_red.png","../images/grn_blu.png","../images/grn_prp.png","../images/org_blu.png","../images/red_prp.png","../images/ylw_slt.png","../images/cyn_red.png","../images/wht_red.png","../images/ylw_pnk.png","../images/blu_wht.png","../images/gry_blk.png","../images/pnk_blu.png"],"mutagen_generator_assignment":[1,0],"goal":1,"start":2,"action_noise":0.15,"location_history":"[2,3,7,8,0,4,8,5,10,2,6,11,3,7,11,4,8,5,10,7,11,4,8,0,4,8,0,1]","action_history":"[0,0,0,1,1,1,0,1,1,1,0,1,1,1,0,1,0,1,0,1,0,1,1,1,1,1,1]","mutagen_history":"[1,1,1,0,0,0,1,0,0,0,1,0,0,0,1,0,1,0,1,0,1,0,0,0,0,0,0]","location_rts":"[1959,575,441,493,486,449,978,659,421,531,494,532,462,507,565,336,418,439,415,404,604,450,536,611,317,267,18]","trial_type":"fractal-mutation","trial_index":65,"time_elapsed":1811981,"internal_node_id":"0.0-5.0-26.0"},{"group":"dicyclic group of order 12","fractal_assignment":["../images/grn_red.png","../images/grn_blu.png","../images/grn_prp.png","../images/org_blu.png","../images/red_prp.png","../images/ylw_slt.png","../images/cyn_red.png","../images/wht_red.png","../images/ylw_pnk.png","../images/blu_wht.png","../images/gry_blk.png","../images/pnk_blu.png"],"mutagen_generator_assignment":[1,0],"goal":8,"start":1,"action_noise":0.15,"location_history":"[1,5,10,2,6,11,4,9,1,2,3,0,1,2,6,10,2,6,11,4,9,6,11,3,7,8]","action_history":"[1,1,1,1,0,0,0,1,0,1,0,0,0,1,1,1,1,0,0,0,0,0,1,1,1]","mutagen_history":"[0,0,0,0,1,1,1,0,1,0,1,1,1,0,0,0,0,1,1,1,1,1,0,0,0]","location_rts":"[830,500,284,1024,460,590,801,676,889,553,486,665,387,411,681,450,446,243,448,517,411,335,361,786,556]","trial_type":"fractal-mutation","trial_index":66,"time_elapsed":1855860,"internal_node_id":"0.0-5.0-27.0"},{"group":"dicyclic group of order 12","fractal_assignment":["../images/grn_red.png","../images/grn_blu.png","../images/grn_prp.png","../images/org_blu.png","../images/red_prp.png","../images/ylw_slt.png","../images/cyn_red.png","../images/wht_red.png","../images/ylw_pnk.png","../images/blu_wht.png","../images/gry_blk.png","../images/pnk_blu.png"],"mutagen_generator_assignment":[1,0],"goal":10,"start":8,"action_noise":0.15,"location_history":"[8,5,9,1,5,9,6,11,4,9,1,2,3,0,4,9,6,10]","action_history":"[0,1,1,1,0,0,0,0,0,1,0,0,0,1,0,0,1]","mutagen_history":"[1,0,0,0,1,1,1,1,1,0,1,1,1,0,1,1,0]","location_rts":"[1013,469,400,495,498,483,344,458,414,597,351,391,376,526,477,476,624]","trial_type":"fractal-mutation","trial_index":67,"time_elapsed":1885646,"internal_node_id":"0.0-5.0-28.0"},{"group":"dicyclic group of order 12","fractal_assignment":["../images/grn_red.png","../images/grn_blu.png","../images/grn_prp.png","../images/org_blu.png","../images/red_prp.png","../images/ylw_slt.png","../images/cyn_red.png","../images/wht_red.png","../images/ylw_pnk.png","../images/blu_wht.png","../images/gry_blk.png","../images/pnk_blu.png"],"mutagen_generator_assignment":[1,0],"goal":7,"start":10,"action_noise":0.15,"location_history":"[10,2,6,10,2,6,10,2,3,0,1,2,3,0,1,5,9,1,5,10,2,3,7]","action_history":"[1,0,1,1,1,1,1,0,0,0,1,0,0,0,0,1,1,1,0,1,0,1]","mutagen_history":"[0,1,0,0,0,0,0,1,1,1,0,1,1,1,1,0,0,0,1,0,1,0]","location_rts":"[1835,1157,1095,591,411,598,387,322,1100,467,526,1282,2531,425,437,519,514,470,792,1032,463,552]","trial_type":"fractal-mutation","trial_index":68,"time_elapsed":1929795,"internal_node_id":"0.0-5.0-29.0"},{"group":"dicyclic group of order 12","fractal_assignment":["../images/grn_red.png","../images/grn_blu.png","../images/grn_prp.png","../images/org_blu.png","../images/red_prp.png","../images/ylw_slt.png","../images/cyn_red.png","../images/wht_red.png","../images/ylw_pnk.png","../images/blu_wht.png","../images/gry_blk.png","../images/pnk_blu.png"],"mutagen_generator_assignment":[1,0],"goal":6,"start":7,"action_noise":0.15,"location_history":"[7,8,0,4,8,5,9,6]","action_history":"[0,1,1,1,0,0,0]","mutagen_history":"[1,0,0,0,1,1,1]","location_rts":"[1175,531,518,442,365,567,384]","trial_type":"fractal-mutation","trial_index":69,"time_elapsed":1944883,"internal_node_id":"0.0-5.0-30.0"},{"group":"dicyclic group of order 12","fractal_assignment":["../images/grn_red.png","../images/grn_blu.png","../images/grn_prp.png","../images/org_blu.png","../images/red_prp.png","../images/ylw_slt.png","../images/cyn_red.png","../images/wht_red.png","../images/ylw_pnk.png","../images/blu_wht.png","../images/gry_blk.png","../images/pnk_blu.png"],"mutagen_generator_assignment":[1,0],"goal":0,"start":6,"action_noise":0.15,"location_history":"[6,10,7,11,4,8,5,9,6,11,4,9,1,5,10,7,8,0]","action_history":"[1,0,1,0,1,0,1,0,0,0,0,1,0,0,0,0,1]","mutagen_history":"[0,1,0,1,0,1,0,1,1,1,1,0,1,1,1,1,0]","location_rts":"[1097,558,556,635,426,448,455,454,857,495,374,406,378,447,505,727,353]","trial_type":"fractal-mutation","trial_index":70,"time_elapsed":1975533,"internal_node_id":"0.0-5.0-31.0"},{"group":"dicyclic group of order 12","fractal_assignment":["../images/grn_red.png","../images/grn_blu.png","../images/grn_prp.png","../images/org_blu.png","../images/red_prp.png","../images/ylw_slt.png","../images/cyn_red.png","../images/wht_red.png","../images/ylw_pnk.png","../images/blu_wht.png","../images/gry_blk.png","../images/pnk_blu.png"],"mutagen_generator_assignment":[1,0],"goal":11,"start":0,"action_noise":0.15,"location_history":"[0,1,5,9,1,2,6,10,2,3,7,8,0,1,2,6,11]","action_history":"[0,1,1,1,0,1,1,1,0,1,0,1,0,1,1,1]","mutagen_history":"[1,0,0,0,1,0,0,0,1,0,1,0,1,0,0,0]","location_rts":"[1125,857,535,346,370,989,489,563,412,638,1338,777,1501,1005,1115,893]","trial_type":"fractal-mutation","trial_index":71,"time_elapsed":2008873,"internal_node_id":"0.0-5.0-32.0"},{"group":"dicyclic group of order 12","fractal_assignment":["../images/grn_red.png","../images/grn_blu.png","../images/grn_prp.png","../images/org_blu.png","../images/red_prp.png","../images/ylw_slt.png","../images/cyn_red.png","../images/wht_red.png","../images/ylw_pnk.png","../images/blu_wht.png","../images/gry_blk.png","../images/pnk_blu.png"],"mutagen_generator_assignment":[1,0],"goal":9,"start":11,"action_noise":0.15,"location_history":"[11,4,8,5,10,7,11,3,0,4,8,5,9]","action_history":"[0,1,0,0,0,1,1,1,1,1,0,1]","mutagen_history":"[1,0,1,1,1,0,0,0,0,0,1,0]","location_rts":"[1015,538,388,864,466,420,482,338,349,375,404,850]","trial_type":"fractal-mutation","trial_index":72,"time_elapsed":2031551,"internal_node_id":"0.0-5.0-33.0"},{"group":"dicyclic group of order 12","fractal_assignment":["../images/grn_red.png","../images/grn_blu.png","../images/grn_prp.png","../images/org_blu.png","../images/red_prp.png","../images/ylw_slt.png","../images/cyn_red.png","../images/wht_red.png","../images/ylw_pnk.png","../images/blu_wht.png","../images/gry_blk.png","../images/pnk_blu.png"],"mutagen_generator_assignment":[1,0],"goal":5,"start":9,"action_noise":0.15,"location_history":"[9,6,10,2,3,7,11,3,7,8,5]","action_history":"[0,1,1,0,1,1,1,1,0,0]","mutagen_history":"[1,0,0,1,0,0,0,0,1,1]","location_rts":"[2181,614,475,860,482,479,708,513,739,479]","trial_type":"fractal-mutation","trial_index":73,"time_elapsed":2053107,"internal_node_id":"0.0-5.0-34.0"},{"view_history":"[{\"page_index\":0,\"viewing_time\":15685}]","rt":15685,"trial_type":"instructions","trial_index":74,"time_elapsed":2069792,"internal_node_id":"0.0-6.0"},{"rt":3205,"responses":"{\"Q0\":\"\"}","trial_type":"survey-text","trial_index":75,"time_elapsed":2074003,"internal_node_id":"0.0-7.0"}]