[{"view_history":"[{\"page_index\":0,\"viewing_time\":65344},{\"page_index\":1,\"viewing_time\":3052}]","rt":68397,"trial_type":"instructions","trial_index":0,"time_elapsed":68399,"internal_node_id":"0.0-0.0"},{"view_history":"[{\"page_index\":0,\"viewing_time\":4042},{\"page_index\":1,\"viewing_time\":1107}]","rt":5150,"trial_type":"instructions","trial_index":1,"time_elapsed":74551,"internal_node_id":"0.0-1.0"},{"group":"dihedral group of order 12","room_assignment":["green","yellow","red","brown","orange","olive","ivory","purple","grey","pink","cyan","blue"],"door_color_assignment":["white","black"],"door_generator_assignment":[0,1],"goal":7,"start":11,"action_noise":0.15,"location_history":"[11,10,4,10,4,10,9,3,9,3,4,5,0,1,7]","action_history":"[0,1,1,1,0,1,1,1,0,1,0,0,0,1]","door_history":"[0,1,1,1,0,1,1,1,0,1,0,0,0,1]","location_rts":"[1357,301,307,934,1955,123,790,2129,334,180,152,214,230,300]","trial_type":"two-door-navigation","trial_index":2,"time_elapsed":101688,"internal_node_id":"0.0-2.0-0.0"},{"group":"dihedral group of order 12","room_assignment":["green","yellow","red","brown","orange","olive","ivory","purple","grey","pink","cyan","blue"],"door_color_assignment":["white","black"],"door_generator_assignment":[0,1],"goal":8,"start":7,"action_noise":0.15,"location_history":"[7,6,11,5,11,10,9,3,9,3,4,10,4,10,4,10,4,5,0,1,7,6,11,5,0,1,7,1,7,1,2,3,9,8]","action_history":"[0,1,1,0,0,0,1,1,0,0,0,1,1,1,0,0,0,0,0,1,0,0,1,0,0,1,1,1,1,0,1,1,1]","door_history":"[0,1,1,0,0,0,1,1,0,0,0,1,1,1,0,0,0,0,0,1,0,0,1,0,0,1,1,1,1,0,1,1,1]","location_rts":"[3827,257,235,292,462,25,932,408,309,172,307,251,175,200,289,63,85,13,332,680,414,330,913,417,321,294,215,94,168,262,316,325,1225]","trial_type":"two-door-navigation","trial_index":3,"time_elapsed":153681,"internal_node_id":"0.0-2.0-1.0"},{"group":"dihedral group of order 12","room_assignment":["green","yellow","red","brown","orange","olive","ivory","purple","grey","pink","cyan","blue"],"door_color_assignment":["white","black"],"door_generator_assignment":[0,1],"goal":4,"start":8,"action_noise":0.15,"location_history":"[8,2,8,7,1,2,8,2,3,9,8,7,6,11,10,9,3,4]","action_history":"[1,1,0,1,0,1,1,0,0,0,1,0,0,0,0,1,0]","door_history":"[1,1,0,1,0,1,1,0,0,0,1,0,0,0,0,1,0]","location_rts":"[546,462,48,336,1923,694,271,50,239,258,86,202,143,331,223,386,7]","trial_type":"two-door-navigation","trial_index":4,"time_elapsed":180950,"internal_node_id":"0.0-2.0-2.0"},{"group":"dihedral group of order 12","room_assignment":["green","yellow","red","brown","orange","olive","ivory","purple","grey","pink","cyan","blue"],"door_color_assignment":["white","black"],"door_generator_assignment":[0,1],"goal":5,"start":4,"action_noise":0.15,"location_history":"[4,5]","action_history":"[0]","door_history":"[0]","location_rts":"[3032]","trial_type":"two-door-navigation","trial_index":5,"time_elapsed":188517,"internal_node_id":"0.0-2.0-3.0"},{"group":"dihedral group of order 12","room_assignment":["green","yellow","red","brown","orange","olive","ivory","purple","grey","pink","cyan","blue"],"door_color_assignment":["white","black"],"door_generator_assignment":[0,1],"goal":10,"start":5,"action_noise":0.15,"location_history":"[5,11,10]","action_history":"[1,0]","door_history":"[1,0]","location_rts":"[659,453]","trial_type":"two-door-navigation","trial_index":6,"time_elapsed":195182,"internal_node_id":"0.0-2.0-4.0"},{"group":"dihedral group of order 12","room_assignment":["green","yellow","red","brown","orange","olive","ivory","purple","grey","pink","cyan","blue"],"door_color_assignment":["white","black"],"door_generator_assignment":[0,1],"goal":1,"start":10,"action_noise":0.15,"location_history":"[10,4,5,0,6,0,1]","action_history":"[1,0,0,1,1,0]","door_history":"[1,0,0,1,1,0]","location_rts":"[3069,661,252,280,5221,2320]","trial_type":"two-door-navigation","trial_index":7,"time_elapsed":216643,"internal_node_id":"0.0-2.0-5.0"},{"group":"dihedral group of order 12","room_assignment":["green","yellow","red","brown","orange","olive","ivory","purple","grey","pink","cyan","blue"],"door_color_assignment":["white","black"],"door_generator_assignment":[0,1],"goal":6,"start":1,"action_noise":0.15,"location_history":"[1,2,3,9,3,4,10,9,3,4,5,11,5,0,6]","action_history":"[0,0,1,1,0,1,1,1,0,0,0,1,0,1]","door_history":"[0,0,1,1,0,1,1,1,0,0,0,1,0,1]","location_rts":"[2236,20309,324,2025,1336,283,369,598,563,79,58152,37604,948,28]","trial_type":"two-door-navigation","trial_index":8,"time_elapsed":359379,"internal_node_id":"0.0-2.0-6.0"},{"group":"dihedral group of order 12","room_assignment":["green","yellow","red","brown","orange","olive","ivory","purple","grey","pink","cyan","blue"],"door_color_assignment":["white","black"],"door_generator_assignment":[0,1],"goal":9,"start":6,"action_noise":0.15,"location_history":"[6,0,1,2,3,9]","action_history":"[1,0,0,0,1]","door_history":"[1,0,0,0,1]","location_rts":"[772,193,50,698,149]","trial_type":"two-door-navigation","trial_index":9,"time_elapsed":369841,"internal_node_id":"0.0-2.0-7.0"},{"group":"dihedral group of order 12","room_assignment":["green","yellow","red","brown","orange","olive","ivory","purple","grey","pink","cyan","blue"],"door_color_assignment":["white","black"],"door_generator_assignment":[0,1],"goal":2,"start":9,"action_noise":0.15,"location_history":"[9,3,4,10,9,8,2]","action_history":"[1,0,1,0,0,1]","door_history":"[1,0,1,0,0,1]","location_rts":"[4039,34,206,277,14731,1205]","trial_type":"two-door-navigation","trial_index":10,"time_elapsed":399962,"internal_node_id":"0.0-2.0-8.0"},{"group":"dihedral group of order 12","room_assignment":["green","yellow","red","brown","orange","olive","ivory","purple","grey","pink","cyan","blue"],"door_color_assignment":["white","black"],"door_generator_assignment":[0,1],"goal":0,"start":2,"action_noise":0.15,"location_history":"[2,3,4,10,4,5,11,5,0]","action_history":"[1,0,1,1,0,1,0,0]","door_history":"[1,0,1,1,0,1,0,0]","location_rts":"[491,802,248,225,352,299,468,82]","trial_type":"two-door-navigation","trial_index":11,"time_elapsed":414683,"internal_node_id":"0.0-2.0-9.0"},{"group":"dihedral group of order 12","room_assignment":["green","yellow","red","brown","orange","olive","ivory","purple","grey","pink","cyan","blue"],"door_color_assignment":["white","black"],"door_generator_assignment":[0,1],"goal":3,"start":0,"action_noise":0.15,"location_history":"[0,6,11,10,4,10,4,10,4,5,0,1,2,8,7,6,11,5,11,5,0,1,7,1,2,8,7,6,0,6,11,10,9,8,7,1,7,1,2,3]","action_history":"[1,0,0,1,1,0,1,1,0,0,1,1,1,0,1,0,1,1,0,0,1,1,1,0,1,1,0,0,1,0,0,0,0,0,1,1,1,0,0]","door_history":"[1,0,0,1,1,0,1,1,0,0,1,1,1,0,1,0,1,1,0,0,1,1,1,0,1,1,0,0,1,0,0,0,0,0,1,1,1,0,0]","location_rts":"[514,92,41,507,1284,5296,454,369,539,11378,184,190,676,308,110,74,98,21600,116,15758,333,3224,5498,873,122,222,11,3,303,21,133,322,338,582,8704,2059,861,609,12537]","trial_type":"two-door-navigation","trial_index":12,"time_elapsed":554586,"internal_node_id":"0.0-2.0-10.0"},{"group":"dihedral group of order 12","room_assignment":["green","yellow","red","brown","orange","olive","ivory","purple","grey","pink","cyan","blue"],"door_color_assignment":["white","black"],"door_generator_assignment":[0,1],"goal":10,"start":3,"action_noise":0.15,"location_history":"[3,4,10]","action_history":"[0,1]","door_history":"[0,1]","location_rts":"[999,233]","trial_type":"two-door-navigation","trial_index":13,"time_elapsed":561371,"internal_node_id":"0.0-2.0-11.0"},{"group":"dihedral group of order 12","room_assignment":["green","yellow","red","brown","orange","olive","ivory","purple","grey","pink","cyan","blue"],"door_color_assignment":["white","black"],"door_generator_assignment":[0,1],"goal":8,"start":10,"action_noise":0.15,"location_history":"[10,4,10,4,5,0,6,11,10,4,5,0,6,0,6,0,1,7,6,11,5,11,5,11,5,0,1,7,6,0,6,0,6,0,1,7,6,11,10,9,3,9,8]","action_history":"[1,1,0,0,1,1,0,0,1,0,0,1,1,1,1,0,1,0,0,1,1,1,1,1,0,0,0,0,1,1,1,1,1,0,1,0,1,1,0,1,1,0]","door_history":"[1,1,0,0,1,1,0,0,1,0,0,1,1,1,1,0,1,0,0,1,1,1,1,1,0,0,0,0,1,1,1,1,1,0,1,0,1,1,0,1,1,0]","location_rts":"[837,246,249,1758,211,12748,316,5409,2708,685,1185,206,186,280,727,231,424,327,181,6,194,71,174,1382,627,116,470,78,314,232,105,40,10313,3254,5499,691,492,339,209,249,151,437]","trial_type":"two-door-navigation","trial_index":14,"time_elapsed":663962,"internal_node_id":"0.0-2.0-12.0"},{"group":"dihedral group of order 12","room_assignment":["green","yellow","red","brown","orange","olive","ivory","purple","grey","pink","cyan","blue"],"door_color_assignment":["white","black"],"door_generator_assignment":[0,1],"goal":4,"start":8,"action_noise":0.15,"location_history":"[8,7,6,11,5,0,1,7,6,0,6,11,10,9,8,2,8,2,8,7,1,2,3,9,3,9,3,4]","action_history":"[0,1,1,1,0,0,1,0,1,1,0,0,0,1,1,1,0,1,0,1,0,0,1,1,1,1,0]","door_history":"[0,1,1,1,0,0,1,0,1,1,0,0,0,1,1,1,0,1,0,1,0,0,1,1,1,1,0]","location_rts":"[763,283,82,352,336,338,7110,762,169,484,224,211,15260,254,10863,2139,954,1197,674,650,225,172,644,143,5083,2217,347]","trial_type":"two-door-navigation","trial_index":15,"time_elapsed":747048,"internal_node_id":"0.0-2.0-13.0"},{"group":"dihedral group of order 12","room_assignment":["green","yellow","red","brown","orange","olive","ivory","purple","grey","pink","cyan","blue"],"door_color_assignment":["white","black"],"door_generator_assignment":[0,1],"goal":0,"start":4,"action_noise":0.15,"location_history":"[4,5,11,5,11,5,0]","action_history":"[0,1,1,1,1,0]","door_history":"[0,1,1,1,1,0]","location_rts":"[623,19,212,6,154,47]","trial_type":"two-door-navigation","trial_index":16,"time_elapsed":757757,"internal_node_id":"0.0-2.0-14.0"},{"group":"dihedral group of order 12","room_assignment":["green","yellow","red","brown","orange","olive","ivory","purple","grey","pink","cyan","blue"],"door_color_assignment":["white","black"],"door_generator_assignment":[0,1],"goal":11,"start":0,"action_noise":0.15,"location_history":"[0,1,7,1,2,8,2,3,9,3,4,5,11]","action_history":"[0,1,1,0,1,1,1,0,1,0,0,1]","door_history":"[0,1,1,0,1,1,1,0,1,0,0,1]","location_rts":"[5208,407,374,16857,1077,1060,877,5055,8163,223,762,354]","trial_type":"two-door-navigation","trial_index":17,"time_elapsed":813941,"internal_node_id":"0.0-2.0-15.0"},{"group":"dihedral group of order 12","room_assignment":["green","yellow","red","brown","orange","olive","ivory","purple","grey","pink","cyan","blue"],"door_color_assignment":["white","black"],"door_generator_assignment":[0,1],"goal":2,"start":11,"action_noise":0.15,"location_history":"[11,10,4,10,4,5,11,10,4,5,11,5,0,1,7,6,0,6,0,1,2]","action_history":"[0,1,1,1,1,0,0,0,0,1,1,0,0,1,0,1,1,1,0,0]","door_history":"[0,1,1,1,1,0,0,0,0,1,1,0,0,1,0,1,1,1,0,0]","location_rts":"[5624,74,71,370,337,77,32,103,349,209,206,229,46,390,337,178,59,94,521,70]","trial_type":"two-door-navigation","trial_index":18,"time_elapsed":847284,"internal_node_id":"0.0-2.0-16.0"},{"group":"dihedral group of order 12","room_assignment":["green","yellow","red","brown","orange","olive","ivory","purple","grey","pink","cyan","blue"],"door_color_assignment":["white","black"],"door_generator_assignment":[0,1],"goal":7,"start":2,"action_noise":0.15,"location_history":"[2,3,9,8,7]","action_history":"[0,1,0,1]","door_history":"[0,1,0,1]","location_rts":"[14754,13138,3194,6460]","trial_type":"two-door-navigation","trial_index":19,"time_elapsed":892423,"internal_node_id":"0.0-2.0-17.0"},{"group":"dihedral group of order 12","room_assignment":["green","yellow","red","brown","orange","olive","ivory","purple","grey","pink","cyan","blue"],"door_color_assignment":["white","black"],"door_generator_assignment":[0,1],"goal":5,"start":7,"action_noise":0.15,"location_history":"[7,6,0,6,0,1,2,3,4,5]","action_history":"[0,1,1,0,0,0,0,0,1]","door_history":"[0,1,1,0,0,0,0,0,1]","location_rts":"[9286,2348,942,682,1807,219,2470,22467,8551]","trial_type":"two-door-navigation","trial_index":20,"time_elapsed":953903,"internal_node_id":"0.0-2.0-18.0"},{"group":"dihedral group of order 12","room_assignment":["green","yellow","red","brown","orange","olive","ivory","purple","grey","pink","cyan","blue"],"door_color_assignment":["white","black"],"door_generator_assignment":[0,1],"goal":6,"start":5,"action_noise":0.15,"location_history":"[5,11,5,11,10,4,5,0,6]","action_history":"[0,1,1,0,1,0,0,1]","door_history":"[0,1,1,0,1,0,0,1]","location_rts":"[811,105,268,4343,235,161,304,154]","trial_type":"two-door-navigation","trial_index":21,"time_elapsed":972017,"internal_node_id":"0.0-2.0-19.0"},{"group":"dihedral group of order 12","room_assignment":["green","yellow","red","brown","orange","olive","ivory","purple","grey","pink","cyan","blue"],"door_color_assignment":["white","black"],"door_generator_assignment":[0,1],"goal":3,"start":6,"action_noise":0.15,"location_history":"[6,11,10,4,10,4,10,4,10,9,8,2,8,2,8,7,1,7,6,11,5,0,6,11,5,0,1,2,3]","action_history":"[1,0,1,0,1,0,1,1,0,1,1,0,1,1,0,1,1,0,0,1,0,1,0,1,0,0,1,0]","door_history":"[1,0,1,0,1,0,1,1,0,1,1,0,1,1,0,1,1,0,0,1,0,1,0,1,0,0,1,0]","location_rts":"[5905,782,323,399,5682,3849,430,3778,416,3143,540,10170,264,352,337,139,615,396,656,93,127,93,689,297,379,738,330,105]","trial_type":"two-door-navigation","trial_index":22,"time_elapsed":1045242,"internal_node_id":"0.0-2.0-20.0"},{"group":"dihedral group of order 12","room_assignment":["green","yellow","red","brown","orange","olive","ivory","purple","grey","pink","cyan","blue"],"door_color_assignment":["white","black"],"door_generator_assignment":[0,1],"goal":1,"start":3,"action_noise":0.15,"location_history":"[3,9,3,4,10,9,8,7,1]","action_history":"[1,0,0,1,0,0,0,0]","door_history":"[1,0,0,1,0,0,0,0]","location_rts":"[27474,596,192,72,351,897,1845,7224]","trial_type":"two-door-navigation","trial_index":23,"time_elapsed":1095599,"internal_node_id":"0.0-2.0-21.0"},{"group":"dihedral group of order 12","room_assignment":["green","yellow","red","brown","orange","olive","ivory","purple","grey","pink","cyan","blue"],"door_color_assignment":["white","black"],"door_generator_assignment":[0,1],"goal":9,"start":1,"action_noise":0.15,"location_history":"[1,7,6,0,1,7,6,11,5,0,1,7,6,0,1,7,1,2,8,2,3,4,10,4,10,9]","action_history":"[1,0,1,0,1,0,0,0,0,0,1,0,1,0,1,1,0,1,1,0,0,1,0,1,0]","door_history":"[1,0,1,0,1,0,0,0,0,0,1,0,1,0,1,1,0,1,1,0,0,1,0,1,0]","location_rts":"[9832,1287,102,430,54,286,341,53,1985,1134,212,271,111,56,109,2597,16156,419,532,6,334,504,350,387,8]","trial_type":"two-door-navigation","trial_index":24,"time_elapsed":1162247,"internal_node_id":"0.0-2.0-22.0"},{"group":"dihedral group of order 12","room_assignment":["green","yellow","red","brown","orange","olive","ivory","purple","grey","pink","cyan","blue"],"door_color_assignment":["white","black"],"door_generator_assignment":[0,1],"goal":3,"start":9,"action_noise":0.15,"location_history":"[9,8,2,8,2,8,7,6,11,5,0,6,11,5,11,10,4,10,9,3]","action_history":"[0,1,1,1,1,0,0,0,1,0,0,1,0,1,0,1,1,0,0]","door_history":"[0,1,1,1,1,0,0,0,1,0,0,1,0,1,0,1,1,0,0]","location_rts":"[9930,398,27,2438,254,99,251,518,444,165,1489,613,890,2493,655,146,578,424,191]","trial_type":"two-door-navigation","trial_index":25,"time_elapsed":1208978,"internal_node_id":"0.0-2.0-23.0"},{"group":"dihedral group of order 12","room_assignment":["green","yellow","red","brown","orange","olive","ivory","purple","grey","pink","cyan","blue"],"door_color_assignment":["white","black"],"door_generator_assignment":[0,1],"goal":4,"start":3,"action_noise":0.15,"location_history":"[3,9,3,4]","action_history":"[1,0,1]","door_history":"[1,0,1]","location_rts":"[7661,307,378]","trial_type":"two-door-navigation","trial_index":26,"time_elapsed":1224894,"internal_node_id":"0.0-2.0-24.0"},{"group":"dihedral group of order 12","room_assignment":["green","yellow","red","brown","orange","olive","ivory","purple","grey","pink","cyan","blue"],"door_color_assignment":["white","black"],"door_generator_assignment":[0,1],"goal":2,"start":4,"action_noise":0.15,"location_history":"[4,10,9,8,2]","action_history":"[1,0,0,0]","door_history":"[1,0,0,0]","location_rts":"[771,125,119,258]","trial_type":"two-door-navigation","trial_index":27,"time_elapsed":1233759,"internal_node_id":"0.0-2.0-25.0"},{"group":"dihedral group of order 12","room_assignment":["green","yellow","red","brown","orange","olive","ivory","purple","grey","pink","cyan","blue"],"door_color_assignment":["white","black"],"door_generator_assignment":[0,1],"goal":1,"start":2,"action_noise":0.15,"location_history":"[2,8,2,8,7,6,0,1]","action_history":"[1,0,1,0,1,1,0]","door_history":"[1,0,1,0,1,1,0]","location_rts":"[708,457,162,301,284,10269,338]","trial_type":"two-door-navigation","trial_index":28,"time_elapsed":1256931,"internal_node_id":"0.0-2.0-26.0"},{"group":"dihedral group of order 12","room_assignment":["green","yellow","red","brown","orange","olive","ivory","purple","grey","pink","cyan","blue"],"door_color_assignment":["white","black"],"door_generator_assignment":[0,1],"goal":8,"start":1,"action_noise":0.15,"location_history":"[1,7,6,11,10,9,8]","action_history":"[1,0,1,0,1,0]","door_history":"[1,0,1,0,1,0]","location_rts":"[580,346,72,75,210,104]","trial_type":"two-door-navigation","trial_index":29,"time_elapsed":1267949,"internal_node_id":"0.0-2.0-27.0"},{"group":"dihedral group of order 12","room_assignment":["green","yellow","red","brown","orange","olive","ivory","purple","grey","pink","cyan","blue"],"door_color_assignment":["white","black"],"door_generator_assignment":[0,1],"goal":10,"start":8,"action_noise":0.15,"location_history":"[8,7,6,11,5,11,5,0,6,0,1,7,6,0,1,2,8,2,3,9,3,4,5,0,6,11,5,11,10]","action_history":"[1,0,1,1,1,1,0,1,1,0,1,0,1,0,1,0,1,1,0,1,0,1,0,1,0,1,1,1]","door_history":"[1,0,1,1,1,1,0,1,1,0,1,0,1,0,1,0,1,1,0,1,0,1,0,1,0,1,1,1]","location_rts":"[749,222,395,354,117,821,289,314,162,418,344,142,338,104,567,60,1019,3093,208,175,161,463,91,21,308,149,62,86]","trial_type":"two-door-navigation","trial_index":30,"time_elapsed":1311440,"internal_node_id":"0.0-2.0-28.0"},{"group":"dihedral group of order 12","room_assignment":["green","yellow","red","brown","orange","olive","ivory","purple","grey","pink","cyan","blue"],"door_color_assignment":["white","black"],"door_generator_assignment":[0,1],"goal":7,"start":10,"action_noise":0.15,"location_history":"[10,9,3,9,3,4,5,11,5,11,5,0,1,7]","action_history":"[0,1,1,0,0,0,1,1,0,1,0,0,1]","door_history":"[0,1,1,0,0,0,1,1,0,1,0,0,1]","location_rts":"[568,34,73,39,84,527,348,201,94,5,49,922,171]","trial_type":"two-door-navigation","trial_index":31,"time_elapsed":1331356,"internal_node_id":"0.0-2.0-29.0"},{"group":"dihedral group of order 12","room_assignment":["green","yellow","red","brown","orange","olive","ivory","purple","grey","pink","cyan","blue"],"door_color_assignment":["white","black"],"door_generator_assignment":[0,1],"goal":6,"start":7,"action_noise":0.15,"location_history":"[7,6]","action_history":"[0]","door_history":"[0]","location_rts":"[12144]","trial_type":"two-door-navigation","trial_index":32,"time_elapsed":1348026,"internal_node_id":"0.0-2.0-30.0"},{"group":"dihedral group of order 12","room_assignment":["green","yellow","red","brown","orange","olive","ivory","purple","grey","pink","cyan","blue"],"door_color_assignment":["white","black"],"door_generator_assignment":[0,1],"goal":0,"start":6,"action_noise":0.15,"location_history":"[6,0]","action_history":"[1]","door_history":"[1]","location_rts":"[591]","trial_type":"two-door-navigation","trial_index":33,"time_elapsed":1353143,"internal_node_id":"0.0-2.0-31.0"},{"group":"dihedral group of order 12","room_assignment":["green","yellow","red","brown","orange","olive","ivory","purple","grey","pink","cyan","blue"],"door_color_assignment":["white","black"],"door_generator_assignment":[0,1],"goal":11,"start":0,"action_noise":0.15,"location_history":"[0,6,0,6,11]","action_history":"[1,1,0,1]","door_history":"[1,1,0,1]","location_rts":"[457,10175,294,306]","trial_type":"two-door-navigation","trial_index":34,"time_elapsed":1371967,"internal_node_id":"0.0-2.0-32.0"},{"group":"dihedral group of order 12","room_assignment":["green","yellow","red","brown","orange","olive","ivory","purple","grey","pink","cyan","blue"],"door_color_assignment":["white","black"],"door_generator_assignment":[0,1],"goal":9,"start":11,"action_noise":0.15,"location_history":"[11,10,4,5,11,5,0,6,0,1,2,8,2,3,4,10,9]","action_history":"[0,1,0,1,1,0,1,1,0,0,1,1,1,0,1,0]","door_history":"[0,1,0,1,1,0,1,1,0,0,1,1,1,0,1,0]","location_rts":"[463,134,200,25,14510,18,130,322,71,554,292,40,212,450,296,386]","trial_type":"two-door-navigation","trial_index":35,"time_elapsed":1410597,"internal_node_id":"0.0-2.0-33.0"},{"group":"dihedral group of order 12","room_assignment":["green","yellow","red","brown","orange","olive","ivory","purple","grey","pink","cyan","blue"],"door_color_assignment":["white","black"],"door_generator_assignment":[0,1],"goal":5,"start":9,"action_noise":0.15,"location_history":"[9,3,9,3,9,3,9,3,4,10,4,5]","action_history":"[0,1,1,0,1,1,1,0,1,0,0]","door_history":"[0,1,1,0,1,1,1,0,1,0,0]","location_rts":"[706,86,1466,197,306,7242,828,1459,142,431,3323]","trial_type":"two-door-navigation","trial_index":36,"time_elapsed":1441578,"internal_node_id":"0.0-2.0-34.0"},{"view_history":"[{\"page_index\":0,\"viewing_time\":2695}]","rt":2695,"trial_type":"instructions","trial_index":37,"time_elapsed":1445274,"internal_node_id":"0.0-3.0"},{"view_history":"[{\"page_index\":0,\"viewing_time\":2590},{\"page_index\":1,\"viewing_time\":1022}]","rt":3612,"trial_type":"instructions","trial_index":38,"time_elapsed":1449887,"internal_node_id":"0.0-4.0"},{"group":"dihedral group of order 12","fractal_assignment":["../images/blu_wht.png","../images/red_prp.png","../images/pnk_blu.png","../images/ylw_slt.png","../images/grn_prp.png","../images/ylw_pnk.png","../images/gry_blk.png","../images/grn_red.png","../images/cyn_red.png","../images/wht_red.png","../images/org_blu.png","../images/grn_blu.png"],"mutagen_generator_assignment":[1,0],"goal":7,"start":11,"action_noise":0.15,"location_history":"[11,5,11,5,0,1,7]","action_history":"[0,1,1,0,0,1]","mutagen_history":"[1,0,0,1,1,0]","location_rts":"[22872,257,1490,1755,277,59]","trial_type":"fractal-mutation","trial_index":39,"time_elapsed":1487021,"internal_node_id":"0.0-5.0-0.0"},{"group":"dihedral group of order 12","fractal_assignment":["../images/blu_wht.png","../images/red_prp.png","../images/pnk_blu.png","../images/ylw_slt.png","../images/grn_prp.png","../images/ylw_pnk.png","../images/gry_blk.png","../images/grn_red.png","../images/cyn_red.png","../images/wht_red.png","../images/org_blu.png","../images/grn_blu.png"],"mutagen_generator_assignment":[1,0],"goal":8,"start":7,"action_noise":0.15,"location_history":"[7,1,7,6,0,1,2,3,4,5,11,5,11,10,4,5,11,5,0,6,11,10,4,10,9,3,9,8]","action_history":"[1,1,1,1,0,0,0,0,0,1,1,0,0,0,0,1,1,0,1,0,0,1,1,1,1,1,0]","mutagen_history":"[0,0,0,0,1,1,1,1,1,0,0,1,1,1,1,0,0,1,0,1,1,0,0,0,0,0,1]","location_rts":"[236,2274,6721,4207,220,192,106,259,267,32,302,138,4033,2544,22203,65,2134,283,3765,3272,460,615,428,381,259,209,471]","trial_type":"fractal-mutation","trial_index":40,"time_elapsed":1577274,"internal_node_id":"0.0-5.0-1.0"},{"group":"dihedral group of order 12","fractal_assignment":["../images/blu_wht.png","../images/red_prp.png","../images/pnk_blu.png","../images/ylw_slt.png","../images/grn_prp.png","../images/ylw_pnk.png","../images/gry_blk.png","../images/grn_red.png","../images/cyn_red.png","../images/wht_red.png","../images/org_blu.png","../images/grn_blu.png"],"mutagen_generator_assignment":[1,0],"goal":4,"start":8,"action_noise":0.15,"location_history":"[8,7,6,11,5,11,5,0,6,0,6,11,10,4]","action_history":"[0,0,0,1,1,1,0,0,1,1,0,0,1]","mutagen_history":"[1,1,1,0,0,0,1,1,0,0,1,1,0]","location_rts":"[384,134,368,273,227,173,143,1188,303,126,108,148,98]","trial_type":"fractal-mutation","trial_index":41,"time_elapsed":1599394,"internal_node_id":"0.0-5.0-2.0"},{"group":"dihedral group of order 12","fractal_assignment":["../images/blu_wht.png","../images/red_prp.png","../images/pnk_blu.png","../images/ylw_slt.png","../images/grn_prp.png","../images/ylw_pnk.png","../images/gry_blk.png","../images/grn_red.png","../images/cyn_red.png","../images/wht_red.png","../images/org_blu.png","../images/grn_blu.png"],"mutagen_generator_assignment":[1,0],"goal":5,"start":4,"action_noise":0.15,"location_history":"[4,10,9,8,7,1,2,3,4,5]","action_history":"[1,0,0,0,1,1,0,0,0]","mutagen_history":"[0,1,1,1,0,0,1,1,1]","location_rts":"[613,251,237,412,135,541,383,150,3066]","trial_type":"fractal-mutation","trial_index":42,"time_elapsed":1619052,"internal_node_id":"0.0-5.0-3.0"},{"group":"dihedral group of order 12","fractal_assignment":["../images/blu_wht.png","../images/red_prp.png","../images/pnk_blu.png","../images/ylw_slt.png","../images/grn_prp.png","../images/ylw_pnk.png","../images/gry_blk.png","../images/grn_red.png","../images/cyn_red.png","../images/wht_red.png","../images/org_blu.png","../images/grn_blu.png"],"mutagen_generator_assignment":[1,0],"goal":10,"start":5,"action_noise":0.15,"location_history":"[5,0,6,0,6,11,5,11,10]","action_history":"[0,1,1,0,0,1,1,0]","mutagen_history":"[1,0,0,1,1,0,0,1]","location_rts":"[538,113,57,873,194,622,85,29]","trial_type":"fractal-mutation","trial_index":43,"time_elapsed":1634233,"internal_node_id":"0.0-5.0-4.0"},{"group":"dihedral group of order 12","fractal_assignment":["../images/blu_wht.png","../images/red_prp.png","../images/pnk_blu.png","../images/ylw_slt.png","../images/grn_prp.png","../images/ylw_pnk.png","../images/gry_blk.png","../images/grn_red.png","../images/cyn_red.png","../images/wht_red.png","../images/org_blu.png","../images/grn_blu.png"],"mutagen_generator_assignment":[1,0],"goal":1,"start":10,"action_noise":0.15,"location_history":"[10,9,3,9,8,7,6,11,5,11,5,0,1]","action_history":"[0,1,1,0,0,0,1,1,1,0,0,0]","mutagen_history":"[1,0,0,1,1,1,0,0,0,1,1,1]","location_rts":"[462,528,39,197,73,102,75,551,345,367,405,663]","trial_type":"fractal-mutation","trial_index":44,"time_elapsed":1655402,"internal_node_id":"0.0-5.0-5.0"},{"group":"dihedral group of order 12","fractal_assignment":["../images/blu_wht.png","../images/red_prp.png","../images/pnk_blu.png","../images/ylw_slt.png","../images/grn_prp.png","../images/ylw_pnk.png","../images/gry_blk.png","../images/grn_red.png","../images/cyn_red.png","../images/wht_red.png","../images/org_blu.png","../images/grn_blu.png"],"mutagen_generator_assignment":[1,0],"goal":6,"start":1,"action_noise":0.15,"location_history":"[1,7,1,7,1,2,3,4,5,0,1,7,1,7,1,7,6]","action_history":"[0,1,1,1,0,0,0,0,1,1,1,1,1,1,1,0]","mutagen_history":"[1,0,0,0,1,1,1,1,0,0,0,0,0,0,0,1]","location_rts":"[3490,153,234,519,59,3066,10251,289,182,189,240,262,1551,8686,1349,434]","trial_type":"fractal-mutation","trial_index":45,"time_elapsed":1708661,"internal_node_id":"0.0-5.0-6.0"},{"group":"dihedral group of order 12","fractal_assignment":["../images/blu_wht.png","../images/red_prp.png","../images/pnk_blu.png","../images/ylw_slt.png","../images/grn_prp.png","../images/ylw_pnk.png","../images/gry_blk.png","../images/grn_red.png","../images/cyn_red.png","../images/wht_red.png","../images/org_blu.png","../images/grn_blu.png"],"mutagen_generator_assignment":[1,0],"goal":9,"start":6,"action_noise":0.15,"location_history":"[6,11,10,4,10,4,5,0,6,0,1,2,8,2,8,7,6,11,5,11,10,9]","action_history":"[0,1,1,1,1,1,0,1,1,0,0,1,1,1,1,0,0,1,1,0,0]","mutagen_history":"[1,0,0,0,0,0,1,0,0,1,1,0,0,0,0,1,1,0,0,1,1]","location_rts":"[654,4125,2070,832,3090,4118,268,644,7404,302,46,310,210,403,741,1005,173,249,198,69,281]","trial_type":"fractal-mutation","trial_index":46,"time_elapsed":1763270,"internal_node_id":"0.0-5.0-7.0"},{"group":"dihedral group of order 12","fractal_assignment":["../images/blu_wht.png","../images/red_prp.png","../images/pnk_blu.png","../images/ylw_slt.png","../images/grn_prp.png","../images/ylw_pnk.png","../images/gry_blk.png","../images/grn_red.png","../images/cyn_red.png","../images/wht_red.png","../images/org_blu.png","../images/grn_blu.png"],"mutagen_generator_assignment":[1,0],"goal":2,"start":9,"action_noise":0.15,"location_history":"[9,8,7,6,11,10,4,10,4,10,4,5,0,6,0,1,2]","action_history":"[1,0,0,0,0,1,1,1,1,0,0,0,1,1,0,0]","mutagen_history":"[0,1,1,1,1,0,0,0,0,1,1,1,0,0,1,1]","location_rts":"[334,103,487,491,303,113,717,612,84,916,491,180,105,98,120,148]","trial_type":"fractal-mutation","trial_index":47,"time_elapsed":1790377,"internal_node_id":"0.0-5.0-8.0"},{"group":"dihedral group of order 12","fractal_assignment":["../images/blu_wht.png","../images/red_prp.png","../images/pnk_blu.png","../images/ylw_slt.png","../images/grn_prp.png","../images/ylw_pnk.png","../images/gry_blk.png","../images/grn_red.png","../images/cyn_red.png","../images/wht_red.png","../images/org_blu.png","../images/grn_blu.png"],"mutagen_generator_assignment":[1,0],"goal":0,"start":2,"action_noise":0.15,"location_history":"[2,8,7,6,11,10,9,8,7,6,11,10,4,5,0]","action_history":"[1,0,0,1,1,0,0,0,1,1,1,1,0,0]","mutagen_history":"[0,1,1,0,0,1,1,1,0,0,0,0,1,1]","location_rts":"[147,269,126,0,141,56,31,103,78,25,92,215,116,201]","trial_type":"fractal-mutation","trial_index":48,"time_elapsed":1811507,"internal_node_id":"0.0-5.0-9.0"},{"group":"dihedral group of order 12","fractal_assignment":["../images/blu_wht.png","../images/red_prp.png","../images/pnk_blu.png","../images/ylw_slt.png","../images/grn_prp.png","../images/ylw_pnk.png","../images/gry_blk.png","../images/grn_red.png","../images/cyn_red.png","../images/wht_red.png","../images/org_blu.png","../images/grn_blu.png"],"mutagen_generator_assignment":[1,0],"goal":3,"start":0,"action_noise":0.15,"location_history":"[0,1,7,1,2,3]","action_history":"[0,1,1,0,0]","mutagen_history":"[1,0,0,1,1]","location_rts":"[94,81,127,234,272]","trial_type":"fractal-mutation","trial_index":49,"time_elapsed":1821607,"internal_node_id":"0.0-5.0-10.0"},{"group":"dihedral group of order 12","fractal_assignment":["../images/blu_wht.png","../images/red_prp.png","../images/pnk_blu.png","../images/ylw_slt.png","../images/grn_prp.png","../images/ylw_pnk.png","../images/gry_blk.png","../images/grn_red.png","../images/cyn_red.png","../images/wht_red.png","../images/org_blu.png","../images/grn_blu.png"],"mutagen_generator_assignment":[1,0],"goal":10,"start":3,"action_noise":0.15,"location_history":"[3,9,3,4,5,0,6,0,6,11,10]","action_history":"[1,1,0,0,0,1,1,1,0,0]","mutagen_history":"[0,0,1,1,1,0,0,0,1,1]","location_rts":"[784,139,861,185,229,39,190,20,43,242]","trial_type":"fractal-mutation","trial_index":50,"time_elapsed":1839154,"internal_node_id":"0.0-5.0-11.0"},{"group":"dihedral group of order 12","fractal_assignment":["../images/blu_wht.png","../images/red_prp.png","../images/pnk_blu.png","../images/ylw_slt.png","../images/grn_prp.png","../images/ylw_pnk.png","../images/gry_blk.png","../images/grn_red.png","../images/cyn_red.png","../images/wht_red.png","../images/org_blu.png","../images/grn_blu.png"],"mutagen_generator_assignment":[1,0],"goal":8,"start":10,"action_noise":0.15,"location_history":"[10,9,8]","action_history":"[0,0]","mutagen_history":"[1,1]","location_rts":"[496,179]","trial_type":"fractal-mutation","trial_index":51,"time_elapsed":1845691,"internal_node_id":"0.0-5.0-12.0"},{"group":"dihedral group of order 12","fractal_assignment":["../images/blu_wht.png","../images/red_prp.png","../images/pnk_blu.png","../images/ylw_slt.png","../images/grn_prp.png","../images/ylw_pnk.png","../images/gry_blk.png","../images/grn_red.png","../images/cyn_red.png","../images/wht_red.png","../images/org_blu.png","../images/grn_blu.png"],"mutagen_generator_assignment":[1,0],"goal":4,"start":8,"action_noise":0.15,"location_history":"[8,7,6,0,6,11,10,4]","action_history":"[0,0,1,1,0,0,1]","mutagen_history":"[1,1,0,0,1,1,0]","location_rts":"[474,1279,236,182,300,55,169]","trial_type":"fractal-mutation","trial_index":52,"time_elapsed":1859984,"internal_node_id":"0.0-5.0-13.0"},{"group":"dihedral group of order 12","fractal_assignment":["../images/blu_wht.png","../images/red_prp.png","../images/pnk_blu.png","../images/ylw_slt.png","../images/grn_prp.png","../images/ylw_pnk.png","../images/gry_blk.png","../images/grn_red.png","../images/cyn_red.png","../images/wht_red.png","../images/org_blu.png","../images/grn_blu.png"],"mutagen_generator_assignment":[1,0],"goal":0,"start":4,"action_noise":0.15,"location_history":"[4,5,0]","action_history":"[0,0]","mutagen_history":"[1,1]","location_rts":"[553,291]","trial_type":"fractal-mutation","trial_index":53,"time_elapsed":1866664,"internal_node_id":"0.0-5.0-14.0"},{"group":"dihedral group of order 12","fractal_assignment":["../images/blu_wht.png","../images/red_prp.png","../images/pnk_blu.png","../images/ylw_slt.png","../images/grn_prp.png","../images/ylw_pnk.png","../images/gry_blk.png","../images/grn_red.png","../images/cyn_red.png","../images/wht_red.png","../images/org_blu.png","../images/grn_blu.png"],"mutagen_generator_assignment":[1,0],"goal":11,"start":0,"action_noise":0.15,"location_history":"[0,6,0,1,2,8,7,6,0,1,2,8,2,3,4,5,11]","action_history":"[1,0,0,0,1,0,0,1,0,0,1,1,0,0,1,1]","mutagen_history":"[0,1,1,1,0,1,1,0,1,1,0,0,1,1,0,0]","location_rts":"[436,143,347,168,12341,230,1377,112,204,193,124,48,159,420,116,80]","trial_type":"fractal-mutation","trial_index":54,"time_elapsed":1905075,"internal_node_id":"0.0-5.0-15.0"},{"group":"dihedral group of order 12","fractal_assignment":["../images/blu_wht.png","../images/red_prp.png","../images/pnk_blu.png","../images/ylw_slt.png","../images/grn_prp.png","../images/ylw_pnk.png","../images/gry_blk.png","../images/grn_red.png","../images/cyn_red.png","../images/wht_red.png","../images/org_blu.png","../images/grn_blu.png"],"mutagen_generator_assignment":[1,0],"goal":2,"start":11,"action_noise":0.15,"location_history":"[11,10,4,10,4,5,0,6,0,6,0,6,0,6,0,1,2]","action_history":"[0,1,1,0,0,0,1,1,1,0,0,1,1,0,0,0]","mutagen_history":"[1,0,0,1,1,1,0,0,0,1,1,0,0,1,1,1]","location_rts":"[340,221,54,180,48,287,176,835,408,854,418,129,22,265,258,4]","trial_type":"fractal-mutation","trial_index":55,"time_elapsed":1931424,"internal_node_id":"0.0-5.0-16.0"},{"group":"dihedral group of order 12","fractal_assignment":["../images/blu_wht.png","../images/red_prp.png","../images/pnk_blu.png","../images/ylw_slt.png","../images/grn_prp.png","../images/ylw_pnk.png","../images/gry_blk.png","../images/grn_red.png","../images/cyn_red.png","../images/wht_red.png","../images/org_blu.png","../images/grn_blu.png"],"mutagen_generator_assignment":[1,0],"goal":7,"start":2,"action_noise":0.15,"location_history":"[2,8,7]","action_history":"[0,0]","mutagen_history":"[1,1]","location_rts":"[348,214]","trial_type":"fractal-mutation","trial_index":56,"time_elapsed":1937871,"internal_node_id":"0.0-5.0-17.0"},{"group":"dihedral group of order 12","fractal_assignment":["../images/blu_wht.png","../images/red_prp.png","../images/pnk_blu.png","../images/ylw_slt.png","../images/grn_prp.png","../images/ylw_pnk.png","../images/gry_blk.png","../images/grn_red.png","../images/cyn_red.png","../images/wht_red.png","../images/org_blu.png","../images/grn_blu.png"],"mutagen_generator_assignment":[1,0],"goal":5,"start":7,"action_noise":0.15,"location_history":"[7,1,2,8,2,3,4,5]","action_history":"[1,0,1,1,0,0,1]","mutagen_history":"[0,1,0,0,1,1,0]","location_rts":"[1236,416,133,128,44,192,244]","trial_type":"fractal-mutation","trial_index":57,"time_elapsed":1951840,"internal_node_id":"0.0-5.0-18.0"},{"group":"dihedral group of order 12","fractal_assignment":["../images/blu_wht.png","../images/red_prp.png","../images/pnk_blu.png","../images/ylw_slt.png","../images/grn_prp.png","../images/ylw_pnk.png","../images/gry_blk.png","../images/grn_red.png","../images/cyn_red.png","../images/wht_red.png","../images/org_blu.png","../images/grn_blu.png"],"mutagen_generator_assignment":[1,0],"goal":6,"start":5,"action_noise":0.15,"location_history":"[5,0,1,7,6]","action_history":"[0,1,1,0]","mutagen_history":"[1,0,0,1]","location_rts":"[138,125,173,1]","trial_type":"fractal-mutation","trial_index":58,"time_elapsed":1960342,"internal_node_id":"0.0-5.0-19.0"},{"group":"dihedral group of order 12","fractal_assignment":["../images/blu_wht.png","../images/red_prp.png","../images/pnk_blu.png","../images/ylw_slt.png","../images/grn_prp.png","../images/ylw_pnk.png","../images/gry_blk.png","../images/grn_red.png","../images/cyn_red.png","../images/wht_red.png","../images/org_blu.png","../images/grn_blu.png"],"mutagen_generator_assignment":[1,0],"goal":3,"start":6,"action_noise":0.15,"location_history":"[6,11,10,4,5,0,1,7,6,11,5,11,5,11,10,9,8,7,1,7,6,11,10,9,8,7,6,0,1,2,8,7,1,2,3]","action_history":"[0,1,1,0,0,1,1,0,0,1,1,1,1,0,0,0,0,1,1,0,0,0,0,0,0,0,1,0,1,1,0,1,0,1]","mutagen_history":"[1,0,0,1,1,0,0,1,1,0,0,0,0,1,1,1,1,0,0,1,1,1,1,1,1,1,0,1,0,0,1,0,1,0]","location_rts":"[478,205,264,256,442,149,264,7,188,152,298,210,60,24,132,132,402,242,784,102,275,191,0,90,42,48,91,194,139,83,226,84,179,150]","trial_type":"fractal-mutation","trial_index":59,"time_elapsed":2009577,"internal_node_id":"0.0-5.0-20.0"},{"group":"dihedral group of order 12","fractal_assignment":["../images/blu_wht.png","../images/red_prp.png","../images/pnk_blu.png","../images/ylw_slt.png","../images/grn_prp.png","../images/ylw_pnk.png","../images/gry_blk.png","../images/grn_red.png","../images/cyn_red.png","../images/wht_red.png","../images/org_blu.png","../images/grn_blu.png"],"mutagen_generator_assignment":[1,0],"goal":1,"start":3,"action_noise":0.15,"location_history":"[3,9,8,2,8,2,3,4,5,11,5,0,6,11,5,11,10,4,10,4,5,11,10,4,5,11,5,11,5,0,6,0,6,11,5,0,6,0,1]","action_history":"[1,0,0,1,1,0,0,1,1,0,0,1,1,1,0,0,1,1,1,0,1,0,1,1,1,1,1,1,0,1,1,1,0,1,0,0,0,0]","mutagen_history":"[0,1,1,0,0,1,1,0,0,1,1,0,0,0,1,1,0,0,0,1,0,1,0,0,0,0,0,0,1,0,0,0,1,0,1,1,1,1]","location_rts":"[478,105,121,80,486,298,117,357,590,5682,171,37,94,374,857,379,2,141,518,511,207,411,352,412,606,609,642,504,291,453,694,667,584,189,363,886,205,359]","trial_type":"fractal-mutation","trial_index":60,"time_elapsed":2076813,"internal_node_id":"0.0-5.0-21.0"},{"group":"dihedral group of order 12","fractal_assignment":["../images/blu_wht.png","../images/red_prp.png","../images/pnk_blu.png","../images/ylw_slt.png","../images/grn_prp.png","../images/ylw_pnk.png","../images/gry_blk.png","../images/grn_red.png","../images/cyn_red.png","../images/wht_red.png","../images/org_blu.png","../images/grn_blu.png"],"mutagen_generator_assignment":[1,0],"goal":9,"start":1,"action_noise":0.15,"location_history":"[1,2,3,9]","action_history":"[0,0,1]","mutagen_history":"[1,1,0]","location_rts":"[6713,453,192]","trial_type":"fractal-mutation","trial_index":61,"time_elapsed":2091153,"internal_node_id":"0.0-5.0-22.0"},{"group":"dihedral group of order 12","fractal_assignment":["../images/blu_wht.png","../images/red_prp.png","../images/pnk_blu.png","../images/ylw_slt.png","../images/grn_prp.png","../images/ylw_pnk.png","../images/gry_blk.png","../images/grn_red.png","../images/cyn_red.png","../images/wht_red.png","../images/org_blu.png","../images/grn_blu.png"],"mutagen_generator_assignment":[1,0],"goal":3,"start":9,"action_noise":0.15,"location_history":"[9,8,7,1,7,6,11,10,9,8,7,1,2,3]","action_history":"[0,0,1,1,0,0,0,0,0,1,1,0,0]","mutagen_history":"[1,1,0,0,1,1,1,1,1,0,0,1,1]","location_rts":"[510,370,333,126,24,86,93,156,354,272,65,494,487]","trial_type":"fractal-mutation","trial_index":62,"time_elapsed":2113089,"internal_node_id":"0.0-5.0-23.0"},{"group":"dihedral group of order 12","fractal_assignment":["../images/blu_wht.png","../images/red_prp.png","../images/pnk_blu.png","../images/ylw_slt.png","../images/grn_prp.png","../images/ylw_pnk.png","../images/gry_blk.png","../images/grn_red.png","../images/cyn_red.png","../images/wht_red.png","../images/org_blu.png","../images/grn_blu.png"],"mutagen_generator_assignment":[1,0],"goal":4,"start":3,"action_noise":0.15,"location_history":"[3,4]","action_history":"[0]","mutagen_history":"[1]","location_rts":"[230]","trial_type":"fractal-mutation","trial_index":63,"time_elapsed":2117993,"internal_node_id":"0.0-5.0-24.0"},{"group":"dihedral group of order 12","fractal_assignment":["../images/blu_wht.png","../images/red_prp.png","../images/pnk_blu.png","../images/ylw_slt.png","../images/grn_prp.png","../images/ylw_pnk.png","../images/gry_blk.png","../images/grn_red.png","../images/cyn_red.png","../images/wht_red.png","../images/org_blu.png","../images/grn_blu.png"],"mutagen_generator_assignment":[1,0],"goal":2,"start":4,"action_noise":0.15,"location_history":"[4,5,11,5,11,10,9,8,2]","action_history":"[0,1,1,1,0,0,1,1]","mutagen_history":"[1,0,0,0,1,1,0,0]","location_rts":"[563,235,492,61,620,267,57,181]","trial_type":"fractal-mutation","trial_index":64,"time_elapsed":2133175,"internal_node_id":"0.0-5.0-25.0"},{"group":"dihedral group of order 12","fractal_assignment":["../images/blu_wht.png","../images/red_prp.png","../images/pnk_blu.png","../images/ylw_slt.png","../images/grn_prp.png","../images/ylw_pnk.png","../images/gry_blk.png","../images/grn_red.png","../images/cyn_red.png","../images/wht_red.png","../images/org_blu.png","../images/grn_blu.png"],"mutagen_generator_assignment":[1,0],"goal":1,"start":2,"action_noise":0.15,"location_history":"[2,3,9,3,4,10,9,3,9,8,7,6,11,10,4,10,4,10,9,8,2,3,9,8,2,8,2,8,2,8,2,3,9,8,7,6,11,10,4,10,4,5,11,5,0,6,11,10,4,5,0,1]","action_history":"[0,1,1,0,1,0,1,1,0,0,1,0,0,1,1,1,1,0,0,0,0,1,0,1,1,1,1,1,1,1,0,1,1,0,0,0,0,1,1,0,0,0,0,0,1,0,0,1,0,0,0]","mutagen_history":"[1,0,0,1,0,1,0,0,1,1,0,1,1,0,0,0,0,1,1,1,1,0,1,0,0,0,0,0,0,0,1,0,0,1,1,1,1,0,0,1,1,1,1,1,0,1,1,0,1,1,1]","location_rts":"[536,116,344,16,376,80,68,84,209,166,210,155,407,104,598,124,23,232,105,636,399,173,1219,839,220,251,104,201,408,197,196,532,824,124,201,109,638,230,478,63,252,64,422,787,635,986,257,439,148,126,388]","trial_type":"fractal-mutation","trial_index":65,"time_elapsed":2211916,"internal_node_id":"0.0-5.0-26.0"},{"group":"dihedral group of order 12","fractal_assignment":["../images/blu_wht.png","../images/red_prp.png","../images/pnk_blu.png","../images/ylw_slt.png","../images/grn_prp.png","../images/ylw_pnk.png","../images/gry_blk.png","../images/grn_red.png","../images/cyn_red.png","../images/wht_red.png","../images/org_blu.png","../images/grn_blu.png"],"mutagen_generator_assignment":[1,0],"goal":8,"start":1,"action_noise":0.15,"location_history":"[1,2,8]","action_history":"[0,1]","mutagen_history":"[1,0]","location_rts":"[1474,490]","trial_type":"fractal-mutation","trial_index":66,"time_elapsed":2219676,"internal_node_id":"0.0-5.0-27.0"},{"group":"dihedral group of order 12","fractal_assignment":["../images/blu_wht.png","../images/red_prp.png","../images/pnk_blu.png","../images/ylw_slt.png","../images/grn_prp.png","../images/ylw_pnk.png","../images/gry_blk.png","../images/grn_red.png","../images/cyn_red.png","../images/wht_red.png","../images/org_blu.png","../images/grn_blu.png"],"mutagen_generator_assignment":[1,0],"goal":10,"start":8,"action_noise":0.15,"location_history":"[8,2,3,4,5,11,10]","action_history":"[1,0,0,0,1,1]","mutagen_history":"[0,1,1,1,0,0]","location_rts":"[394,146,174,398,136,912]","trial_type":"fractal-mutation","trial_index":67,"time_elapsed":2232136,"internal_node_id":"0.0-5.0-28.0"},{"group":"dihedral group of order 12","fractal_assignment":["../images/blu_wht.png","../images/red_prp.png","../images/pnk_blu.png","../images/ylw_slt.png","../images/grn_prp.png","../images/ylw_pnk.png","../images/gry_blk.png","../images/grn_red.png","../images/cyn_red.png","../images/wht_red.png","../images/org_blu.png","../images/grn_blu.png"],"mutagen_generator_assignment":[1,0],"goal":7,"start":10,"action_noise":0.15,"location_history":"[10,4,5,0,6,0,6,0,1,2,3,4,10,9,8,7]","action_history":"[1,0,0,1,1,1,1,0,0,0,1,1,0,0,0]","mutagen_history":"[0,1,1,0,0,0,0,1,1,1,0,0,1,1,1]","location_rts":"[516,9,913,0,186,174,700,256,554,415,43,358,53,11,45]","trial_type":"fractal-mutation","trial_index":68,"time_elapsed":2257044,"internal_node_id":"0.0-5.0-29.0"},{"group":"dihedral group of order 12","fractal_assignment":["../images/blu_wht.png","../images/red_prp.png","../images/pnk_blu.png","../images/ylw_slt.png","../images/grn_prp.png","../images/ylw_pnk.png","../images/gry_blk.png","../images/grn_red.png","../images/cyn_red.png","../images/wht_red.png","../images/org_blu.png","../images/grn_blu.png"],"mutagen_generator_assignment":[1,0],"goal":6,"start":7,"action_noise":0.15,"location_history":"[7,1,2,8,7,6]","action_history":"[1,0,1,0,0]","mutagen_history":"[0,1,0,1,1]","location_rts":"[672,126,407,664,167]","trial_type":"fractal-mutation","trial_index":69,"time_elapsed":2268310,"internal_node_id":"0.0-5.0-30.0"},{"group":"dihedral group of order 12","fractal_assignment":["../images/blu_wht.png","../images/red_prp.png","../images/pnk_blu.png","../images/ylw_slt.png","../images/grn_prp.png","../images/ylw_pnk.png","../images/gry_blk.png","../images/grn_red.png","../images/cyn_red.png","../images/wht_red.png","../images/org_blu.png","../images/grn_blu.png"],"mutagen_generator_assignment":[1,0],"goal":0,"start":6,"action_noise":0.15,"location_history":"[6,0]","action_history":"[1]","mutagen_history":"[0]","location_rts":"[379]","trial_type":"fractal-mutation","trial_index":70,"time_elapsed":2273221,"internal_node_id":"0.0-5.0-31.0"},{"group":"dihedral group of order 12","fractal_assignment":["../images/blu_wht.png","../images/red_prp.png","../images/pnk_blu.png","../images/ylw_slt.png","../images/grn_prp.png","../images/ylw_pnk.png","../images/gry_blk.png","../images/grn_red.png","../images/cyn_red.png","../images/wht_red.png","../images/org_blu.png","../images/grn_blu.png"],"mutagen_generator_assignment":[1,0],"goal":11,"start":0,"action_noise":0.15,"location_history":"[0,1,2,8,2,3,4,10,4,10,9,3,4,5,0,1,7,1,2,8,2,8,7,1,2,3,9,8,7,1,2,3,4,5,11]","action_history":"[0,0,1,1,0,0,1,1,0,0,1,1,0,0,0,1,1,0,1,1,1,0,0,0,0,1,1,0,1,0,0,0,0,1]","mutagen_history":"[1,1,0,0,1,1,0,0,1,1,0,0,1,1,1,0,0,1,0,0,0,1,1,1,1,0,0,1,0,1,1,1,1,0]","location_rts":"[429,180,686,177,323,225,16,122,116,261,91,566,513,325,1264,429,576,2116,1746,395,33,447,142,205,245,61,688,142,923,297,206,610,23,612]","trial_type":"fractal-mutation","trial_index":71,"time_elapsed":2331004,"internal_node_id":"0.0-5.0-32.0"},{"group":"dihedral group of order 12","fractal_assignment":["../images/blu_wht.png","../images/red_prp.png","../images/pnk_blu.png","../images/ylw_slt.png","../images/grn_prp.png","../images/ylw_pnk.png","../images/gry_blk.png","../images/grn_red.png","../images/cyn_red.png","../images/wht_red.png","../images/org_blu.png","../images/grn_blu.png"],"mutagen_generator_assignment":[1,0],"goal":9,"start":11,"action_noise":0.15,"location_history":"[11,5,0,1,7,1,2,3,9]","action_history":"[1,0,0,1,1,0,0,1]","mutagen_history":"[0,1,1,0,0,1,1,0]","location_rts":"[587,115,111,29,432,60,185,859]","trial_type":"fractal-mutation","trial_index":72,"time_elapsed":2345982,"internal_node_id":"0.0-5.0-33.0"},{"group":"dihedral group of order 12","fractal_assignment":["../images/blu_wht.png","../images/red_prp.png","../images/pnk_blu.png","../images/ylw_slt.png","../images/grn_prp.png","../images/ylw_pnk.png","../images/gry_blk.png","../images/grn_red.png","../images/cyn_red.png","../images/wht_red.png","../images/org_blu.png","../images/grn_blu.png"],"mutagen_generator_assignment":[1,0],"goal":5,"start":9,"action_noise":0.15,"location_history":"[9,3,4,10,9,8,7,1,2,3,9,3,9,8,7,1,7,6,11,10,9,3,9,8,7,1,7,1,7,6,11,5]","action_history":"[1,0,0,0,0,0,1,0,1,1,1,1,1,0,1,1,1,0,0,0,1,1,0,0,1,1,1,1,0,0,1]","mutagen_history":"[0,1,1,1,1,1,0,1,0,0,0,0,0,1,0,0,0,1,1,1,0,0,1,1,0,0,0,0,1,1,0]","location_rts":"[552,121,29,306,184,166,0,482,391,62,199,288,162,121,282,108,85,310,442,82,168,505,118,58,164,60,123,170,248,222,401]","trial_type":"fractal-mutation","trial_index":73,"time_elapsed":2391612,"internal_node_id":"0.0-5.0-34.0"},{"view_history":"[{\"page_index\":0,\"viewing_time\":6564}]","rt":6565,"trial_type":"instructions","trial_index":74,"time_elapsed":2399178,"internal_node_id":"0.0-6.0"},{"rt":1091,"responses":"{\"Q0\":\"\"}","trial_type":"survey-text","trial_index":75,"time_elapsed":2401281,"internal_node_id":"0.0-7.0"}]