[{"view_history":"[{\"page_index\":0,\"viewing_time\":641107},{\"page_index\":1,\"viewing_time\":12587}]","rt":653698,"trial_type":"instructions","trial_index":0,"time_elapsed":653703,"internal_node_id":"0.0-0.0"},{"view_history":"[{\"page_index\":0,\"viewing_time\":3098},{\"page_index\":1,\"viewing_time\":27748}]","rt":30849,"trial_type":"instructions","trial_index":1,"time_elapsed":685565,"internal_node_id":"0.0-1.0"},{"group":"dicyclic group of order 12","room_assignment":["cyan","orange","grey","green","pink","purple","red","brown","blue","ivory","yellow","olive"],"door_color_assignment":["white","black"],"door_generator_assignment":[1,0],"goal":7,"start":11,"action_noise":0.15,"location_history":"[11,4,9,1,2,3,0,4,9,6,11,3,7]","action_history":"[0,0,1,0,0,0,1,1,0,0,1,1]","door_history":"[1,1,0,1,1,1,0,0,1,1,0,0]","location_rts":"[976,387,361,561,308,477,318,475,362,360,1418,324]","trial_type":"two-door-navigation","trial_index":2,"time_elapsed":708954,"internal_node_id":"0.0-2.0-0.0"},{"group":"dicyclic group of order 12","room_assignment":["cyan","orange","grey","green","pink","purple","red","brown","blue","ivory","yellow","olive"],"door_color_assignment":["white","black"],"door_generator_assignment":[1,0],"goal":8,"start":7,"action_noise":0.15,"location_history":"[7,11,3,0,1,2,3,0,4,9,1,2,3,0,1,2,6,10,7,8]","action_history":"[0,0,0,1,0,0,0,1,1,1,0,0,0,0,0,1,1,0,0]","door_history":"[1,1,1,0,1,1,1,0,0,0,1,1,1,1,1,0,0,1,1]","location_rts":"[978,185,277,373,323,284,346,297,288,362,335,281,307,271,382,413,270,261,260]","trial_type":"two-door-navigation","trial_index":3,"time_elapsed":740488,"internal_node_id":"0.0-2.0-1.0"},{"group":"dicyclic group of order 12","room_assignment":["cyan","orange","grey","green","pink","purple","red","brown","blue","ivory","yellow","olive"],"door_color_assignment":["white","black"],"door_generator_assignment":[1,0],"goal":4,"start":8,"action_noise":0.15,"location_history":"[8,0,1,2,3,7,8,5,9,6,11,4]","action_history":"[0,0,0,0,1,0,0,1,0,0,0]","door_history":"[1,1,1,1,0,1,1,0,1,1,1]","location_rts":"[492,343,363,323,296,414,371,420,1268,423,1270]","trial_type":"two-door-navigation","trial_index":4,"time_elapsed":762393,"internal_node_id":"0.0-2.0-2.0"},{"group":"dicyclic group of order 12","room_assignment":["cyan","orange","grey","green","pink","purple","red","brown","blue","ivory","yellow","olive"],"door_color_assignment":["white","black"],"door_generator_assignment":[1,0],"goal":5,"start":4,"action_noise":0.15,"location_history":"[4,9,6,10,2,3,7,11,4,9,6,11,4,8,0,1,2,3,0,1,5]","action_history":"[0,0,0,0,0,1,1,0,0,0,0,0,1,1,0,0,0,0,1,1]","door_history":"[1,1,1,1,1,0,0,1,1,1,1,1,0,0,1,1,1,1,0,0]","location_rts":"[435,389,351,323,435,90,362,293,389,941,505,347,340,341,181,345,455,344,367,248]","trial_type":"two-door-navigation","trial_index":5,"time_elapsed":796134,"internal_node_id":"0.0-2.0-3.0"},{"group":"dicyclic group of order 12","room_assignment":["cyan","orange","grey","green","pink","purple","red","brown","blue","ivory","yellow","olive"],"door_color_assignment":["white","black"],"door_generator_assignment":[1,0],"goal":10,"start":5,"action_noise":0.15,"location_history":"[5,10]","action_history":"[0]","door_history":"[1]","location_rts":"[453]","trial_type":"two-door-navigation","trial_index":6,"time_elapsed":801244,"internal_node_id":"0.0-2.0-4.0"},{"group":"dicyclic group of order 12","room_assignment":["cyan","orange","grey","green","pink","purple","red","brown","blue","ivory","yellow","olive"],"door_color_assignment":["white","black"],"door_generator_assignment":[1,0],"goal":1,"start":10,"action_noise":0.15,"location_history":"[10,7,8,5,9,1]","action_history":"[0,0,0,0,1]","door_history":"[1,1,1,1,0]","location_rts":"[1054,208,298,307,374]","trial_type":"two-door-navigation","trial_index":7,"time_elapsed":812624,"internal_node_id":"0.0-2.0-5.0"},{"group":"dicyclic group of order 12","room_assignment":["cyan","orange","grey","green","pink","purple","red","brown","blue","ivory","yellow","olive"],"door_color_assignment":["white","black"],"door_generator_assignment":[1,0],"goal":6,"start":1,"action_noise":0.15,"location_history":"[1,2,6]","action_history":"[0,0]","door_history":"[1,1]","location_rts":"[320,172]","trial_type":"two-door-navigation","trial_index":8,"time_elapsed":818920,"internal_node_id":"0.0-2.0-6.0"},{"group":"dicyclic group of order 12","room_assignment":["cyan","orange","grey","green","pink","purple","red","brown","blue","ivory","yellow","olive"],"door_color_assignment":["white","black"],"door_generator_assignment":[1,0],"goal":9,"start":6,"action_noise":0.15,"location_history":"[6,10,2,6,11,3,7,11,4,8,5,10,2,6,10,7,8,5,10,7,11,3,0,1,5,9]","action_history":"[1,1,0,0,1,1,1,0,0,0,0,1,1,1,0,0,0,0,0,1,1,1,1,1,1]","door_history":"[0,0,1,1,0,0,0,1,1,1,1,0,0,0,1,1,1,1,1,0,0,0,0,0,0]","location_rts":"[297,281,372,355,340,398,323,379,481,299,318,322,315,402,384,357,979,360,464,416,623,458,463,448,506]","trial_type":"two-door-navigation","trial_index":9,"time_elapsed":861224,"internal_node_id":"0.0-2.0-7.0"},{"group":"dicyclic group of order 12","room_assignment":["cyan","orange","grey","green","pink","purple","red","brown","blue","ivory","yellow","olive"],"door_color_assignment":["white","black"],"door_generator_assignment":[1,0],"goal":2,"start":9,"action_noise":0.15,"location_history":"[9,6,10,2]","action_history":"[1,1,1]","door_history":"[0,0,0]","location_rts":"[1509,869,651]","trial_type":"two-door-navigation","trial_index":10,"time_elapsed":871194,"internal_node_id":"0.0-2.0-8.0"},{"group":"dicyclic group of order 12","room_assignment":["cyan","orange","grey","green","pink","purple","red","brown","blue","ivory","yellow","olive"],"door_color_assignment":["white","black"],"door_generator_assignment":[1,0],"goal":0,"start":2,"action_noise":0.15,"location_history":"[2,3,0]","action_history":"[0,0]","door_history":"[1,1]","location_rts":"[899,400]","trial_type":"two-door-navigation","trial_index":11,"time_elapsed":878243,"internal_node_id":"0.0-2.0-9.0"},{"group":"dicyclic group of order 12","room_assignment":["cyan","orange","grey","green","pink","purple","red","brown","blue","ivory","yellow","olive"],"door_color_assignment":["white","black"],"door_generator_assignment":[1,0],"goal":3,"start":0,"action_noise":0.15,"location_history":"[0,1,2,3]","action_history":"[0,0,0]","door_history":"[1,1,1]","location_rts":"[1487,568,264]","trial_type":"two-door-navigation","trial_index":12,"time_elapsed":887494,"internal_node_id":"0.0-2.0-10.0"},{"group":"dicyclic group of order 12","room_assignment":["cyan","orange","grey","green","pink","purple","red","brown","blue","ivory","yellow","olive"],"door_color_assignment":["white","black"],"door_generator_assignment":[1,0],"goal":10,"start":3,"action_noise":0.15,"location_history":"[3,0,1,2,3,0,4,9,6,10]","action_history":"[0,0,0,0,1,0,0,0,0]","door_history":"[1,1,1,1,0,1,1,1,1]","location_rts":"[1127,378,931,429,456,848,397,373,396]","trial_type":"two-door-navigation","trial_index":13,"time_elapsed":906563,"internal_node_id":"0.0-2.0-11.0"},{"group":"dicyclic group of order 12","room_assignment":["cyan","orange","grey","green","pink","purple","red","brown","blue","ivory","yellow","olive"],"door_color_assignment":["white","black"],"door_generator_assignment":[1,0],"goal":8,"start":10,"action_noise":0.15,"location_history":"[10,7,11,4,9,6,10,7,8]","action_history":"[0,0,0,0,0,1,1,0]","door_history":"[1,1,1,1,1,0,0,1]","location_rts":"[646,387,503,416,443,346,391,423]","trial_type":"two-door-navigation","trial_index":14,"time_elapsed":922563,"internal_node_id":"0.0-2.0-12.0"},{"group":"dicyclic group of order 12","room_assignment":["cyan","orange","grey","green","pink","purple","red","brown","blue","ivory","yellow","olive"],"door_color_assignment":["white","black"],"door_generator_assignment":[1,0],"goal":4,"start":8,"action_noise":0.15,"location_history":"[8,5,10,2,3,0,4]","action_history":"[0,0,1,0,0,1]","door_history":"[1,1,0,1,1,0]","location_rts":"[361,348,543,563,1207,364]","trial_type":"two-door-navigation","trial_index":15,"time_elapsed":936343,"internal_node_id":"0.0-2.0-13.0"},{"group":"dicyclic group of order 12","room_assignment":["cyan","orange","grey","green","pink","purple","red","brown","blue","ivory","yellow","olive"],"door_color_assignment":["white","black"],"door_generator_assignment":[1,0],"goal":0,"start":4,"action_noise":0.15,"location_history":"[4,9,1,5,9,1,2,3,0]","action_history":"[0,0,0,1,1,0,0,0]","door_history":"[1,1,1,0,0,1,1,1]","location_rts":"[364,299,292,389,373,315,472,396]","trial_type":"two-door-navigation","trial_index":16,"time_elapsed":951916,"internal_node_id":"0.0-2.0-14.0"},{"group":"dicyclic group of order 12","room_assignment":["cyan","orange","grey","green","pink","purple","red","brown","blue","ivory","yellow","olive"],"door_color_assignment":["white","black"],"door_generator_assignment":[1,0],"goal":11,"start":0,"action_noise":0.15,"location_history":"[0,1,2,3,0,1,2,6,11]","action_history":"[0,0,0,0,0,0,1,1]","door_history":"[1,1,1,1,1,1,0,0]","location_rts":"[858,317,433,392,386,370,472,380]","trial_type":"two-door-navigation","trial_index":17,"time_elapsed":968072,"internal_node_id":"0.0-2.0-15.0"},{"group":"dicyclic group of order 12","room_assignment":["cyan","orange","grey","green","pink","purple","red","brown","blue","ivory","yellow","olive"],"door_color_assignment":["white","black"],"door_generator_assignment":[1,0],"goal":2,"start":11,"action_noise":0.15,"location_history":"[11,4,9,1,2]","action_history":"[0,0,0,0]","door_history":"[1,1,1,1]","location_rts":"[293,259,320,316]","trial_type":"two-door-navigation","trial_index":18,"time_elapsed":977284,"internal_node_id":"0.0-2.0-16.0"},{"group":"dicyclic group of order 12","room_assignment":["cyan","orange","grey","green","pink","purple","red","brown","blue","ivory","yellow","olive"],"door_color_assignment":["white","black"],"door_generator_assignment":[1,0],"goal":7,"start":2,"action_noise":0.15,"location_history":"[2,3,7]","action_history":"[0,0]","door_history":"[1,1]","location_rts":"[280,303]","trial_type":"two-door-navigation","trial_index":19,"time_elapsed":983657,"internal_node_id":"0.0-2.0-17.0"},{"group":"dicyclic group of order 12","room_assignment":["cyan","orange","grey","green","pink","purple","red","brown","blue","ivory","yellow","olive"],"door_color_assignment":["white","black"],"door_generator_assignment":[1,0],"goal":5,"start":7,"action_noise":0.15,"location_history":"[7,8,5]","action_history":"[0,0]","door_history":"[1,1]","location_rts":"[431,327]","trial_type":"two-door-navigation","trial_index":20,"time_elapsed":990235,"internal_node_id":"0.0-2.0-18.0"},{"group":"dicyclic group of order 12","room_assignment":["cyan","orange","grey","green","pink","purple","red","brown","blue","ivory","yellow","olive"],"door_color_assignment":["white","black"],"door_generator_assignment":[1,0],"goal":6,"start":5,"action_noise":0.15,"location_history":"[5,10,2,6]","action_history":"[0,0,0]","door_history":"[1,1,1]","location_rts":"[378,328,335]","trial_type":"two-door-navigation","trial_index":21,"time_elapsed":998185,"internal_node_id":"0.0-2.0-19.0"},{"group":"dicyclic group of order 12","room_assignment":["cyan","orange","grey","green","pink","purple","red","brown","blue","ivory","yellow","olive"],"door_color_assignment":["white","black"],"door_generator_assignment":[1,0],"goal":3,"start":6,"action_noise":0.15,"location_history":"[6,11,4,8,0,1,2,3]","action_history":"[0,1,1,0,0,0,0]","door_history":"[1,0,0,1,1,1,1]","location_rts":"[346,500,357,414,341,389,430]","trial_type":"two-door-navigation","trial_index":22,"time_elapsed":1012337,"internal_node_id":"0.0-2.0-20.0"},{"group":"dicyclic group of order 12","room_assignment":["cyan","orange","grey","green","pink","purple","red","brown","blue","ivory","yellow","olive"],"door_color_assignment":["white","black"],"door_generator_assignment":[1,0],"goal":1,"start":3,"action_noise":0.15,"location_history":"[3,0,1]","action_history":"[0,0]","door_history":"[1,1]","location_rts":"[490,250]","trial_type":"two-door-navigation","trial_index":23,"time_elapsed":1018895,"internal_node_id":"0.0-2.0-21.0"},{"group":"dicyclic group of order 12","room_assignment":["cyan","orange","grey","green","pink","purple","red","brown","blue","ivory","yellow","olive"],"door_color_assignment":["white","black"],"door_generator_assignment":[1,0],"goal":9,"start":1,"action_noise":0.15,"location_history":"[1,2,6,11,4,9]","action_history":"[0,0,0,1,0]","door_history":"[1,1,1,0,1]","location_rts":"[805,331,328,358,303]","trial_type":"two-door-navigation","trial_index":24,"time_elapsed":1030125,"internal_node_id":"0.0-2.0-22.0"},{"group":"dicyclic group of order 12","room_assignment":["cyan","orange","grey","green","pink","purple","red","brown","blue","ivory","yellow","olive"],"door_color_assignment":["white","black"],"door_generator_assignment":[1,0],"goal":3,"start":9,"action_noise":0.15,"location_history":"[9,6,11,4,8,0,1,2,6,10,2,6,10,2,6,11,4,9,6,11,3]","action_history":"[0,0,0,1,1,0,0,1,0,0,1,1,1,0,0,0,0,0,0,1]","door_history":"[1,1,1,0,0,1,1,0,1,1,0,0,0,1,1,1,1,1,1,0]","location_rts":"[502,284,376,370,328,448,384,810,428,496,511,377,696,453,412,710,457,419,500,661]","trial_type":"two-door-navigation","trial_index":25,"time_elapsed":1065716,"internal_node_id":"0.0-2.0-23.0"},{"group":"dicyclic group of order 12","room_assignment":["cyan","orange","grey","green","pink","purple","red","brown","blue","ivory","yellow","olive"],"door_color_assignment":["white","black"],"door_generator_assignment":[1,0],"goal":4,"start":3,"action_noise":0.15,"location_history":"[3,0,1,5,10,2,3,0,1,2,6,10,2,6,11,3,7,8,0,4]","action_history":"[0,0,0,0,1,1,0,0,0,1,1,1,1,0,0,1,0,0,1]","door_history":"[1,1,1,1,0,0,1,1,1,0,0,0,0,1,1,0,1,1,0]","location_rts":"[752,393,398,485,669,471,400,1073,2059,1295,1005,397,436,373,428,912,933,493,498]","trial_type":"two-door-navigation","trial_index":26,"time_elapsed":1104027,"internal_node_id":"0.0-2.0-24.0"},{"group":"dicyclic group of order 12","room_assignment":["cyan","orange","grey","green","pink","purple","red","brown","blue","ivory","yellow","olive"],"door_color_assignment":["white","black"],"door_generator_assignment":[1,0],"goal":2,"start":4,"action_noise":0.15,"location_history":"[4,9,6,11,4,8,5,10,2]","action_history":"[0,0,0,0,1,0,0,1]","door_history":"[1,1,1,1,0,1,1,0]","location_rts":"[942,325,387,440,487,351,527,385]","trial_type":"two-door-navigation","trial_index":27,"time_elapsed":1120344,"internal_node_id":"0.0-2.0-25.0"},{"group":"dicyclic group of order 12","room_assignment":["cyan","orange","grey","green","pink","purple","red","brown","blue","ivory","yellow","olive"],"door_color_assignment":["white","black"],"door_generator_assignment":[1,0],"goal":1,"start":2,"action_noise":0.15,"location_history":"[2,6,11,4,8,0,1]","action_history":"[0,0,0,1,1,0]","door_history":"[1,1,1,0,0,1]","location_rts":"[332,317,336,318,438,377]","trial_type":"two-door-navigation","trial_index":28,"time_elapsed":1132688,"internal_node_id":"0.0-2.0-26.0"},{"group":"dicyclic group of order 12","room_assignment":["cyan","orange","grey","green","pink","purple","red","brown","blue","ivory","yellow","olive"],"door_color_assignment":["white","black"],"door_generator_assignment":[1,0],"goal":8,"start":1,"action_noise":0.15,"location_history":"[1,2,3,0,1,2,3,0,1,5,9,1,2,3,0,1,2,6,11,3,0,1,2,6,11,4,8]","action_history":"[0,0,0,0,1,0,0,0,1,1,1,0,0,0,0,0,1,1,1,0,0,0,0,0,0,1]","door_history":"[1,1,1,1,0,1,1,1,0,0,0,1,1,1,1,1,0,0,0,1,1,1,1,1,1,0]","location_rts":"[495,336,523,316,406,348,441,436,407,492,422,414,505,470,392,400,524,331,374,426,443,391,513,580,440,477]","trial_type":"two-door-navigation","trial_index":29,"time_elapsed":1176915,"internal_node_id":"0.0-2.0-27.0"},{"group":"dicyclic group of order 12","room_assignment":["cyan","orange","grey","green","pink","purple","red","brown","blue","ivory","yellow","olive"],"door_color_assignment":["white","black"],"door_generator_assignment":[1,0],"goal":10,"start":8,"action_noise":0.15,"location_history":"[8,5,9,6,11,3,0,1,2,3,0,1,2,3,0,4,8,0,1,2,3,0,1,2,3,0,4,8,0,4,8,5,10]","action_history":"[0,0,0,0,1,1,0,0,0,1,0,0,0,0,1,1,1,0,0,0,0,0,0,0,0,1,1,1,1,1,1,0]","door_history":"[1,1,1,1,0,0,1,1,1,0,1,1,1,1,0,0,0,1,1,1,1,1,1,1,1,0,0,0,0,0,0,1]","location_rts":"[994,438,446,499,1115,404,353,664,339,432,374,655,341,489,638,385,422,386,611,401,463,506,634,448,486,438,518,496,426,418,526,486]","trial_type":"two-door-navigation","trial_index":30,"time_elapsed":1232838,"internal_node_id":"0.0-2.0-28.0"},{"group":"dicyclic group of order 12","room_assignment":["cyan","orange","grey","green","pink","purple","red","brown","blue","ivory","yellow","olive"],"door_color_assignment":["white","black"],"door_generator_assignment":[1,0],"goal":7,"start":10,"action_noise":0.15,"location_history":"[10,7]","action_history":"[0]","door_history":"[1]","location_rts":"[875]","trial_type":"two-door-navigation","trial_index":31,"time_elapsed":1238377,"internal_node_id":"0.0-2.0-29.0"},{"group":"dicyclic group of order 12","room_assignment":["cyan","orange","grey","green","pink","purple","red","brown","blue","ivory","yellow","olive"],"door_color_assignment":["white","black"],"door_generator_assignment":[1,0],"goal":6,"start":7,"action_noise":0.15,"location_history":"[7,11,3,0,4,9,1,5,9,1,2,3,0,1,2,3,0,1,2,3,7,11,3,0,4,9,1,5,9,1,2,3,0,1,2,3,0,1,2,3,7,11,3,7,11,4,9,6]","action_history":"[0,0,0,1,0,1,1,1,1,1,0,0,0,0,0,1,1,0,0,1,1,1,0,0,0,0,1,1,1,1,0,0,0,0,0,0,0,0,0,1,1,1,1,1,0,0,0]","door_history":"[1,1,1,0,1,0,0,0,0,0,1,1,1,1,1,0,0,1,1,0,0,0,1,1,1,1,0,0,0,0,1,1,1,1,1,1,1,1,1,0,0,0,0,0,1,1,1]","location_rts":"[410,291,294,251,419,400,503,386,302,403,428,1467,347,405,373,388,434,477,456,374,406,403,385,371,1015,394,1295,1067,1117,431,901,917,388,469,365,435,486,537,893,477,712,748,554,852,870,434,530]","trial_type":"two-door-navigation","trial_index":32,"time_elapsed":1321344,"internal_node_id":"0.0-2.0-30.0"},{"group":"dicyclic group of order 12","room_assignment":["cyan","orange","grey","green","pink","purple","red","brown","blue","ivory","yellow","olive"],"door_color_assignment":["white","black"],"door_generator_assignment":[1,0],"goal":0,"start":6,"action_noise":0.15,"location_history":"[6,11,3,0]","action_history":"[0,0,0]","door_history":"[1,1,1]","location_rts":"[2125,604,148]","trial_type":"two-door-navigation","trial_index":33,"time_elapsed":1331103,"internal_node_id":"0.0-2.0-31.0"},{"group":"dicyclic group of order 12","room_assignment":["cyan","orange","grey","green","pink","purple","red","brown","blue","ivory","yellow","olive"],"door_color_assignment":["white","black"],"door_generator_assignment":[1,0],"goal":11,"start":0,"action_noise":0.15,"location_history":"[0,1,2,3,0,1,2,3,7,8,5,10,7,11]","action_history":"[0,0,0,0,0,0,0,0,0,0,0,0,0]","door_history":"[1,1,1,1,1,1,1,1,1,1,1,1,1]","location_rts":"[512,341,357,517,429,472,563,470,472,407,405,559,395]","trial_type":"two-door-navigation","trial_index":34,"time_elapsed":1355153,"internal_node_id":"0.0-2.0-32.0"},{"group":"dicyclic group of order 12","room_assignment":["cyan","orange","grey","green","pink","purple","red","brown","blue","ivory","yellow","olive"],"door_color_assignment":["white","black"],"door_generator_assignment":[1,0],"goal":9,"start":11,"action_noise":0.15,"location_history":"[11,4,9]","action_history":"[0,0]","door_history":"[1,1]","location_rts":"[1690,2145]","trial_type":"two-door-navigation","trial_index":35,"time_elapsed":1364746,"internal_node_id":"0.0-2.0-33.0"},{"group":"dicyclic group of order 12","room_assignment":["cyan","orange","grey","green","pink","purple","red","brown","blue","ivory","yellow","olive"],"door_color_assignment":["white","black"],"door_generator_assignment":[1,0],"goal":5,"start":9,"action_noise":0.15,"location_history":"[9,6,11,3,0,1,2,6,11,3,7,8,5]","action_history":"[0,0,0,0,0,0,0,0,1,1,0,0]","door_history":"[1,1,1,1,1,1,1,1,0,0,1,1]","location_rts":"[1554,841,1071,500,445,386,441,445,703,390,1023,629]","trial_type":"two-door-navigation","trial_index":36,"time_elapsed":1390203,"internal_node_id":"0.0-2.0-34.0"},{"view_history":"[{\"page_index\":0,\"viewing_time\":21155}]","rt":21156,"trial_type":"instructions","trial_index":37,"time_elapsed":1412363,"internal_node_id":"0.0-3.0"},{"view_history":"[{\"page_index\":0,\"viewing_time\":4286},{\"page_index\":1,\"viewing_time\":19857}]","rt":24144,"trial_type":"instructions","trial_index":38,"time_elapsed":1437516,"internal_node_id":"0.0-4.0"},{"group":"dihedral group of order 12","fractal_assignment":["../images/ylw_pnk.png","../images/grn_prp.png","../images/cyn_red.png","../images/pnk_blu.png","../images/gry_blk.png","../images/ylw_slt.png","../images/wht_red.png","../images/grn_red.png","../images/red_prp.png","../images/grn_blu.png","../images/blu_wht.png","../images/org_blu.png"],"mutagen_generator_assignment":[0,1],"goal":7,"start":11,"action_noise":0.15,"location_history":"[11,5,11,5,0,1,2,8,2,3,9,3,9,3,4,10,4,10,4,10,4,5,11,10,9,8,2,8,7]","action_history":"[0,1,1,1,0,0,1,1,0,1,1,1,1,0,1,1,1,1,1,1,1,1,0,0,0,1,1,1]","mutagen_history":"[0,1,1,1,0,0,1,1,0,1,1,1,1,0,1,1,1,1,1,1,1,1,0,0,0,1,1,1]","location_rts":"[3449,764,411,371,590,430,435,519,1012,516,521,456,422,530,515,503,507,545,463,357,1078,426,598,496,542,669,480,481]","trial_type":"fractal-mutation","trial_index":39,"time_elapsed":1505258,"internal_node_id":"0.0-5.0-0.0"},{"group":"dihedral group of order 12","fractal_assignment":["../images/ylw_pnk.png","../images/grn_prp.png","../images/cyn_red.png","../images/pnk_blu.png","../images/gry_blk.png","../images/ylw_slt.png","../images/wht_red.png","../images/grn_red.png","../images/red_prp.png","../images/grn_blu.png","../images/blu_wht.png","../images/org_blu.png"],"mutagen_generator_assignment":[0,1],"goal":8,"start":7,"action_noise":0.15,"location_history":"[7,1,7,1,7,1,7,1,7,6,11,5,11,5,11,5,0,6,11,10,9,8]","action_history":"[1,1,1,1,1,1,1,1,0,0,1,1,1,1,1,0,1,0,0,0,1]","mutagen_history":"[1,1,1,1,1,1,1,1,0,0,1,1,1,1,1,0,1,0,0,0,1]","location_rts":"[947,435,371,403,511,392,340,390,688,383,854,424,838,395,930,466,418,505,736,526,457]","trial_type":"fractal-mutation","trial_index":40,"time_elapsed":1554304,"internal_node_id":"0.0-5.0-1.0"},{"group":"dihedral group of order 12","fractal_assignment":["../images/ylw_pnk.png","../images/grn_prp.png","../images/cyn_red.png","../images/pnk_blu.png","../images/gry_blk.png","../images/ylw_slt.png","../images/wht_red.png","../images/grn_red.png","../images/red_prp.png","../images/grn_blu.png","../images/blu_wht.png","../images/org_blu.png"],"mutagen_generator_assignment":[0,1],"goal":4,"start":8,"action_noise":0.15,"location_history":"[8,2,8,7,1,7,1,7,1,2,8,2,8,2,8,7,6,11,5,11,5,11,5,11,5,11,10,9,3,9,3,9,3,9,3,4]","action_history":"[1,1,1,1,1,1,1,1,0,1,1,1,1,1,1,0,0,1,1,1,1,1,1,1,1,0,0,0,1,1,1,1,1,1,0]","mutagen_history":"[1,1,1,1,1,1,1,1,0,1,1,1,1,1,1,0,0,1,1,1,1,1,1,1,1,0,0,0,1,1,1,1,1,1,0]","location_rts":"[723,892,663,535,533,537,706,638,580,498,499,401,461,315,435,451,498,473,411,367,389,381,547,408,1405,1037,531,520,472,435,490,524,684,511,450]","trial_type":"fractal-mutation","trial_index":41,"time_elapsed":1635068,"internal_node_id":"0.0-5.0-2.0"},{"group":"dihedral group of order 12","fractal_assignment":["../images/ylw_pnk.png","../images/grn_prp.png","../images/cyn_red.png","../images/pnk_blu.png","../images/gry_blk.png","../images/ylw_slt.png","../images/wht_red.png","../images/grn_red.png","../images/red_prp.png","../images/grn_blu.png","../images/blu_wht.png","../images/org_blu.png"],"mutagen_generator_assignment":[0,1],"goal":5,"start":4,"action_noise":0.15,"location_history":"[4,10,9,3,4,10,4,10,4,10,4,10,9,3,9,3,4,10,4,5]","action_history":"[1,1,1,0,1,1,0,1,1,1,0,0,1,1,1,0,1,1,0]","mutagen_history":"[1,1,1,0,1,1,0,1,1,1,0,0,1,1,1,0,1,1,0]","location_rts":"[553,550,621,541,471,473,474,554,581,407,643,547,923,613,563,531,580,497,385]","trial_type":"fractal-mutation","trial_index":42,"time_elapsed":1679758,"internal_node_id":"0.0-5.0-3.0"},{"group":"dihedral group of order 12","fractal_assignment":["../images/ylw_pnk.png","../images/grn_prp.png","../images/cyn_red.png","../images/pnk_blu.png","../images/gry_blk.png","../images/ylw_slt.png","../images/wht_red.png","../images/grn_red.png","../images/red_prp.png","../images/grn_blu.png","../images/blu_wht.png","../images/org_blu.png"],"mutagen_generator_assignment":[0,1],"goal":10,"start":5,"action_noise":0.15,"location_history":"[5,11,5,11,10]","action_history":"[1,1,1,0]","mutagen_history":"[1,1,1,0]","location_rts":"[667,454,451,520]","trial_type":"fractal-mutation","trial_index":43,"time_elapsed":1691820,"internal_node_id":"0.0-5.0-4.0"},{"group":"dihedral group of order 12","fractal_assignment":["../images/ylw_pnk.png","../images/grn_prp.png","../images/cyn_red.png","../images/pnk_blu.png","../images/gry_blk.png","../images/ylw_slt.png","../images/wht_red.png","../images/grn_red.png","../images/red_prp.png","../images/grn_blu.png","../images/blu_wht.png","../images/org_blu.png"],"mutagen_generator_assignment":[0,1],"goal":1,"start":10,"action_noise":0.15,"location_history":"[10,9,8,2,3,4,10,9,8,7,6,0,6,0,1]","action_history":"[1,1,1,1,0,1,1,0,0,1,1,1,1,0]","mutagen_history":"[1,1,1,1,0,1,1,0,0,1,1,1,1,0]","location_rts":"[606,523,472,495,585,670,490,514,498,688,410,456,437,480]","trial_type":"fractal-mutation","trial_index":44,"time_elapsed":1725511,"internal_node_id":"0.0-5.0-5.0"},{"group":"dihedral group of order 12","fractal_assignment":["../images/ylw_pnk.png","../images/grn_prp.png","../images/cyn_red.png","../images/pnk_blu.png","../images/gry_blk.png","../images/ylw_slt.png","../images/wht_red.png","../images/grn_red.png","../images/red_prp.png","../images/grn_blu.png","../images/blu_wht.png","../images/org_blu.png"],"mutagen_generator_assignment":[0,1],"goal":6,"start":1,"action_noise":0.15,"location_history":"[1,7,1,7,6]","action_history":"[1,1,1,0]","mutagen_history":"[1,1,1,0]","location_rts":"[351,316,285,352]","trial_type":"fractal-mutation","trial_index":45,"time_elapsed":1736866,"internal_node_id":"0.0-5.0-6.0"},{"group":"dihedral group of order 12","fractal_assignment":["../images/ylw_pnk.png","../images/grn_prp.png","../images/cyn_red.png","../images/pnk_blu.png","../images/gry_blk.png","../images/ylw_slt.png","../images/wht_red.png","../images/grn_red.png","../images/red_prp.png","../images/grn_blu.png","../images/blu_wht.png","../images/org_blu.png"],"mutagen_generator_assignment":[0,1],"goal":9,"start":6,"action_noise":0.15,"location_history":"[6,0,6,0,6,11,10,9]","action_history":"[1,1,1,1,0,0,1]","mutagen_history":"[1,1,1,1,0,0,1]","location_rts":"[455,390,346,242,364,461,466]","trial_type":"fractal-mutation","trial_index":46,"time_elapsed":1754449,"internal_node_id":"0.0-5.0-7.0"},{"group":"dihedral group of order 12","fractal_assignment":["../images/ylw_pnk.png","../images/grn_prp.png","../images/cyn_red.png","../images/pnk_blu.png","../images/gry_blk.png","../images/ylw_slt.png","../images/wht_red.png","../images/grn_red.png","../images/red_prp.png","../images/grn_blu.png","../images/blu_wht.png","../images/org_blu.png"],"mutagen_generator_assignment":[0,1],"goal":2,"start":9,"action_noise":0.15,"location_history":"[9,8,2]","action_history":"[0,1]","mutagen_history":"[0,1]","location_rts":"[516,445]","trial_type":"fractal-mutation","trial_index":47,"time_elapsed":1762068,"internal_node_id":"0.0-5.0-8.0"},{"group":"dihedral group of order 12","fractal_assignment":["../images/ylw_pnk.png","../images/grn_prp.png","../images/cyn_red.png","../images/pnk_blu.png","../images/gry_blk.png","../images/ylw_slt.png","../images/wht_red.png","../images/grn_red.png","../images/red_prp.png","../images/grn_blu.png","../images/blu_wht.png","../images/org_blu.png"],"mutagen_generator_assignment":[0,1],"goal":0,"start":2,"action_noise":0.15,"location_history":"[2,3,9,8,2,8,2,8,2,8,7,6,0]","action_history":"[1,1,1,0,1,1,1,1,1,0,0,1]","mutagen_history":"[1,1,1,0,1,1,1,1,1,0,0,1]","location_rts":"[637,516,519,665,516,774,447,806,479,623,550,557]","trial_type":"fractal-mutation","trial_index":48,"time_elapsed":1792228,"internal_node_id":"0.0-5.0-9.0"},{"group":"dihedral group of order 12","fractal_assignment":["../images/ylw_pnk.png","../images/grn_prp.png","../images/cyn_red.png","../images/pnk_blu.png","../images/gry_blk.png","../images/ylw_slt.png","../images/wht_red.png","../images/grn_red.png","../images/red_prp.png","../images/grn_blu.png","../images/blu_wht.png","../images/org_blu.png"],"mutagen_generator_assignment":[0,1],"goal":3,"start":0,"action_noise":0.15,"location_history":"[0,6,11,5,0,6,0,1,7,6,11,5,11,5,11,5,0,6,11,5,11,10,4,10,4,5,11,5,11,5,0,1,7,1,7,6,11,10,4,10,9,8,7,6,11,5,11,5,0,6,0,6,0,6,11,5,11,5,0,6,11,5,11,5,11,5,11,5,11,10,9,3]","action_history":"[1,1,1,0,1,1,1,1,0,0,1,1,1,1,1,0,1,1,1,1,1,1,1,1,0,1,1,1,1,0,0,1,1,1,1,0,0,1,1,0,1,0,0,0,1,1,1,0,0,1,1,1,0,0,1,1,1,0,1,1,1,1,0,0,1,1,1,0,0,0,1]","mutagen_history":"[1,1,1,0,1,1,1,1,0,0,1,1,1,1,1,0,1,1,1,1,1,1,1,1,0,1,1,1,1,0,0,1,1,1,1,0,0,1,1,0,1,0,0,0,1,1,1,0,0,1,1,1,0,0,1,1,1,0,1,1,1,1,0,0,1,1,1,0,0,0,1]","location_rts":"[629,446,441,565,534,447,452,441,386,492,435,707,454,587,462,796,547,542,480,597,441,569,556,543,474,648,416,534,388,609,474,402,385,445,442,534,452,498,437,627,632,438,447,475,506,578,641,598,1002,570,455,522,534,605,449,512,461,447,600,447,423,480,440,604,545,752,427,480,379,492,660]","trial_type":"fractal-mutation","trial_index":49,"time_elapsed":1947032,"internal_node_id":"0.0-5.0-10.0"},{"group":"dihedral group of order 12","fractal_assignment":["../images/ylw_pnk.png","../images/grn_prp.png","../images/cyn_red.png","../images/pnk_blu.png","../images/gry_blk.png","../images/ylw_slt.png","../images/wht_red.png","../images/grn_red.png","../images/red_prp.png","../images/grn_blu.png","../images/blu_wht.png","../images/org_blu.png"],"mutagen_generator_assignment":[0,1],"goal":10,"start":3,"action_noise":0.15,"location_history":"[3,9,3,4,5,0,1,2,3,9,3,4,5,11,5,0,6,0,6,0,6,0,1,7,1,7,1,2,3,9,8,2,3,9,3,9,8,2,3,9,3,4,10]","action_history":"[1,1,0,0,0,0,0,0,1,1,1,0,1,1,1,1,1,1,1,1,1,0,1,1,1,1,1,0,1,0,1,0,1,1,0,0,1,0,0,1,0,1]","mutagen_history":"[1,1,0,0,0,0,0,0,1,1,1,0,1,1,1,1,1,1,1,1,1,0,1,1,1,1,1,0,1,0,1,0,1,1,0,0,1,0,0,1,0,1]","location_rts":"[1420,467,503,469,1122,448,436,465,482,609,857,376,615,374,395,413,486,424,458,477,535,509,389,331,396,395,365,355,464,1401,520,1946,444,1227,973,467,440,477,507,417,759,1653]","trial_type":"fractal-mutation","trial_index":50,"time_elapsed":2043818,"internal_node_id":"0.0-5.0-11.0"},{"group":"dihedral group of order 12","fractal_assignment":["../images/ylw_pnk.png","../images/grn_prp.png","../images/cyn_red.png","../images/pnk_blu.png","../images/gry_blk.png","../images/ylw_slt.png","../images/wht_red.png","../images/grn_red.png","../images/red_prp.png","../images/grn_blu.png","../images/blu_wht.png","../images/org_blu.png"],"mutagen_generator_assignment":[0,1],"goal":8,"start":10,"action_noise":0.15,"location_history":"[10,4,5,11,10,4,10,4,5,11,5,0,6,0,6,0,6,11,10,4,10,4,5,0,6,11,10,4,5,11,5,11,5,0,1,7,1,7,1,7,6,0,6,11,5,0,1,2,8]","action_history":"[1,1,1,0,1,1,1,0,1,1,0,1,1,1,1,1,0,1,1,1,1,1,0,0,1,0,1,1,1,1,1,1,0,0,1,1,1,1,1,0,1,1,0,1,1,0,0,1]","mutagen_history":"[1,1,1,0,1,1,1,0,1,1,0,1,1,1,1,1,0,1,1,1,1,1,0,0,1,0,1,1,1,1,1,1,0,0,1,1,1,1,1,0,1,1,0,1,1,0,0,1]","location_rts":"[878,1237,474,937,466,454,744,459,456,476,439,382,359,446,379,459,482,391,458,398,429,390,534,507,403,1013,475,425,446,467,311,239,392,381,300,329,906,162,446,447,362,357,360,366,470,338,442,377]","trial_type":"fractal-mutation","trial_index":51,"time_elapsed":2148204,"internal_node_id":"0.0-5.0-12.0"},{"group":"dihedral group of order 12","fractal_assignment":["../images/ylw_pnk.png","../images/grn_prp.png","../images/cyn_red.png","../images/pnk_blu.png","../images/gry_blk.png","../images/ylw_slt.png","../images/wht_red.png","../images/grn_red.png","../images/red_prp.png","../images/grn_blu.png","../images/blu_wht.png","../images/org_blu.png"],"mutagen_generator_assignment":[0,1],"goal":4,"start":8,"action_noise":0.15,"location_history":"[8,7,1,7,1,2,8,2,8,2,3,9,8,2,8,2,8,2,8,7,6,11,5,11,10,4]","action_history":"[1,1,1,0,0,1,1,1,1,0,0,0,1,1,1,1,1,1,0,1,1,1,1,0,1]","mutagen_history":"[1,1,1,0,0,1,1,1,1,0,0,0,1,1,1,1,1,1,0,1,1,1,1,0,1]","location_rts":"[1067,365,391,363,444,371,416,285,580,466,410,421,501,386,398,369,405,419,499,480,536,436,399,454,778]","trial_type":"fractal-mutation","trial_index":52,"time_elapsed":2204008,"internal_node_id":"0.0-5.0-13.0"},{"group":"dihedral group of order 12","fractal_assignment":["../images/ylw_pnk.png","../images/grn_prp.png","../images/cyn_red.png","../images/pnk_blu.png","../images/gry_blk.png","../images/ylw_slt.png","../images/wht_red.png","../images/grn_red.png","../images/red_prp.png","../images/grn_blu.png","../images/blu_wht.png","../images/org_blu.png"],"mutagen_generator_assignment":[0,1],"goal":0,"start":4,"action_noise":0.15,"location_history":"[4,10,4,10,9,8,7,1,7,6,11,5,11,10,4,10,4,5,0]","action_history":"[1,1,1,0,0,1,1,1,0,1,1,1,0,1,1,1,0,0]","mutagen_history":"[1,1,1,0,0,1,1,1,0,1,1,1,0,1,1,1,0,0]","location_rts":"[650,352,376,465,585,534,470,581,762,519,538,425,547,440,442,310,483,419]","trial_type":"fractal-mutation","trial_index":53,"time_elapsed":2244797,"internal_node_id":"0.0-5.0-14.0"},{"group":"dihedral group of order 12","fractal_assignment":["../images/ylw_pnk.png","../images/grn_prp.png","../images/cyn_red.png","../images/pnk_blu.png","../images/gry_blk.png","../images/ylw_slt.png","../images/wht_red.png","../images/grn_red.png","../images/red_prp.png","../images/grn_blu.png","../images/blu_wht.png","../images/org_blu.png"],"mutagen_generator_assignment":[0,1],"goal":11,"start":0,"action_noise":0.15,"location_history":"[0,1,7,1,7,1,7,1,7,1,7,1,2,8,2,8,2,8,7,1,7,1,2,3,9,3,9,8,2,3,4,5,11]","action_history":"[0,0,1,1,1,1,1,1,1,1,0,0,1,1,1,1,0,1,1,1,1,0,0,1,1,1,0,1,0,0,0,1]","mutagen_history":"[0,0,1,1,1,1,1,1,1,1,0,0,1,1,1,1,0,1,1,1,1,0,0,1,1,1,0,1,0,0,0,1]","location_rts":"[989,347,300,369,738,507,861,389,501,375,378,417,394,418,413,533,443,569,501,420,492,405,471,450,461,417,419,660,436,359,502,367]","trial_type":"fractal-mutation","trial_index":54,"time_elapsed":2315268,"internal_node_id":"0.0-5.0-15.0"},{"group":"dihedral group of order 12","fractal_assignment":["../images/ylw_pnk.png","../images/grn_prp.png","../images/cyn_red.png","../images/pnk_blu.png","../images/gry_blk.png","../images/ylw_slt.png","../images/wht_red.png","../images/grn_red.png","../images/red_prp.png","../images/grn_blu.png","../images/blu_wht.png","../images/org_blu.png"],"mutagen_generator_assignment":[0,1],"goal":2,"start":11,"action_noise":0.15,"location_history":"[11,10,9,3,4,5,0,1,7,1,7,6,0,1,2]","action_history":"[0,1,1,1,0,0,0,1,1,1,1,1,0,0]","mutagen_history":"[0,1,1,1,0,0,0,1,1,1,1,1,0,0]","location_rts":"[810,607,380,372,421,459,527,409,600,360,623,512,549,438]","trial_type":"fractal-mutation","trial_index":55,"time_elapsed":2347828,"internal_node_id":"0.0-5.0-16.0"},{"group":"dihedral group of order 12","fractal_assignment":["../images/ylw_pnk.png","../images/grn_prp.png","../images/cyn_red.png","../images/pnk_blu.png","../images/gry_blk.png","../images/ylw_slt.png","../images/wht_red.png","../images/grn_red.png","../images/red_prp.png","../images/grn_blu.png","../images/blu_wht.png","../images/org_blu.png"],"mutagen_generator_assignment":[0,1],"goal":7,"start":2,"action_noise":0.15,"location_history":"[2,8,2,8,2,3,9,8,2,8,7]","action_history":"[1,1,1,1,1,1,0,1,1,0]","mutagen_history":"[1,1,1,1,1,1,0,1,1,0]","location_rts":"[661,392,399,417,495,429,455,495,546,421]","trial_type":"fractal-mutation","trial_index":56,"time_elapsed":2372500,"internal_node_id":"0.0-5.0-17.0"},{"group":"dihedral group of order 12","fractal_assignment":["../images/ylw_pnk.png","../images/grn_prp.png","../images/cyn_red.png","../images/pnk_blu.png","../images/gry_blk.png","../images/ylw_slt.png","../images/wht_red.png","../images/grn_red.png","../images/red_prp.png","../images/grn_blu.png","../images/blu_wht.png","../images/org_blu.png"],"mutagen_generator_assignment":[0,1],"goal":5,"start":7,"action_noise":0.15,"location_history":"[7,1,7,6,0,6,11,5]","action_history":"[1,1,1,1,1,0,0]","mutagen_history":"[1,1,1,1,1,0,0]","location_rts":"[548,382,329,502,512,507,480]","trial_type":"fractal-mutation","trial_index":57,"time_elapsed":2390675,"internal_node_id":"0.0-5.0-18.0"},{"group":"dihedral group of order 12","fractal_assignment":["../images/ylw_pnk.png","../images/grn_prp.png","../images/cyn_red.png","../images/pnk_blu.png","../images/gry_blk.png","../images/ylw_slt.png","../images/wht_red.png","../images/grn_red.png","../images/red_prp.png","../images/grn_blu.png","../images/blu_wht.png","../images/org_blu.png"],"mutagen_generator_assignment":[0,1],"goal":6,"start":5,"action_noise":0.15,"location_history":"[5,11,10,9,8,7,6]","action_history":"[1,0,0,0,0,0]","mutagen_history":"[1,0,0,0,0,0]","location_rts":"[760,827,719,468,511,392]","trial_type":"fractal-mutation","trial_index":58,"time_elapsed":2406699,"internal_node_id":"0.0-5.0-19.0"},{"group":"dihedral group of order 12","fractal_assignment":["../images/ylw_pnk.png","../images/grn_prp.png","../images/cyn_red.png","../images/pnk_blu.png","../images/gry_blk.png","../images/ylw_slt.png","../images/wht_red.png","../images/grn_red.png","../images/red_prp.png","../images/grn_blu.png","../images/blu_wht.png","../images/org_blu.png"],"mutagen_generator_assignment":[0,1],"goal":3,"start":6,"action_noise":0.15,"location_history":"[6,11,10,4,10,9,8,7,6,0,6,0,1,2,8,7,6,0,1,2,8,2,8,7,1,7,1,2,3]","action_history":"[0,1,1,1,0,0,0,0,1,1,1,0,0,1,0,1,1,0,0,1,1,1,0,1,1,1,0,0]","mutagen_history":"[0,1,1,1,0,0,0,0,1,1,1,0,0,1,0,1,1,0,0,1,1,1,0,1,1,1,0,0]","location_rts":"[740,565,557,540,711,451,451,464,599,1078,484,453,472,425,513,384,362,352,801,361,376,392,366,384,428,442,385,407]","trial_type":"fractal-mutation","trial_index":59,"time_elapsed":2467842,"internal_node_id":"0.0-5.0-20.0"},{"group":"dihedral group of order 12","fractal_assignment":["../images/ylw_pnk.png","../images/grn_prp.png","../images/cyn_red.png","../images/pnk_blu.png","../images/gry_blk.png","../images/ylw_slt.png","../images/wht_red.png","../images/grn_red.png","../images/red_prp.png","../images/grn_blu.png","../images/blu_wht.png","../images/org_blu.png"],"mutagen_generator_assignment":[0,1],"goal":1,"start":3,"action_noise":0.15,"location_history":"[3,9,3,9,8,2,8,2,3,9,3,9,3,4,10,9,8,2,8,2,8,7,6,0,6,0,6,0,1]","action_history":"[1,1,1,0,1,1,1,0,1,1,1,1,1,1,0,0,1,1,1,1,0,1,1,1,1,1,0,0]","mutagen_history":"[1,1,1,0,1,1,1,0,1,1,1,1,1,1,0,0,1,1,1,1,0,1,1,1,1,1,0,0]","location_rts":"[699,465,916,720,486,602,414,466,1071,357,837,374,415,535,371,574,487,550,483,528,396,603,417,382,435,446,417,458]","trial_type":"fractal-mutation","trial_index":60,"time_elapsed":2531834,"internal_node_id":"0.0-5.0-21.0"},{"group":"dihedral group of order 12","fractal_assignment":["../images/ylw_pnk.png","../images/grn_prp.png","../images/cyn_red.png","../images/pnk_blu.png","../images/gry_blk.png","../images/ylw_slt.png","../images/wht_red.png","../images/grn_red.png","../images/red_prp.png","../images/grn_blu.png","../images/blu_wht.png","../images/org_blu.png"],"mutagen_generator_assignment":[0,1],"goal":9,"start":1,"action_noise":0.15,"location_history":"[1,7,6,0,6,0,6,11,5,0,1,2,8,2,8,2,3,9]","action_history":"[1,0,1,1,1,1,1,1,0,0,0,1,1,1,1,0,1]","mutagen_history":"[1,0,1,1,1,1,1,1,0,0,0,1,1,1,1,0,1]","location_rts":"[729,608,499,439,406,486,375,554,1025,423,534,456,521,387,473,455,543]","trial_type":"fractal-mutation","trial_index":61,"time_elapsed":2571625,"internal_node_id":"0.0-5.0-22.0"},{"group":"dihedral group of order 12","fractal_assignment":["../images/ylw_pnk.png","../images/grn_prp.png","../images/cyn_red.png","../images/pnk_blu.png","../images/gry_blk.png","../images/ylw_slt.png","../images/wht_red.png","../images/grn_red.png","../images/red_prp.png","../images/grn_blu.png","../images/blu_wht.png","../images/org_blu.png"],"mutagen_generator_assignment":[0,1],"goal":3,"start":9,"action_noise":0.15,"location_history":"[9,3]","action_history":"[0]","mutagen_history":"[0]","location_rts":"[1448]","trial_type":"fractal-mutation","trial_index":62,"time_elapsed":2577983,"internal_node_id":"0.0-5.0-23.0"},{"group":"dihedral group of order 12","fractal_assignment":["../images/ylw_pnk.png","../images/grn_prp.png","../images/cyn_red.png","../images/pnk_blu.png","../images/gry_blk.png","../images/ylw_slt.png","../images/wht_red.png","../images/grn_red.png","../images/red_prp.png","../images/grn_blu.png","../images/blu_wht.png","../images/org_blu.png"],"mutagen_generator_assignment":[0,1],"goal":4,"start":3,"action_noise":0.15,"location_history":"[3,9,8,2,3,4]","action_history":"[1,1,1,0,1]","mutagen_history":"[1,1,1,0,1]","location_rts":"[626,678,730,444,475]","trial_type":"fractal-mutation","trial_index":63,"time_elapsed":2592712,"internal_node_id":"0.0-5.0-24.0"},{"group":"dihedral group of order 12","fractal_assignment":["../images/ylw_pnk.png","../images/grn_prp.png","../images/cyn_red.png","../images/pnk_blu.png","../images/gry_blk.png","../images/ylw_slt.png","../images/wht_red.png","../images/grn_red.png","../images/red_prp.png","../images/grn_blu.png","../images/blu_wht.png","../images/org_blu.png"],"mutagen_generator_assignment":[0,1],"goal":2,"start":4,"action_noise":0.15,"location_history":"[4,10,4,10,4,5,11,5,0,6,11,5,11,5,0,6,11,5,0,6,0,6,11,5,11,10,4,10,4,10,9,3,4,10,4,10,9,8,7,6,0,6,0,1,7,1,7,1,2]","action_history":"[1,1,1,1,1,1,1,0,0,0,1,1,1,1,1,0,1,1,1,0,1,1,1,1,0,1,1,1,0,1,1,1,1,1,1,0,0,0,1,1,1,1,0,1,1,1,1,0]","mutagen_history":"[1,1,1,1,1,1,1,0,0,0,1,1,1,1,1,0,1,1,1,0,1,1,1,1,0,1,1,1,0,1,1,1,1,1,1,0,0,0,1,1,1,1,0,1,1,1,1,0]","location_rts":"[617,371,405,393,502,466,482,469,507,445,462,469,686,464,525,494,470,369,416,365,496,413,588,306,552,389,329,378,453,403,450,579,414,403,502,387,401,403,679,477,495,526,512,601,534,493,581,435]","trial_type":"fractal-mutation","trial_index":64,"time_elapsed":2696574,"internal_node_id":"0.0-5.0-25.0"},{"group":"dihedral group of order 12","fractal_assignment":["../images/ylw_pnk.png","../images/grn_prp.png","../images/cyn_red.png","../images/pnk_blu.png","../images/gry_blk.png","../images/ylw_slt.png","../images/wht_red.png","../images/grn_red.png","../images/red_prp.png","../images/grn_blu.png","../images/blu_wht.png","../images/org_blu.png"],"mutagen_generator_assignment":[0,1],"goal":1,"start":2,"action_noise":0.15,"location_history":"[2,3,9,8,2,8,7,1]","action_history":"[0,1,1,1,1,0,1]","mutagen_history":"[0,1,1,1,1,0,1]","location_rts":"[652,454,685,437,361,430,499]","trial_type":"fractal-mutation","trial_index":65,"time_elapsed":2714861,"internal_node_id":"0.0-5.0-26.0"},{"group":"dihedral group of order 12","fractal_assignment":["../images/ylw_pnk.png","../images/grn_prp.png","../images/cyn_red.png","../images/pnk_blu.png","../images/gry_blk.png","../images/ylw_slt.png","../images/wht_red.png","../images/grn_red.png","../images/red_prp.png","../images/grn_blu.png","../images/blu_wht.png","../images/org_blu.png"],"mutagen_generator_assignment":[0,1],"goal":8,"start":1,"action_noise":0.15,"location_history":"[1,7,1,7,1,2,3,9,3,9,3,4,10,4,10,4,5,0,6,0,6,11,5,11,10,9,8]","action_history":"[1,1,1,1,0,0,1,1,1,1,0,1,1,1,1,0,1,1,1,1,1,1,0,0,1,0]","mutagen_history":"[1,1,1,1,0,0,1,1,1,1,0,1,1,1,1,0,1,1,1,1,1,1,0,0,1,0]","location_rts":"[619,355,339,542,416,481,377,429,362,424,506,420,453,378,484,406,321,368,390,381,421,691,415,621,463,395]","trial_type":"fractal-mutation","trial_index":66,"time_elapsed":2771874,"internal_node_id":"0.0-5.0-27.0"},{"group":"dihedral group of order 12","fractal_assignment":["../images/ylw_pnk.png","../images/grn_prp.png","../images/cyn_red.png","../images/pnk_blu.png","../images/gry_blk.png","../images/ylw_slt.png","../images/wht_red.png","../images/grn_red.png","../images/red_prp.png","../images/grn_blu.png","../images/blu_wht.png","../images/org_blu.png"],"mutagen_generator_assignment":[0,1],"goal":10,"start":8,"action_noise":0.15,"location_history":"[8,2,8,7,6,0,6,0,6,11,5,0,6,0,6,0,6,0,6,0,6,0,6,11,5,11,5,11,5,0,1,7,1,7,1,7,6,11,5,0,6,0,6,0,6,0,6,0,6,0,6,0,1,2,3,9,8,7,1,7,1,2,8,7,1,7,1,2,3,4,10]","action_history":"[0,1,1,0,1,1,1,1,1,1,0,1,1,1,0,1,1,1,1,1,1,1,0,1,1,1,1,0,1,1,1,1,1,1,1,0,0,1,1,1,1,1,0,1,1,1,1,0,1,1,1,1,0,1,1,1,0,0,1,1,1,1,0,1,1,1,1,0,0,0]","mutagen_history":"[0,1,1,0,1,1,1,1,1,1,0,1,1,1,0,1,1,1,1,1,1,1,0,1,1,1,1,0,1,1,1,1,1,1,1,0,0,1,1,1,1,1,0,1,1,1,1,0,1,1,1,1,0,1,1,1,0,0,1,1,1,1,0,1,1,1,1,0,0,0]","location_rts":"[627,418,577,426,514,462,433,386,460,412,470,421,375,387,441,459,496,423,470,285,367,422,382,256,339,331,488,406,350,268,340,404,380,389,507,321,497,366,745,371,500,445,526,383,471,388,445,387,362,315,357,402,415,403,458,483,448,586,402,415,481,358,471,350,262,288,367,388,405,744]","trial_type":"fractal-mutation","trial_index":67,"time_elapsed":2919372,"internal_node_id":"0.0-5.0-28.0"},{"group":"dihedral group of order 12","fractal_assignment":["../images/ylw_pnk.png","../images/grn_prp.png","../images/cyn_red.png","../images/pnk_blu.png","../images/gry_blk.png","../images/ylw_slt.png","../images/wht_red.png","../images/grn_red.png","../images/red_prp.png","../images/grn_blu.png","../images/blu_wht.png","../images/org_blu.png"],"mutagen_generator_assignment":[0,1],"goal":7,"start":10,"action_noise":0.15,"location_history":"[10,4,10,4,10,9,8,2,8,2,8,2,8,7]","action_history":"[1,1,1,1,0,0,1,1,1,0,1,1,0]","mutagen_history":"[1,1,1,1,0,0,1,1,1,0,1,1,0]","location_rts":"[701,569,387,436,350,424,362,1329,618,480,411,639,446]","trial_type":"fractal-mutation","trial_index":68,"time_elapsed":2951092,"internal_node_id":"0.0-5.0-29.0"},{"group":"dihedral group of order 12","fractal_assignment":["../images/ylw_pnk.png","../images/grn_prp.png","../images/cyn_red.png","../images/pnk_blu.png","../images/gry_blk.png","../images/ylw_slt.png","../images/wht_red.png","../images/grn_red.png","../images/red_prp.png","../images/grn_blu.png","../images/blu_wht.png","../images/org_blu.png"],"mutagen_generator_assignment":[0,1],"goal":6,"start":7,"action_noise":0.15,"location_history":"[7,6]","action_history":"[1]","mutagen_history":"[1]","location_rts":"[564]","trial_type":"fractal-mutation","trial_index":69,"time_elapsed":2956914,"internal_node_id":"0.0-5.0-30.0"},{"group":"dihedral group of order 12","fractal_assignment":["../images/ylw_pnk.png","../images/grn_prp.png","../images/cyn_red.png","../images/pnk_blu.png","../images/gry_blk.png","../images/ylw_slt.png","../images/wht_red.png","../images/grn_red.png","../images/red_prp.png","../images/grn_blu.png","../images/blu_wht.png","../images/org_blu.png"],"mutagen_generator_assignment":[0,1],"goal":0,"start":6,"action_noise":0.15,"location_history":"[6,11,5,11,5,11,5,0]","action_history":"[0,1,1,1,1,1,0]","mutagen_history":"[0,1,1,1,1,1,0]","location_rts":"[622,521,429,516,407,583,419]","trial_type":"fractal-mutation","trial_index":70,"time_elapsed":2975422,"internal_node_id":"0.0-5.0-31.0"},{"group":"dihedral group of order 12","fractal_assignment":["../images/ylw_pnk.png","../images/grn_prp.png","../images/cyn_red.png","../images/pnk_blu.png","../images/gry_blk.png","../images/ylw_slt.png","../images/wht_red.png","../images/grn_red.png","../images/red_prp.png","../images/grn_blu.png","../images/blu_wht.png","../images/org_blu.png"],"mutagen_generator_assignment":[0,1],"goal":11,"start":0,"action_noise":0.15,"location_history":"[0,6,0,1,7,6,0,6,0,6,11]","action_history":"[1,1,0,0,0,1,1,1,1,0]","mutagen_history":"[1,1,0,0,0,1,1,1,1,0]","location_rts":"[708,400,668,472,667,420,425,365,432,439]","trial_type":"fractal-mutation","trial_index":71,"time_elapsed":2999844,"internal_node_id":"0.0-5.0-32.0"},{"group":"dihedral group of order 12","fractal_assignment":["../images/ylw_pnk.png","../images/grn_prp.png","../images/cyn_red.png","../images/pnk_blu.png","../images/gry_blk.png","../images/ylw_slt.png","../images/wht_red.png","../images/grn_red.png","../images/red_prp.png","../images/grn_blu.png","../images/blu_wht.png","../images/org_blu.png"],"mutagen_generator_assignment":[0,1],"goal":9,"start":11,"action_noise":0.15,"location_history":"[11,5,11,5,11,10,4,10,4,10,9]","action_history":"[1,1,1,1,0,1,1,1,1,0]","mutagen_history":"[1,1,1,1,0,1,1,1,1,0]","location_rts":"[603,646,355,361,440,375,1182,480,548,380]","trial_type":"fractal-mutation","trial_index":72,"time_elapsed":3025158,"internal_node_id":"0.0-5.0-33.0"},{"group":"dihedral group of order 12","fractal_assignment":["../images/ylw_pnk.png","../images/grn_prp.png","../images/cyn_red.png","../images/pnk_blu.png","../images/gry_blk.png","../images/ylw_slt.png","../images/wht_red.png","../images/grn_red.png","../images/red_prp.png","../images/grn_blu.png","../images/blu_wht.png","../images/org_blu.png"],"mutagen_generator_assignment":[0,1],"goal":5,"start":9,"action_noise":0.15,"location_history":"[9,3,9,3,4,5]","action_history":"[1,1,1,0,0]","mutagen_history":"[1,1,1,0,0]","location_rts":"[1372,460,779,365,564]","trial_type":"fractal-mutation","trial_index":73,"time_elapsed":3040196,"internal_node_id":"0.0-5.0-34.0"},{"view_history":"[{\"page_index\":0,\"viewing_time\":36033}]","rt":36034,"trial_type":"instructions","trial_index":74,"time_elapsed":3077236,"internal_node_id":"0.0-6.0"},{"rt":49549,"responses":"{\"Q0\":\"Part 2 took 27 minutes today. I was right that it felt like forever yesterday.\"}","trial_type":"survey-text","trial_index":75,"time_elapsed":3127819,"internal_node_id":"0.0-7.0"}]