[{"view_history":"[{\"page_index\":0,\"viewing_time\":19741},{\"page_index\":1,\"viewing_time\":6045}]","rt":25787,"trial_type":"instructions","trial_index":0,"time_elapsed":25788,"internal_node_id":"0.0-0.0"},{"view_history":"[{\"page_index\":0,\"viewing_time\":1928},{\"page_index\":1,\"viewing_time\":11909}]","rt":13837,"trial_type":"instructions","trial_index":1,"time_elapsed":40628,"internal_node_id":"0.0-1.0"},{"group":"dihedral group of order 12","room_assignment":["ivory","olive","pink","orange","brown","yellow","purple","blue","cyan","grey","green","red"],"door_color_assignment":["white","black"],"door_generator_assignment":[1,0],"goal":7,"start":11,"action_noise":0.15,"location_history":"[11,5,11,10,9,3,4,10,9,8,7]","action_history":"[1,1,0,0,1,0,0,0,0,0]","door_history":"[0,0,1,1,0,1,1,1,1,1]","location_rts":"[1093,304,404,627,651,525,475,422,415,1300]","trial_type":"two-door-navigation","trial_index":2,"time_elapsed":60485,"internal_node_id":"0.0-2.0-0.0"},{"group":"dihedral group of order 12","room_assignment":["ivory","olive","pink","orange","brown","yellow","purple","blue","cyan","grey","green","red"],"door_color_assignment":["white","black"],"door_generator_assignment":[1,0],"goal":8,"start":7,"action_noise":0.15,"location_history":"[7,6,11,5,11,5,11,5,0,1,7,1,7,1,7,6,11,5,11,5,0,1,2,3,9,3,4,5,0,1,7,6,11,10,9,3,9,8]","action_history":"[1,1,1,0,1,1,1,0,0,1,0,1,1,1,0,1,1,1,1,0,0,0,0,0,1,0,0,0,0,0,0,0,0,0,1,1,0]","door_history":"[0,0,0,1,0,0,0,1,1,0,1,0,0,0,1,0,0,0,0,1,1,1,1,1,0,1,1,1,1,1,1,1,1,1,0,0,1]","location_rts":"[865,458,776,616,611,421,378,427,893,786,876,641,455,384,468,751,552,452,386,253,362,448,402,354,687,451,128,379,458,757,496,389,563,371,641,424,383]","trial_type":"two-door-navigation","trial_index":3,"time_elapsed":120662,"internal_node_id":"0.0-2.0-1.0"},{"group":"dihedral group of order 12","room_assignment":["ivory","olive","pink","orange","brown","yellow","purple","blue","cyan","grey","green","red"],"door_color_assignment":["white","black"],"door_generator_assignment":[1,0],"goal":4,"start":8,"action_noise":0.15,"location_history":"[8,7,1,2,8,2,8,7,1,2,8,7,1,7,6,0,6,0,1,7,1,2,3,4]","action_history":"[0,1,0,0,1,1,1,1,0,1,1,1,1,1,1,1,1,0,1,1,0,0,0]","door_history":"[1,0,1,1,0,0,0,0,1,0,0,0,0,0,0,0,0,1,0,0,1,1,1]","location_rts":"[913,501,705,334,530,302,301,604,336,425,321,399,432,369,336,357,343,381,513,330,302,595,799]","trial_type":"two-door-navigation","trial_index":4,"time_elapsed":157897,"internal_node_id":"0.0-2.0-2.0"},{"group":"dihedral group of order 12","room_assignment":["ivory","olive","pink","orange","brown","yellow","purple","blue","cyan","grey","green","red"],"door_color_assignment":["white","black"],"door_generator_assignment":[1,0],"goal":5,"start":4,"action_noise":0.15,"location_history":"[4,5]","action_history":"[0]","door_history":"[1]","location_rts":"[985]","trial_type":"two-door-navigation","trial_index":5,"time_elapsed":163403,"internal_node_id":"0.0-2.0-3.0"},{"group":"dihedral group of order 12","room_assignment":["ivory","olive","pink","orange","brown","yellow","purple","blue","cyan","grey","green","red"],"door_color_assignment":["white","black"],"door_generator_assignment":[1,0],"goal":10,"start":5,"action_noise":0.15,"location_history":"[5,0,6,11,10]","action_history":"[1,1,0,0]","door_history":"[0,0,1,1]","location_rts":"[1263,360,347,388]","trial_type":"two-door-navigation","trial_index":6,"time_elapsed":173315,"internal_node_id":"0.0-2.0-4.0"},{"group":"dihedral group of order 12","room_assignment":["ivory","olive","pink","orange","brown","yellow","purple","blue","cyan","grey","green","red"],"door_color_assignment":["white","black"],"door_generator_assignment":[1,0],"goal":1,"start":10,"action_noise":0.15,"location_history":"[10,9,8,7,6,11,5,0,6,11,5,11,5,11,5,0,1]","action_history":"[0,0,0,0,0,1,0,0,0,1,1,1,1,1,0,0]","door_history":"[1,1,1,1,1,0,1,1,1,0,0,0,0,0,1,1]","location_rts":"[1420,871,304,335,882,520,446,1030,422,409,386,357,238,440,543,356]","trial_type":"two-door-navigation","trial_index":7,"time_elapsed":202011,"internal_node_id":"0.0-2.0-5.0"},{"group":"dihedral group of order 12","room_assignment":["ivory","olive","pink","orange","brown","yellow","purple","blue","cyan","grey","green","red"],"door_color_assignment":["white","black"],"door_generator_assignment":[1,0],"goal":6,"start":1,"action_noise":0.15,"location_history":"[1,7,1,2,3,4,5,0,1,2,8,2,3,9,8,2,8,2,8,2,3,4,10,4,10,9,8,7,1,7,6]","action_history":"[1,1,0,0,0,0,0,0,0,1,1,0,1,1,0,1,1,1,1,0,0,1,1,1,0,0,0,1,1,0]","door_history":"[0,0,1,1,1,1,1,1,1,0,0,1,0,0,1,0,0,0,0,1,1,0,0,0,1,1,1,0,0,1]","location_rts":"[848,415,253,412,429,601,338,462,464,512,395,444,336,701,571,541,308,393,904,70,1103,914,881,1079,843,832,1299,996,1219,299]","trial_type":"two-door-navigation","trial_index":8,"time_elapsed":254795,"internal_node_id":"0.0-2.0-6.0"},{"group":"dihedral group of order 12","room_assignment":["ivory","olive","pink","orange","brown","yellow","purple","blue","cyan","grey","green","red"],"door_color_assignment":["white","black"],"door_generator_assignment":[1,0],"goal":9,"start":6,"action_noise":0.15,"location_history":"[6,11,5,0,6,11,10,9]","action_history":"[0,1,0,1,0,0,0]","door_history":"[1,0,1,0,1,1,1]","location_rts":"[2361,580,946,1342,521,400,520]","trial_type":"two-door-navigation","trial_index":9,"time_elapsed":272064,"internal_node_id":"0.0-2.0-7.0"},{"group":"dihedral group of order 12","room_assignment":["ivory","olive","pink","orange","brown","yellow","purple","blue","cyan","grey","green","red"],"door_color_assignment":["white","black"],"door_generator_assignment":[1,0],"goal":2,"start":9,"action_noise":0.15,"location_history":"[9,8,2]","action_history":"[0,1]","door_history":"[1,0]","location_rts":"[844,587]","trial_type":"two-door-navigation","trial_index":10,"time_elapsed":279025,"internal_node_id":"0.0-2.0-8.0"},{"group":"dihedral group of order 12","room_assignment":["ivory","olive","pink","orange","brown","yellow","purple","blue","cyan","grey","green","red"],"door_color_assignment":["white","black"],"door_generator_assignment":[1,0],"goal":0,"start":2,"action_noise":0.15,"location_history":"[2,8,7,1,7,6,0]","action_history":"[0,0,1,1,0,1]","door_history":"[1,1,0,0,1,0]","location_rts":"[1222,346,212,430,635,827]","trial_type":"two-door-navigation","trial_index":11,"time_elapsed":292296,"internal_node_id":"0.0-2.0-9.0"},{"group":"dihedral group of order 12","room_assignment":["ivory","olive","pink","orange","brown","yellow","purple","blue","cyan","grey","green","red"],"door_color_assignment":["white","black"],"door_generator_assignment":[1,0],"goal":3,"start":0,"action_noise":0.15,"location_history":"[0,1,2,8,7,1,2,8,7,1,2,3]","action_history":"[0,0,1,0,1,0,1,0,1,1,0]","door_history":"[1,1,0,1,0,1,0,1,0,0,1]","location_rts":"[917,620,290,880,833,830,656,776,781,701,657]","trial_type":"two-door-navigation","trial_index":12,"time_elapsed":314879,"internal_node_id":"0.0-2.0-10.0"},{"group":"dihedral group of order 12","room_assignment":["ivory","olive","pink","orange","brown","yellow","purple","blue","cyan","grey","green","red"],"door_color_assignment":["white","black"],"door_generator_assignment":[1,0],"goal":10,"start":3,"action_noise":0.15,"location_history":"[3,9,8,7,1,2,8,2,8,7,1,7,6,0,6,0,6,11,5,0,1,7,6,11,5,11,10]","action_history":"[1,0,0,1,0,0,1,1,0,1,1,0,0,1,1,0,0,1,0,1,1,0,0,0,1,0]","door_history":"[0,1,1,0,1,1,0,0,1,0,0,1,1,0,0,1,1,0,1,0,0,1,1,1,0,1]","location_rts":"[857,678,803,747,570,904,743,640,397,359,880,1061,1269,696,693,678,1094,793,792,983,1107,745,758,740,766,571]","trial_type":"two-door-navigation","trial_index":13,"time_elapsed":365035,"internal_node_id":"0.0-2.0-11.0"},{"group":"dihedral group of order 12","room_assignment":["ivory","olive","pink","orange","brown","yellow","purple","blue","cyan","grey","green","red"],"door_color_assignment":["white","black"],"door_generator_assignment":[1,0],"goal":8,"start":10,"action_noise":0.15,"location_history":"[10,4,5,0,6,0,6,11,5,0,6,0,6,0,1,7,6,11,5,11,10,9,3,4,10,9,3,9,8]","action_history":"[1,0,0,1,1,1,0,1,0,0,0,1,1,0,1,1,0,1,1,0,0,1,0,1,0,1,1,0]","door_history":"[0,1,1,0,0,0,1,0,1,1,1,0,0,1,0,0,1,0,0,1,1,0,1,0,1,0,0,1]","location_rts":"[1056,559,979,667,592,746,297,435,1137,765,866,717,760,682,907,1646,671,796,943,685,938,597,767,549,859,571,416,652]","trial_type":"two-door-navigation","trial_index":14,"time_elapsed":418144,"internal_node_id":"0.0-2.0-12.0"},{"group":"dihedral group of order 12","room_assignment":["ivory","olive","pink","orange","brown","yellow","purple","blue","cyan","grey","green","red"],"door_color_assignment":["white","black"],"door_generator_assignment":[1,0],"goal":4,"start":8,"action_noise":0.15,"location_history":"[8,7,1,2,3,9,8,2,8,2,3,9,3,9,3,9,3,4]","action_history":"[0,1,0,0,1,0,1,1,0,0,1,0,1,1,1,0,0]","door_history":"[1,0,1,1,0,1,0,0,1,1,0,1,0,0,0,1,1]","location_rts":"[858,584,934,426,731,747,592,1352,202,636,706,1052,680,510,573,235,843]","trial_type":"two-door-navigation","trial_index":15,"time_elapsed":450525,"internal_node_id":"0.0-2.0-13.0"},{"group":"dihedral group of order 12","room_assignment":["ivory","olive","pink","orange","brown","yellow","purple","blue","cyan","grey","green","red"],"door_color_assignment":["white","black"],"door_generator_assignment":[1,0],"goal":0,"start":4,"action_noise":0.15,"location_history":"[4,5,11,10,4,5,11,5,11,5,0]","action_history":"[0,1,0,0,0,1,1,1,0,0]","door_history":"[1,0,1,1,1,0,0,0,1,1]","location_rts":"[1169,574,669,819,889,898,409,562,803,468]","trial_type":"two-door-navigation","trial_index":16,"time_elapsed":471424,"internal_node_id":"0.0-2.0-14.0"},{"group":"dihedral group of order 12","room_assignment":["ivory","olive","pink","orange","brown","yellow","purple","blue","cyan","grey","green","red"],"door_color_assignment":["white","black"],"door_generator_assignment":[1,0],"goal":11,"start":0,"action_noise":0.15,"location_history":"[0,1,2,3,4,10,9,8,2,8,7,6,0,1,2,8,2,3,4,10,9,3,4,10,4,5,11]","action_history":"[0,1,0,0,1,0,0,1,1,0,0,1,0,0,1,0,0,0,1,0,1,1,1,1,0,1]","door_history":"[1,0,1,1,0,1,1,0,0,1,1,0,1,1,0,1,1,1,0,1,0,0,0,0,1,0]","location_rts":"[551,539,631,362,684,564,696,635,1120,542,496,758,578,629,666,291,531,623,707,842,528,525,759,557,1086,919]","trial_type":"two-door-navigation","trial_index":17,"time_elapsed":518090,"internal_node_id":"0.0-2.0-15.0"},{"group":"dihedral group of order 12","room_assignment":["ivory","olive","pink","orange","brown","yellow","purple","blue","cyan","grey","green","red"],"door_color_assignment":["white","black"],"door_generator_assignment":[1,0],"goal":2,"start":11,"action_noise":0.15,"location_history":"[11,10,4,10,9,8,2]","action_history":"[0,1,1,0,0,1]","door_history":"[1,0,0,1,1,0]","location_rts":"[814,620,625,1062,801,514]","trial_type":"two-door-navigation","trial_index":18,"time_elapsed":532107,"internal_node_id":"0.0-2.0-16.0"},{"group":"dihedral group of order 12","room_assignment":["ivory","olive","pink","orange","brown","yellow","purple","blue","cyan","grey","green","red"],"door_color_assignment":["white","black"],"door_generator_assignment":[1,0],"goal":7,"start":2,"action_noise":0.15,"location_history":"[2,3,4,10,9,8,7]","action_history":"[0,0,1,0,0,0]","door_history":"[1,1,0,1,1,1]","location_rts":"[1203,605,396,693,893,1269]","trial_type":"two-door-navigation","trial_index":19,"time_elapsed":546747,"internal_node_id":"0.0-2.0-17.0"},{"group":"dihedral group of order 12","room_assignment":["ivory","olive","pink","orange","brown","yellow","purple","blue","cyan","grey","green","red"],"door_color_assignment":["white","black"],"door_generator_assignment":[1,0],"goal":5,"start":7,"action_noise":0.15,"location_history":"[7,6,0,6,11,10,4,10,9,3,9,8,7,6,0,1,7,1,2,8,2,3,4,10,4,5]","action_history":"[0,1,1,0,1,1,1,0,1,1,0,0,0,1,1,0,0,1,1,0,0,0,1,1,0]","door_history":"[1,0,0,1,0,0,0,1,0,0,1,1,1,0,0,1,1,0,0,1,1,1,0,0,1]","location_rts":"[1478,592,891,498,618,603,560,610,376,1435,503,799,638,647,924,635,758,587,511,431,778,800,547,1244,590]","trial_type":"two-door-navigation","trial_index":20,"time_elapsed":593631,"internal_node_id":"0.0-2.0-18.0"},{"group":"dihedral group of order 12","room_assignment":["ivory","olive","pink","orange","brown","yellow","purple","blue","cyan","grey","green","red"],"door_color_assignment":["white","black"],"door_generator_assignment":[1,0],"goal":6,"start":5,"action_noise":0.15,"location_history":"[5,11,5,0,1,2,3,4,5,11,10,9,8,7,1,7,6]","action_history":"[0,1,0,0,0,0,0,0,1,0,0,0,0,1,1,0]","door_history":"[1,0,1,1,1,1,1,1,0,1,1,1,1,0,0,1]","location_rts":"[819,538,460,601,564,678,556,598,916,566,1110,1030,1163,861,848,837]","trial_type":"two-door-navigation","trial_index":21,"time_elapsed":625494,"internal_node_id":"0.0-2.0-19.0"},{"group":"dihedral group of order 12","room_assignment":["ivory","olive","pink","orange","brown","yellow","purple","blue","cyan","grey","green","red"],"door_color_assignment":["white","black"],"door_generator_assignment":[1,0],"goal":3,"start":6,"action_noise":0.15,"location_history":"[6,11,5,11,10,4,10,9,3]","action_history":"[0,1,1,0,1,1,0,1]","door_history":"[1,0,0,1,0,0,1,0]","location_rts":"[601,938,804,1283,488,911,826,342]","trial_type":"two-door-navigation","trial_index":22,"time_elapsed":643297,"internal_node_id":"0.0-2.0-20.0"},{"group":"dihedral group of order 12","room_assignment":["ivory","olive","pink","orange","brown","yellow","purple","blue","cyan","grey","green","red"],"door_color_assignment":["white","black"],"door_generator_assignment":[1,0],"goal":1,"start":3,"action_noise":0.15,"location_history":"[3,4,5,0,1]","action_history":"[0,0,0,0]","door_history":"[1,1,1,1]","location_rts":"[462,353,453,696]","trial_type":"two-door-navigation","trial_index":23,"time_elapsed":652815,"internal_node_id":"0.0-2.0-21.0"},{"group":"dihedral group of order 12","room_assignment":["ivory","olive","pink","orange","brown","yellow","purple","blue","cyan","grey","green","red"],"door_color_assignment":["white","black"],"door_generator_assignment":[1,0],"goal":9,"start":1,"action_noise":0.15,"location_history":"[1,2,8,2,3,4,10,4,10,9]","action_history":"[0,1,1,0,0,1,1,0,1]","door_history":"[1,0,0,1,1,0,0,1,0]","location_rts":"[589,466,325,593,343,930,574,809,366]","trial_type":"two-door-navigation","trial_index":24,"time_elapsed":670438,"internal_node_id":"0.0-2.0-22.0"},{"group":"dihedral group of order 12","room_assignment":["ivory","olive","pink","orange","brown","yellow","purple","blue","cyan","grey","green","red"],"door_color_assignment":["white","black"],"door_generator_assignment":[1,0],"goal":3,"start":9,"action_noise":0.15,"location_history":"[9,8,2,3]","action_history":"[0,1,1]","door_history":"[1,0,0]","location_rts":"[34066,617,510]","trial_type":"two-door-navigation","trial_index":25,"time_elapsed":712175,"internal_node_id":"0.0-2.0-23.0"},{"group":"dihedral group of order 12","room_assignment":["ivory","olive","pink","orange","brown","yellow","purple","blue","cyan","grey","green","red"],"door_color_assignment":["white","black"],"door_generator_assignment":[1,0],"goal":4,"start":3,"action_noise":0.15,"location_history":"[3,4]","action_history":"[0]","door_history":"[1]","location_rts":"[847]","trial_type":"two-door-navigation","trial_index":26,"time_elapsed":717542,"internal_node_id":"0.0-2.0-24.0"},{"group":"dihedral group of order 12","room_assignment":["ivory","olive","pink","orange","brown","yellow","purple","blue","cyan","grey","green","red"],"door_color_assignment":["white","black"],"door_generator_assignment":[1,0],"goal":2,"start":4,"action_noise":0.15,"location_history":"[4,5,11,5,11,10,4,10,9,3,9,8,2]","action_history":"[0,1,1,1,0,1,1,0,1,1,0,1]","door_history":"[1,0,0,0,1,0,0,1,0,0,1,0]","location_rts":"[769,241,222,346,521,173,420,523,259,438,736,799]","trial_type":"two-door-navigation","trial_index":27,"time_elapsed":738665,"internal_node_id":"0.0-2.0-25.0"},{"group":"dihedral group of order 12","room_assignment":["ivory","olive","pink","orange","brown","yellow","purple","blue","cyan","grey","green","red"],"door_color_assignment":["white","black"],"door_generator_assignment":[1,0],"goal":1,"start":2,"action_noise":0.15,"location_history":"[2,8,7,1]","action_history":"[0,0,1]","door_history":"[1,1,0]","location_rts":"[797,184,407]","trial_type":"two-door-navigation","trial_index":28,"time_elapsed":746601,"internal_node_id":"0.0-2.0-26.0"},{"group":"dihedral group of order 12","room_assignment":["ivory","olive","pink","orange","brown","yellow","purple","blue","cyan","grey","green","red"],"door_color_assignment":["white","black"],"door_generator_assignment":[1,0],"goal":8,"start":1,"action_noise":0.15,"location_history":"[1,2,8]","action_history":"[1,1]","door_history":"[0,0]","location_rts":"[572,822]","trial_type":"two-door-navigation","trial_index":29,"time_elapsed":753529,"internal_node_id":"0.0-2.0-27.0"},{"group":"dihedral group of order 12","room_assignment":["ivory","olive","pink","orange","brown","yellow","purple","blue","cyan","grey","green","red"],"door_color_assignment":["white","black"],"door_generator_assignment":[1,0],"goal":10,"start":8,"action_noise":0.15,"location_history":"[8,2,3,4,10]","action_history":"[1,0,0,0]","door_history":"[0,1,1,1]","location_rts":"[370,294,587,442]","trial_type":"two-door-navigation","trial_index":30,"time_elapsed":762777,"internal_node_id":"0.0-2.0-28.0"},{"group":"dihedral group of order 12","room_assignment":["ivory","olive","pink","orange","brown","yellow","purple","blue","cyan","grey","green","red"],"door_color_assignment":["white","black"],"door_generator_assignment":[1,0],"goal":7,"start":10,"action_noise":0.15,"location_history":"[10,4,5,0,6,11,10,9,3,4,5,11,10,9,3,4,10,9,3,4,10,9,3,4,10,4,10,4,10,4,10,9,8,7]","action_history":"[1,0,0,1,0,0,0,1,0,0,1,0,0,1,0,1,1,1,1,0,0,1,0,1,1,1,0,1,1,1,0,0,0]","door_history":"[0,1,1,0,1,1,1,0,1,1,0,1,1,0,1,0,0,0,0,1,1,0,1,0,0,0,1,0,0,0,1,1,1]","location_rts":"[588,220,312,508,297,411,537,630,376,391,637,449,484,738,326,532,552,702,493,357,541,548,313,464,653,952,428,540,258,779,340,354,767]","trial_type":"two-door-navigation","trial_index":31,"time_elapsed":816218,"internal_node_id":"0.0-2.0-29.0"},{"group":"dihedral group of order 12","room_assignment":["ivory","olive","pink","orange","brown","yellow","purple","blue","cyan","grey","green","red"],"door_color_assignment":["white","black"],"door_generator_assignment":[1,0],"goal":6,"start":7,"action_noise":0.15,"location_history":"[7,1,2,8,7,6]","action_history":"[1,0,1,0,0]","door_history":"[0,1,0,1,1]","location_rts":"[757,239,410,283,252]","trial_type":"two-door-navigation","trial_index":32,"time_elapsed":826736,"internal_node_id":"0.0-2.0-30.0"},{"group":"dihedral group of order 12","room_assignment":["ivory","olive","pink","orange","brown","yellow","purple","blue","cyan","grey","green","red"],"door_color_assignment":["white","black"],"door_generator_assignment":[1,0],"goal":0,"start":6,"action_noise":0.15,"location_history":"[6,11,5,0]","action_history":"[0,1,1]","door_history":"[1,0,0]","location_rts":"[843,114,498]","trial_type":"two-door-navigation","trial_index":33,"time_elapsed":834738,"internal_node_id":"0.0-2.0-31.0"},{"group":"dihedral group of order 12","room_assignment":["ivory","olive","pink","orange","brown","yellow","purple","blue","cyan","grey","green","red"],"door_color_assignment":["white","black"],"door_generator_assignment":[1,0],"goal":11,"start":0,"action_noise":0.15,"location_history":"[0,1,2,3,4,5,0,1,7,6,0,1,2,8,7,6,11]","action_history":"[0,0,0,0,0,1,0,1,0,1,0,0,1,0,0,0]","door_history":"[1,1,1,1,1,0,1,0,1,0,1,1,0,1,1,1]","location_rts":"[216,348,597,385,578,680,341,651,430,1026,619,159,557,515,404,1189]","trial_type":"two-door-navigation","trial_index":34,"time_elapsed":863178,"internal_node_id":"0.0-2.0-32.0"},{"group":"dihedral group of order 12","room_assignment":["ivory","olive","pink","orange","brown","yellow","purple","blue","cyan","grey","green","red"],"door_color_assignment":["white","black"],"door_generator_assignment":[1,0],"goal":9,"start":11,"action_noise":0.15,"location_history":"[11,5,0,1,2,3,9]","action_history":"[1,0,0,1,0,1]","door_history":"[0,1,1,0,1,0]","location_rts":"[893,363,396,208,582,710]","trial_type":"two-door-navigation","trial_index":35,"time_elapsed":875914,"internal_node_id":"0.0-2.0-33.0"},{"group":"dihedral group of order 12","room_assignment":["ivory","olive","pink","orange","brown","yellow","purple","blue","cyan","grey","green","red"],"door_color_assignment":["white","black"],"door_generator_assignment":[1,0],"goal":5,"start":9,"action_noise":0.15,"location_history":"[9,8,7,6,11,5]","action_history":"[0,0,1,0,1]","door_history":"[1,1,0,1,0]","location_rts":"[446,472,889,364,464]","trial_type":"two-door-navigation","trial_index":36,"time_elapsed":887142,"internal_node_id":"0.0-2.0-34.0"},{"view_history":"[{\"page_index\":0,\"viewing_time\":1606}]","rt":1606,"trial_type":"instructions","trial_index":37,"time_elapsed":889749,"internal_node_id":"0.0-3.0"},{"view_history":"[{\"page_index\":0,\"viewing_time\":1234},{\"page_index\":1,\"viewing_time\":5592}]","rt":6827,"trial_type":"instructions","trial_index":38,"time_elapsed":897577,"internal_node_id":"0.0-4.0"},{"group":"dihedral group of order 12","fractal_assignment":["../images/wht_red.png","../images/gry_blk.png","../images/cyn_red.png","../images/grn_blu.png","../images/pnk_blu.png","../images/grn_red.png","../images/org_blu.png","../images/ylw_slt.png","../images/grn_prp.png","../images/red_prp.png","../images/ylw_pnk.png","../images/blu_wht.png"],"mutagen_generator_assignment":[0,1],"goal":7,"start":11,"action_noise":0.15,"location_history":"[11,5,0,1,2,8,7]","action_history":"[0,0,0,0,0,0]","mutagen_history":"[0,0,0,0,0,0]","location_rts":"[1180,238,493,130,336,393]","trial_type":"fractal-mutation","trial_index":39,"time_elapsed":910087,"internal_node_id":"0.0-5.0-0.0"},{"group":"dihedral group of order 12","fractal_assignment":["../images/wht_red.png","../images/gry_blk.png","../images/cyn_red.png","../images/grn_blu.png","../images/pnk_blu.png","../images/grn_red.png","../images/org_blu.png","../images/ylw_slt.png","../images/grn_prp.png","../images/red_prp.png","../images/ylw_pnk.png","../images/blu_wht.png"],"mutagen_generator_assignment":[0,1],"goal":8,"start":7,"action_noise":0.15,"location_history":"[7,6,11,10,9,3,9,8]","action_history":"[0,0,0,0,0,0,0]","mutagen_history":"[0,0,0,0,0,0,0]","location_rts":"[1322,605,439,334,166,357,432]","trial_type":"fractal-mutation","trial_index":40,"time_elapsed":924482,"internal_node_id":"0.0-5.0-1.0"},{"group":"dihedral group of order 12","fractal_assignment":["../images/wht_red.png","../images/gry_blk.png","../images/cyn_red.png","../images/grn_blu.png","../images/pnk_blu.png","../images/grn_red.png","../images/org_blu.png","../images/ylw_slt.png","../images/grn_prp.png","../images/red_prp.png","../images/ylw_pnk.png","../images/blu_wht.png"],"mutagen_generator_assignment":[0,1],"goal":4,"start":8,"action_noise":0.15,"location_history":"[8,2,3,9,8,2,8,2,3,4]","action_history":"[1,0,1,0,1,1,1,1,0]","mutagen_history":"[1,0,1,0,1,1,1,1,0]","location_rts":"[1310,492,432,374,147,468,665,725,172]","trial_type":"fractal-mutation","trial_index":41,"time_elapsed":942152,"internal_node_id":"0.0-5.0-2.0"},{"group":"dihedral group of order 12","fractal_assignment":["../images/wht_red.png","../images/gry_blk.png","../images/cyn_red.png","../images/grn_blu.png","../images/pnk_blu.png","../images/grn_red.png","../images/org_blu.png","../images/ylw_slt.png","../images/grn_prp.png","../images/red_prp.png","../images/ylw_pnk.png","../images/blu_wht.png"],"mutagen_generator_assignment":[0,1],"goal":5,"start":4,"action_noise":0.15,"location_history":"[4,10,4,5]","action_history":"[1,0,0]","mutagen_history":"[1,0,0]","location_rts":"[386,254,242]","trial_type":"fractal-mutation","trial_index":42,"time_elapsed":949653,"internal_node_id":"0.0-5.0-3.0"},{"group":"dihedral group of order 12","fractal_assignment":["../images/wht_red.png","../images/gry_blk.png","../images/cyn_red.png","../images/grn_blu.png","../images/pnk_blu.png","../images/grn_red.png","../images/org_blu.png","../images/ylw_slt.png","../images/grn_prp.png","../images/red_prp.png","../images/ylw_pnk.png","../images/blu_wht.png"],"mutagen_generator_assignment":[0,1],"goal":10,"start":5,"action_noise":0.15,"location_history":"[5,11,10]","action_history":"[1,0]","mutagen_history":"[1,0]","location_rts":"[27,486]","trial_type":"fractal-mutation","trial_index":43,"time_elapsed":955754,"internal_node_id":"0.0-5.0-4.0"},{"group":"dihedral group of order 12","fractal_assignment":["../images/wht_red.png","../images/gry_blk.png","../images/cyn_red.png","../images/grn_blu.png","../images/pnk_blu.png","../images/grn_red.png","../images/org_blu.png","../images/ylw_slt.png","../images/grn_prp.png","../images/red_prp.png","../images/ylw_pnk.png","../images/blu_wht.png"],"mutagen_generator_assignment":[0,1],"goal":1,"start":10,"action_noise":0.15,"location_history":"[10,4,5,11,10,4,5,0,6,0,1]","action_history":"[1,0,0,0,0,0,0,0,0,0]","mutagen_history":"[1,0,0,0,0,0,0,0,0,0]","location_rts":"[760,82,123,89,66,16,355,365,159,222]","trial_type":"fractal-mutation","trial_index":44,"time_elapsed":971846,"internal_node_id":"0.0-5.0-5.0"},{"group":"dihedral group of order 12","fractal_assignment":["../images/wht_red.png","../images/gry_blk.png","../images/cyn_red.png","../images/grn_blu.png","../images/pnk_blu.png","../images/grn_red.png","../images/org_blu.png","../images/ylw_slt.png","../images/grn_prp.png","../images/red_prp.png","../images/ylw_pnk.png","../images/blu_wht.png"],"mutagen_generator_assignment":[0,1],"goal":6,"start":1,"action_noise":0.15,"location_history":"[1,7,6]","action_history":"[1,0]","mutagen_history":"[1,0]","location_rts":"[1132,180]","trial_type":"fractal-mutation","trial_index":45,"time_elapsed":978735,"internal_node_id":"0.0-5.0-6.0"},{"group":"dihedral group of order 12","fractal_assignment":["../images/wht_red.png","../images/gry_blk.png","../images/cyn_red.png","../images/grn_blu.png","../images/pnk_blu.png","../images/grn_red.png","../images/org_blu.png","../images/ylw_slt.png","../images/grn_prp.png","../images/red_prp.png","../images/ylw_pnk.png","../images/blu_wht.png"],"mutagen_generator_assignment":[0,1],"goal":9,"start":6,"action_noise":0.15,"location_history":"[6,11,10,4,5,0,1,2,3,4,10,4,10,9]","action_history":"[0,0,0,0,0,0,0,0,0,0,0,1,0]","mutagen_history":"[0,0,0,0,0,0,0,0,0,0,0,1,0]","location_rts":"[1471,227,50,58,149,217,69,171,371,334,357,321,357]","trial_type":"fractal-mutation","trial_index":46,"time_elapsed":999811,"internal_node_id":"0.0-5.0-7.0"},{"group":"dihedral group of order 12","fractal_assignment":["../images/wht_red.png","../images/gry_blk.png","../images/cyn_red.png","../images/grn_blu.png","../images/pnk_blu.png","../images/grn_red.png","../images/org_blu.png","../images/ylw_slt.png","../images/grn_prp.png","../images/red_prp.png","../images/ylw_pnk.png","../images/blu_wht.png"],"mutagen_generator_assignment":[0,1],"goal":2,"start":9,"action_noise":0.15,"location_history":"[9,3,4,10,9,8,7,6,11,5,0,1,2]","action_history":"[1,0,0,0,0,0,0,0,1,0,0,0]","mutagen_history":"[1,0,0,0,0,0,0,0,1,0,0,0]","location_rts":"[1487,72,65,43,415,37,310,31,779,180,95,10]","trial_type":"fractal-mutation","trial_index":47,"time_elapsed":1019227,"internal_node_id":"0.0-5.0-8.0"},{"group":"dihedral group of order 12","fractal_assignment":["../images/wht_red.png","../images/gry_blk.png","../images/cyn_red.png","../images/grn_blu.png","../images/pnk_blu.png","../images/grn_red.png","../images/org_blu.png","../images/ylw_slt.png","../images/grn_prp.png","../images/red_prp.png","../images/ylw_pnk.png","../images/blu_wht.png"],"mutagen_generator_assignment":[0,1],"goal":0,"start":2,"action_noise":0.15,"location_history":"[2,8,7,1,2,3,4,5,0]","action_history":"[1,0,0,0,0,0,0,0]","mutagen_history":"[1,0,0,0,0,0,0,0]","location_rts":"[330,175,209,278,258,44,109,77]","trial_type":"fractal-mutation","trial_index":48,"time_elapsed":1032467,"internal_node_id":"0.0-5.0-9.0"},{"group":"dihedral group of order 12","fractal_assignment":["../images/wht_red.png","../images/gry_blk.png","../images/cyn_red.png","../images/grn_blu.png","../images/pnk_blu.png","../images/grn_red.png","../images/org_blu.png","../images/ylw_slt.png","../images/grn_prp.png","../images/red_prp.png","../images/ylw_pnk.png","../images/blu_wht.png"],"mutagen_generator_assignment":[0,1],"goal":3,"start":0,"action_noise":0.15,"location_history":"[0,1,2,8,7,6,11,10,9,8,2,3]","action_history":"[0,0,0,0,0,0,0,0,0,0,0]","mutagen_history":"[0,0,0,0,0,0,0,0,0,0,0]","location_rts":"[839,84,39,128,351,269,92,4,131,211,284]","trial_type":"fractal-mutation","trial_index":49,"time_elapsed":1049729,"internal_node_id":"0.0-5.0-10.0"},{"group":"dihedral group of order 12","fractal_assignment":["../images/wht_red.png","../images/gry_blk.png","../images/cyn_red.png","../images/grn_blu.png","../images/pnk_blu.png","../images/grn_red.png","../images/org_blu.png","../images/ylw_slt.png","../images/grn_prp.png","../images/red_prp.png","../images/ylw_pnk.png","../images/blu_wht.png"],"mutagen_generator_assignment":[0,1],"goal":10,"start":3,"action_noise":0.15,"location_history":"[3,9,8,7,1,2,3,4,10]","action_history":"[1,0,1,0,0,0,0,0]","mutagen_history":"[1,0,1,0,0,0,0,0]","location_rts":"[1441,52,467,117,48,2,77,16]","trial_type":"fractal-mutation","trial_index":50,"time_elapsed":1063736,"internal_node_id":"0.0-5.0-11.0"},{"group":"dihedral group of order 12","fractal_assignment":["../images/wht_red.png","../images/gry_blk.png","../images/cyn_red.png","../images/grn_blu.png","../images/pnk_blu.png","../images/grn_red.png","../images/org_blu.png","../images/ylw_slt.png","../images/grn_prp.png","../images/red_prp.png","../images/ylw_pnk.png","../images/blu_wht.png"],"mutagen_generator_assignment":[0,1],"goal":8,"start":10,"action_noise":0.15,"location_history":"[10,4,5,0,1,7,6,11,10,9,8]","action_history":"[1,0,0,0,0,0,0,0,0,0]","mutagen_history":"[1,0,0,0,0,0,0,0,0,0]","location_rts":"[994,71,66,75,4,160,182,184,94,75]","trial_type":"fractal-mutation","trial_index":51,"time_elapsed":1079459,"internal_node_id":"0.0-5.0-12.0"},{"group":"dihedral group of order 12","fractal_assignment":["../images/wht_red.png","../images/gry_blk.png","../images/cyn_red.png","../images/grn_blu.png","../images/pnk_blu.png","../images/grn_red.png","../images/org_blu.png","../images/ylw_slt.png","../images/grn_prp.png","../images/red_prp.png","../images/ylw_pnk.png","../images/blu_wht.png"],"mutagen_generator_assignment":[0,1],"goal":4,"start":8,"action_noise":0.15,"location_history":"[8,2,3,9,8,7,1,2,8,7,1,2,8,7,1,7,6,11,5,0,1,7,6,11,10,4]","action_history":"[1,0,0,0,0,1,0,1,0,0,0,1,0,0,1,0,0,0,1,0,0,0,0,0,0]","mutagen_history":"[1,0,0,0,0,1,0,1,0,0,0,1,0,0,1,0,0,0,1,0,0,0,0,0,0]","location_rts":"[943,10,146,109,3,349,5,397,300,194,160,402,304,175,721,1092,125,513,504,424,8,84,94,129,32]","trial_type":"fractal-mutation","trial_index":52,"time_elapsed":1116035,"internal_node_id":"0.0-5.0-13.0"},{"group":"dihedral group of order 12","fractal_assignment":["../images/wht_red.png","../images/gry_blk.png","../images/cyn_red.png","../images/grn_blu.png","../images/pnk_blu.png","../images/grn_red.png","../images/org_blu.png","../images/ylw_slt.png","../images/grn_prp.png","../images/red_prp.png","../images/ylw_pnk.png","../images/blu_wht.png"],"mutagen_generator_assignment":[0,1],"goal":0,"start":4,"action_noise":0.15,"location_history":"[4,10,9,8,7,1,2,3,4,5,0]","action_history":"[1,0,0,0,0,0,0,0,0,0]","mutagen_history":"[1,0,0,0,0,0,0,0,0,0]","location_rts":"[230,118,139,29,199,31,164,82,54,101]","trial_type":"fractal-mutation","trial_index":53,"time_elapsed":1131009,"internal_node_id":"0.0-5.0-14.0"},{"group":"dihedral group of order 12","fractal_assignment":["../images/wht_red.png","../images/gry_blk.png","../images/cyn_red.png","../images/grn_blu.png","../images/pnk_blu.png","../images/grn_red.png","../images/org_blu.png","../images/ylw_slt.png","../images/grn_prp.png","../images/red_prp.png","../images/ylw_pnk.png","../images/blu_wht.png"],"mutagen_generator_assignment":[0,1],"goal":11,"start":0,"action_noise":0.15,"location_history":"[0,6,11]","action_history":"[1,0]","mutagen_history":"[1,0]","location_rts":"[129,305]","trial_type":"fractal-mutation","trial_index":54,"time_elapsed":1137012,"internal_node_id":"0.0-5.0-15.0"},{"group":"dihedral group of order 12","fractal_assignment":["../images/wht_red.png","../images/gry_blk.png","../images/cyn_red.png","../images/grn_blu.png","../images/pnk_blu.png","../images/grn_red.png","../images/org_blu.png","../images/ylw_slt.png","../images/grn_prp.png","../images/red_prp.png","../images/ylw_pnk.png","../images/blu_wht.png"],"mutagen_generator_assignment":[0,1],"goal":2,"start":11,"action_noise":0.15,"location_history":"[11,5,11,10,9,8,7,6,11,5,0,1,2]","action_history":"[1,0,0,0,0,0,0,0,0,0,0,0]","mutagen_history":"[1,0,0,0,0,0,0,0,0,0,0,0]","location_rts":"[222,38,170,90,241,242,282,138,45,41,104,270]","trial_type":"fractal-mutation","trial_index":55,"time_elapsed":1154777,"internal_node_id":"0.0-5.0-16.0"},{"group":"dihedral group of order 12","fractal_assignment":["../images/wht_red.png","../images/gry_blk.png","../images/cyn_red.png","../images/grn_blu.png","../images/pnk_blu.png","../images/grn_red.png","../images/org_blu.png","../images/ylw_slt.png","../images/grn_prp.png","../images/red_prp.png","../images/ylw_pnk.png","../images/blu_wht.png"],"mutagen_generator_assignment":[0,1],"goal":7,"start":2,"action_noise":0.15,"location_history":"[2,8,7]","action_history":"[1,0]","mutagen_history":"[1,0]","location_rts":"[240,46]","trial_type":"fractal-mutation","trial_index":56,"time_elapsed":1160653,"internal_node_id":"0.0-5.0-17.0"},{"group":"dihedral group of order 12","fractal_assignment":["../images/wht_red.png","../images/gry_blk.png","../images/cyn_red.png","../images/grn_blu.png","../images/pnk_blu.png","../images/grn_red.png","../images/org_blu.png","../images/ylw_slt.png","../images/grn_prp.png","../images/red_prp.png","../images/ylw_pnk.png","../images/blu_wht.png"],"mutagen_generator_assignment":[0,1],"goal":5,"start":7,"action_noise":0.15,"location_history":"[7,1,7,6,11,10,4,5]","action_history":"[1,0,0,0,0,0,0]","mutagen_history":"[1,0,0,0,0,0,0]","location_rts":"[263,192,17,220,140,69,368]","trial_type":"fractal-mutation","trial_index":57,"time_elapsed":1172679,"internal_node_id":"0.0-5.0-18.0"},{"group":"dihedral group of order 12","fractal_assignment":["../images/wht_red.png","../images/gry_blk.png","../images/cyn_red.png","../images/grn_blu.png","../images/pnk_blu.png","../images/grn_red.png","../images/org_blu.png","../images/ylw_slt.png","../images/grn_prp.png","../images/red_prp.png","../images/ylw_pnk.png","../images/blu_wht.png"],"mutagen_generator_assignment":[0,1],"goal":6,"start":5,"action_noise":0.15,"location_history":"[5,0,1,2,3,9,8,7,6]","action_history":"[0,0,0,0,1,0,0,0]","mutagen_history":"[0,0,0,0,1,0,0,0]","location_rts":"[716,58,64,149,408,24,106,191]","trial_type":"fractal-mutation","trial_index":58,"time_elapsed":1186144,"internal_node_id":"0.0-5.0-19.0"},{"group":"dihedral group of order 12","fractal_assignment":["../images/wht_red.png","../images/gry_blk.png","../images/cyn_red.png","../images/grn_blu.png","../images/pnk_blu.png","../images/grn_red.png","../images/org_blu.png","../images/ylw_slt.png","../images/grn_prp.png","../images/red_prp.png","../images/ylw_pnk.png","../images/blu_wht.png"],"mutagen_generator_assignment":[0,1],"goal":3,"start":6,"action_noise":0.15,"location_history":"[6,0,1,7,6,11,10,9,3]","action_history":"[1,0,0,0,0,0,0,0]","mutagen_history":"[1,0,0,0,0,0,0,0]","location_rts":"[242,25,168,117,143,90,8,73]","trial_type":"fractal-mutation","trial_index":59,"time_elapsed":1198777,"internal_node_id":"0.0-5.0-20.0"},{"group":"dihedral group of order 12","fractal_assignment":["../images/wht_red.png","../images/gry_blk.png","../images/cyn_red.png","../images/grn_blu.png","../images/pnk_blu.png","../images/grn_red.png","../images/org_blu.png","../images/ylw_slt.png","../images/grn_prp.png","../images/red_prp.png","../images/ylw_pnk.png","../images/blu_wht.png"],"mutagen_generator_assignment":[0,1],"goal":1,"start":3,"action_noise":0.15,"location_history":"[3,9,3,9,8,2,3,4,5,0,6,0,1]","action_history":"[1,1,1,0,1,0,0,0,0,0,0,0]","mutagen_history":"[1,1,1,0,1,0,0,0,0,0,0,0]","location_rts":"[723,582,279,56,398,162,195,295,299,55,24,31]","trial_type":"fractal-mutation","trial_index":60,"time_elapsed":1217821,"internal_node_id":"0.0-5.0-21.0"},{"group":"dihedral group of order 12","fractal_assignment":["../images/wht_red.png","../images/gry_blk.png","../images/cyn_red.png","../images/grn_blu.png","../images/pnk_blu.png","../images/grn_red.png","../images/org_blu.png","../images/ylw_slt.png","../images/grn_prp.png","../images/red_prp.png","../images/ylw_pnk.png","../images/blu_wht.png"],"mutagen_generator_assignment":[0,1],"goal":9,"start":1,"action_noise":0.15,"location_history":"[1,2,3,4,5,0,1,2,3,9]","action_history":"[0,0,0,0,0,0,0,0,0]","mutagen_history":"[0,0,0,0,0,0,0,0,0]","location_rts":"[787,143,43,135,81,18,45,263,114]","trial_type":"fractal-mutation","trial_index":61,"time_elapsed":1232246,"internal_node_id":"0.0-5.0-22.0"},{"group":"dihedral group of order 12","fractal_assignment":["../images/wht_red.png","../images/gry_blk.png","../images/cyn_red.png","../images/grn_blu.png","../images/pnk_blu.png","../images/grn_red.png","../images/org_blu.png","../images/ylw_slt.png","../images/grn_prp.png","../images/red_prp.png","../images/ylw_pnk.png","../images/blu_wht.png"],"mutagen_generator_assignment":[0,1],"goal":3,"start":9,"action_noise":0.15,"location_history":"[9,3]","action_history":"[1]","mutagen_history":"[1]","location_rts":"[514]","trial_type":"fractal-mutation","trial_index":62,"time_elapsed":1237311,"internal_node_id":"0.0-5.0-23.0"},{"group":"dihedral group of order 12","fractal_assignment":["../images/wht_red.png","../images/gry_blk.png","../images/cyn_red.png","../images/grn_blu.png","../images/pnk_blu.png","../images/grn_red.png","../images/org_blu.png","../images/ylw_slt.png","../images/grn_prp.png","../images/red_prp.png","../images/ylw_pnk.png","../images/blu_wht.png"],"mutagen_generator_assignment":[0,1],"goal":4,"start":3,"action_noise":0.15,"location_history":"[3,9,8,7,6,11,5,11,10,4]","action_history":"[1,0,0,0,0,0,0,0,0]","mutagen_history":"[1,0,0,0,0,0,0,0,0]","location_rts":"[881,46,88,194,176,288,709,333,330]","trial_type":"fractal-mutation","trial_index":63,"time_elapsed":1253164,"internal_node_id":"0.0-5.0-24.0"},{"group":"dihedral group of order 12","fractal_assignment":["../images/wht_red.png","../images/gry_blk.png","../images/cyn_red.png","../images/grn_blu.png","../images/pnk_blu.png","../images/grn_red.png","../images/org_blu.png","../images/ylw_slt.png","../images/grn_prp.png","../images/red_prp.png","../images/ylw_pnk.png","../images/blu_wht.png"],"mutagen_generator_assignment":[0,1],"goal":2,"start":4,"action_noise":0.15,"location_history":"[4,10,9,8,7,6,11,10,9,3,4,5,11,5,11,5,0,6,0,1,7,6,11,5,11,5,0,6,11,5,11,5,11,10,9,3,4,5,0,6,11,10,9,8,7,1,2]","action_history":"[1,0,0,0,0,0,0,0,1,0,0,1,0,0,1,0,0,1,0,1,0,0,1,1,1,0,1,0,1,0,0,0,0,0,0,0,0,0,0,0,0,0,0,0,0,0]","mutagen_history":"[1,0,0,0,0,0,0,0,1,0,0,1,0,0,1,0,0,1,0,1,0,0,1,1,1,0,1,0,1,0,0,0,0,0,0,0,0,0,0,0,0,0,0,0,0,0]","location_rts":"[1742,520,10,491,125,47,374,549,335,346,190,265,134,258,216,297,125,776,423,191,224,235,81,531,303,487,234,316,168,380,12,70,107,1,4,111,576,262,334,77,433,393,290,152,268,209]","trial_type":"fractal-mutation","trial_index":64,"time_elapsed":1317870,"internal_node_id":"0.0-5.0-25.0"},{"group":"dihedral group of order 12","fractal_assignment":["../images/wht_red.png","../images/gry_blk.png","../images/cyn_red.png","../images/grn_blu.png","../images/pnk_blu.png","../images/grn_red.png","../images/org_blu.png","../images/ylw_slt.png","../images/grn_prp.png","../images/red_prp.png","../images/ylw_pnk.png","../images/blu_wht.png"],"mutagen_generator_assignment":[0,1],"goal":1,"start":2,"action_noise":0.15,"location_history":"[2,8,7,6,11,10,9,8,7,6,11,10,4,5,0,1]","action_history":"[1,0,0,0,0,0,0,0,0,0,0,0,0,0,0]","mutagen_history":"[1,0,0,0,0,0,0,0,0,0,0,0,0,0,0]","location_rts":"[633,737,143,170,42,161,80,176,93,75,189,190,37,128,80]","trial_type":"fractal-mutation","trial_index":65,"time_elapsed":1339775,"internal_node_id":"0.0-5.0-26.0"},{"group":"dihedral group of order 12","fractal_assignment":["../images/wht_red.png","../images/gry_blk.png","../images/cyn_red.png","../images/grn_blu.png","../images/pnk_blu.png","../images/grn_red.png","../images/org_blu.png","../images/ylw_slt.png","../images/grn_prp.png","../images/red_prp.png","../images/ylw_pnk.png","../images/blu_wht.png"],"mutagen_generator_assignment":[0,1],"goal":8,"start":1,"action_noise":0.15,"location_history":"[1,7,6,11,10,9,8]","action_history":"[1,0,0,0,0,0]","mutagen_history":"[1,0,0,0,0,0]","location_rts":"[626,128,51,103,15,73]","trial_type":"fractal-mutation","trial_index":66,"time_elapsed":1350466,"internal_node_id":"0.0-5.0-27.0"},{"group":"dihedral group of order 12","fractal_assignment":["../images/wht_red.png","../images/gry_blk.png","../images/cyn_red.png","../images/grn_blu.png","../images/pnk_blu.png","../images/grn_red.png","../images/org_blu.png","../images/ylw_slt.png","../images/grn_prp.png","../images/red_prp.png","../images/ylw_pnk.png","../images/blu_wht.png"],"mutagen_generator_assignment":[0,1],"goal":10,"start":8,"action_noise":0.15,"location_history":"[8,2,3,4,5,0,6,11,10]","action_history":"[1,0,0,0,0,0,0,0]","mutagen_history":"[1,0,0,0,0,0,0,0]","location_rts":"[293,101,124,34,131,103,56,327]","trial_type":"fractal-mutation","trial_index":67,"time_elapsed":1363393,"internal_node_id":"0.0-5.0-28.0"},{"group":"dihedral group of order 12","fractal_assignment":["../images/wht_red.png","../images/gry_blk.png","../images/cyn_red.png","../images/grn_blu.png","../images/pnk_blu.png","../images/grn_red.png","../images/org_blu.png","../images/ylw_slt.png","../images/grn_prp.png","../images/red_prp.png","../images/ylw_pnk.png","../images/blu_wht.png"],"mutagen_generator_assignment":[0,1],"goal":7,"start":10,"action_noise":0.15,"location_history":"[10,4,5,11,10,9,3,9,8,7]","action_history":"[1,0,0,0,0,0,1,0,0]","mutagen_history":"[1,0,0,0,0,0,1,0,0]","location_rts":"[200,211,71,249,324,367,69,146,162]","trial_type":"fractal-mutation","trial_index":68,"time_elapsed":1377983,"internal_node_id":"0.0-5.0-29.0"},{"group":"dihedral group of order 12","fractal_assignment":["../images/wht_red.png","../images/gry_blk.png","../images/cyn_red.png","../images/grn_blu.png","../images/pnk_blu.png","../images/grn_red.png","../images/org_blu.png","../images/ylw_slt.png","../images/grn_prp.png","../images/red_prp.png","../images/ylw_pnk.png","../images/blu_wht.png"],"mutagen_generator_assignment":[0,1],"goal":6,"start":7,"action_noise":0.15,"location_history":"[7,1,2,3,4,5,11,10,9,8,7,6]","action_history":"[1,0,0,0,0,0,0,0,0,0,0]","mutagen_history":"[1,0,0,0,0,0,0,0,0,0,0]","location_rts":"[745,182,96,7,440,349,120,63,101,320,329]","trial_type":"fractal-mutation","trial_index":69,"time_elapsed":1395613,"internal_node_id":"0.0-5.0-30.0"},{"group":"dihedral group of order 12","fractal_assignment":["../images/wht_red.png","../images/gry_blk.png","../images/cyn_red.png","../images/grn_blu.png","../images/pnk_blu.png","../images/grn_red.png","../images/org_blu.png","../images/ylw_slt.png","../images/grn_prp.png","../images/red_prp.png","../images/ylw_pnk.png","../images/blu_wht.png"],"mutagen_generator_assignment":[0,1],"goal":0,"start":6,"action_noise":0.15,"location_history":"[6,11,10,4,5,0]","action_history":"[0,0,0,0,0]","mutagen_history":"[0,0,0,0,0]","location_rts":"[1965,73,7,310,78]","trial_type":"fractal-mutation","trial_index":70,"time_elapsed":1406699,"internal_node_id":"0.0-5.0-31.0"},{"group":"dihedral group of order 12","fractal_assignment":["../images/wht_red.png","../images/gry_blk.png","../images/cyn_red.png","../images/grn_blu.png","../images/pnk_blu.png","../images/grn_red.png","../images/org_blu.png","../images/ylw_slt.png","../images/grn_prp.png","../images/red_prp.png","../images/ylw_pnk.png","../images/blu_wht.png"],"mutagen_generator_assignment":[0,1],"goal":11,"start":0,"action_noise":0.15,"location_history":"[0,6,11]","action_history":"[1,0]","mutagen_history":"[1,0]","location_rts":"[563,266]","trial_type":"fractal-mutation","trial_index":71,"time_elapsed":1413111,"internal_node_id":"0.0-5.0-32.0"},{"group":"dihedral group of order 12","fractal_assignment":["../images/wht_red.png","../images/gry_blk.png","../images/cyn_red.png","../images/grn_blu.png","../images/pnk_blu.png","../images/grn_red.png","../images/org_blu.png","../images/ylw_slt.png","../images/grn_prp.png","../images/red_prp.png","../images/ylw_pnk.png","../images/blu_wht.png"],"mutagen_generator_assignment":[0,1],"goal":9,"start":11,"action_noise":0.15,"location_history":"[11,5,0,1,2,3,4,5,0,1,2,3,4,5,11,10,9]","action_history":"[1,0,0,0,0,0,0,0,0,0,0,0,0,0,0,0]","mutagen_history":"[1,0,0,0,0,0,0,0,0,0,0,0,0,0,0,0]","location_rts":"[1097,11,34,182,280,194,78,11,206,129,6,176,265,265,287,422]","trial_type":"fractal-mutation","trial_index":72,"time_elapsed":1436776,"internal_node_id":"0.0-5.0-33.0"},{"group":"dihedral group of order 12","fractal_assignment":["../images/wht_red.png","../images/gry_blk.png","../images/cyn_red.png","../images/grn_blu.png","../images/pnk_blu.png","../images/grn_red.png","../images/org_blu.png","../images/ylw_slt.png","../images/grn_prp.png","../images/red_prp.png","../images/ylw_pnk.png","../images/blu_wht.png"],"mutagen_generator_assignment":[0,1],"goal":5,"start":9,"action_noise":0.15,"location_history":"[9,8,2,3,4,5]","action_history":"[0,1,0,0,0]","mutagen_history":"[0,1,0,0,0]","location_rts":"[5920,516,219,460,510]","trial_type":"fractal-mutation","trial_index":73,"time_elapsed":1453065,"internal_node_id":"0.0-5.0-34.0"},{"view_history":"[{\"page_index\":0,\"viewing_time\":7864}]","rt":7865,"trial_type":"instructions","trial_index":74,"time_elapsed":1461931,"internal_node_id":"0.0-6.0"},{"rt":39526,"responses":"{\"Q0\":\"Please send an email when you post the third HIT. I almost missed doing the second part. Thanks! \"}","trial_type":"survey-text","trial_index":75,"time_elapsed":1502461,"internal_node_id":"0.0-7.0"}]