[{"view_history":"[{\"page_index\":0,\"viewing_time\":5512},{\"page_index\":1,\"viewing_time\":9039}]","rt":14551,"trial_type":"instructions","trial_index":0,"time_elapsed":14553,"internal_node_id":"0.0-0.0"},{"view_history":"[{\"page_index\":0,\"viewing_time\":1798},{\"page_index\":1,\"viewing_time\":3200}]","rt":4998,"trial_type":"instructions","trial_index":1,"time_elapsed":20552,"internal_node_id":"0.0-1.0"},{"group":"dicyclic group of order 12","room_assignment":["brown","cyan","purple","yellow","red","orange","blue","green","olive","ivory","pink","grey"],"door_color_assignment":["white","black"],"door_generator_assignment":[0,1],"goal":7,"start":11,"action_noise":0.15,"location_history":"[11,3,7]","action_history":"[1,1]","door_history":"[1,1]","location_rts":"[7904,805]","trial_type":"two-door-navigation","trial_index":2,"time_elapsed":34816,"internal_node_id":"0.0-2.0-0.0"},{"group":"dicyclic group of order 12","room_assignment":["brown","cyan","purple","yellow","red","orange","blue","green","olive","ivory","pink","grey"],"door_color_assignment":["white","black"],"door_generator_assignment":[0,1],"goal":8,"start":7,"action_noise":0.15,"location_history":"[7,8]","action_history":"[0]","door_history":"[0]","location_rts":"[1754]","trial_type":"two-door-navigation","trial_index":3,"time_elapsed":41094,"internal_node_id":"0.0-2.0-1.0"},{"group":"dicyclic group of order 12","room_assignment":["brown","cyan","purple","yellow","red","orange","blue","green","olive","ivory","pink","grey"],"door_color_assignment":["white","black"],"door_generator_assignment":[0,1],"goal":4,"start":8,"action_noise":0.15,"location_history":"[8,5,10,7,11,3,7,8,0,1,2,3,0,4]","action_history":"[0,0,0,1,1,1,1,1,0,0,0,0,1]","door_history":"[0,0,0,1,1,1,1,1,0,0,0,0,1]","location_rts":"[1756,549,636,455,968,642,773,612,135,317,226,317,285]","trial_type":"two-door-navigation","trial_index":4,"time_elapsed":65579,"internal_node_id":"0.0-2.0-2.0"},{"group":"dicyclic group of order 12","room_assignment":["brown","cyan","purple","yellow","red","orange","blue","green","olive","ivory","pink","grey"],"door_color_assignment":["white","black"],"door_generator_assignment":[0,1],"goal":5,"start":4,"action_noise":0.15,"location_history":"[4,8,5]","action_history":"[1,0]","door_history":"[1,0]","location_rts":"[1790,375]","trial_type":"two-door-navigation","trial_index":5,"time_elapsed":73303,"internal_node_id":"0.0-2.0-3.0"},{"group":"dicyclic group of order 12","room_assignment":["brown","cyan","purple","yellow","red","orange","blue","green","olive","ivory","pink","grey"],"door_color_assignment":["white","black"],"door_generator_assignment":[0,1],"goal":10,"start":5,"action_noise":0.15,"location_history":"[5,9,6,11,4,9,1,2,6,11,4,9,6,11,4,8,5,10]","action_history":"[1,0,0,0,0,1,0,0,0,0,0,1,0,0,1,0,0]","door_history":"[1,0,0,0,0,1,0,0,0,0,0,1,0,0,1,0,0]","location_rts":"[1634,121,199,123,206,145,136,244,187,236,314,50,148,348,707,749,148]","trial_type":"two-door-navigation","trial_index":6,"time_elapsed":99911,"internal_node_id":"0.0-2.0-4.0"},{"group":"dicyclic group of order 12","room_assignment":["brown","cyan","purple","yellow","red","orange","blue","green","olive","ivory","pink","grey"],"door_color_assignment":["white","black"],"door_generator_assignment":[0,1],"goal":1,"start":10,"action_noise":0.15,"location_history":"[10,2,3,0,1]","action_history":"[1,0,0,0]","door_history":"[1,0,0,0]","location_rts":"[3329,40,211,131]","trial_type":"two-door-navigation","trial_index":7,"time_elapsed":111225,"internal_node_id":"0.0-2.0-5.0"},{"group":"dicyclic group of order 12","room_assignment":["brown","cyan","purple","yellow","red","orange","blue","green","olive","ivory","pink","grey"],"door_color_assignment":["white","black"],"door_generator_assignment":[0,1],"goal":6,"start":1,"action_noise":0.15,"location_history":"[1,5,9,6]","action_history":"[1,1,0]","door_history":"[1,1,0]","location_rts":"[2416,541,373]","trial_type":"two-door-navigation","trial_index":8,"time_elapsed":121116,"internal_node_id":"0.0-2.0-6.0"},{"group":"dicyclic group of order 12","room_assignment":["brown","cyan","purple","yellow","red","orange","blue","green","olive","ivory","pink","grey"],"door_color_assignment":["white","black"],"door_generator_assignment":[0,1],"goal":9,"start":6,"action_noise":0.15,"location_history":"[6,11,4,8,5,10,2,3,7,8,5,9]","action_history":"[0,0,0,0,0,1,0,1,1,0,1]","door_history":"[0,0,0,0,0,1,0,1,1,0,1]","location_rts":"[1454,328,352,380,332,190,141,107,179,159,214]","trial_type":"two-door-navigation","trial_index":9,"time_elapsed":139710,"internal_node_id":"0.0-2.0-7.0"},{"group":"dicyclic group of order 12","room_assignment":["brown","cyan","purple","yellow","red","orange","blue","green","olive","ivory","pink","grey"],"door_color_assignment":["white","black"],"door_generator_assignment":[0,1],"goal":2,"start":9,"action_noise":0.15,"location_history":"[9,1,2]","action_history":"[1,0]","door_history":"[1,0]","location_rts":"[2010,453]","trial_type":"two-door-navigation","trial_index":10,"time_elapsed":147725,"internal_node_id":"0.0-2.0-8.0"},{"group":"dicyclic group of order 12","room_assignment":["brown","cyan","purple","yellow","red","orange","blue","green","olive","ivory","pink","grey"],"door_color_assignment":["white","black"],"door_generator_assignment":[0,1],"goal":0,"start":2,"action_noise":0.15,"location_history":"[2,6,10,7,8,5,10,7,8,0]","action_history":"[1,1,0,0,0,1,0,0,1]","door_history":"[1,1,0,0,0,1,0,0,1]","location_rts":"[1091,105,197,394,337,161,181,297,1131]","trial_type":"two-door-navigation","trial_index":11,"time_elapsed":164314,"internal_node_id":"0.0-2.0-9.0"},{"group":"dicyclic group of order 12","room_assignment":["brown","cyan","purple","yellow","red","orange","blue","green","olive","ivory","pink","grey"],"door_color_assignment":["white","black"],"door_generator_assignment":[0,1],"goal":3,"start":0,"action_noise":0.15,"location_history":"[0,4,9,6,10,2,3]","action_history":"[1,0,0,1,0,0]","door_history":"[1,0,0,1,0,0]","location_rts":"[1257,191,358,259,205,120]","trial_type":"two-door-navigation","trial_index":12,"time_elapsed":176342,"internal_node_id":"0.0-2.0-10.0"},{"group":"dicyclic group of order 12","room_assignment":["brown","cyan","purple","yellow","red","orange","blue","green","olive","ivory","pink","grey"],"door_color_assignment":["white","black"],"door_generator_assignment":[0,1],"goal":10,"start":3,"action_noise":0.15,"location_history":"[3,7,11,4,9,1,5,10]","action_history":"[1,0,0,0,0,1,0]","door_history":"[1,0,0,0,0,1,0]","location_rts":"[629,211,219,321,389,269,50]","trial_type":"two-door-navigation","trial_index":13,"time_elapsed":189080,"internal_node_id":"0.0-2.0-11.0"},{"group":"dicyclic group of order 12","room_assignment":["brown","cyan","purple","yellow","red","orange","blue","green","olive","ivory","pink","grey"],"door_color_assignment":["white","black"],"door_generator_assignment":[0,1],"goal":8,"start":10,"action_noise":0.15,"location_history":"[10,2,6,10,7,8]","action_history":"[1,1,1,0,0]","door_history":"[1,1,1,0,0]","location_rts":"[929,315,467,451,1428]","trial_type":"two-door-navigation","trial_index":14,"time_elapsed":201310,"internal_node_id":"0.0-2.0-12.0"},{"group":"dicyclic group of order 12","room_assignment":["brown","cyan","purple","yellow","red","orange","blue","green","olive","ivory","pink","grey"],"door_color_assignment":["white","black"],"door_generator_assignment":[0,1],"goal":4,"start":8,"action_noise":0.15,"location_history":"[8,0,4]","action_history":"[0,1]","door_history":"[0,1]","location_rts":"[1389,352]","trial_type":"two-door-navigation","trial_index":15,"time_elapsed":208596,"internal_node_id":"0.0-2.0-13.0"},{"group":"dicyclic group of order 12","room_assignment":["brown","cyan","purple","yellow","red","orange","blue","green","olive","ivory","pink","grey"],"door_color_assignment":["white","black"],"door_generator_assignment":[0,1],"goal":0,"start":4,"action_noise":0.15,"location_history":"[4,9,1,5,10,7,8,5,9,6,10,7,11,4,9,1,2,3,0]","action_history":"[0,1,1,0,0,0,0,1,0,0,0,1,0,0,0,1,0,0]","door_history":"[0,1,1,0,0,0,0,1,0,0,0,1,0,0,0,1,0,0]","location_rts":"[1604,155,274,140,264,293,503,83,180,163,203,201,137,298,306,116,148,216]","trial_type":"two-door-navigation","trial_index":16,"time_elapsed":235811,"internal_node_id":"0.0-2.0-14.0"},{"group":"dicyclic group of order 12","room_assignment":["brown","cyan","purple","yellow","red","orange","blue","green","olive","ivory","pink","grey"],"door_color_assignment":["white","black"],"door_generator_assignment":[0,1],"goal":11,"start":0,"action_noise":0.15,"location_history":"[0,4,9,6,11]","action_history":"[1,0,0,0]","door_history":"[1,0,0,0]","location_rts":"[1012,261,226,283]","trial_type":"two-door-navigation","trial_index":17,"time_elapsed":245195,"internal_node_id":"0.0-2.0-15.0"},{"group":"dicyclic group of order 12","room_assignment":["brown","cyan","purple","yellow","red","orange","blue","green","olive","ivory","pink","grey"],"door_color_assignment":["white","black"],"door_generator_assignment":[0,1],"goal":2,"start":11,"action_noise":0.15,"location_history":"[11,3,0,1,5,9,6,11,3,0,4,8,5,10,7,8,0,4,9,6,10,7,11,4,9,1,5,10,7,8,0,1,5,10,7,11,4,9,6,10,2]","action_history":"[1,0,0,1,1,0,0,1,0,0,0,1,0,0,0,1,0,0,1,1,0,0,0,0,1,0,0,0,0,1,0,0,0,0,1,0,0,0,1,1]","door_history":"[1,0,0,1,1,0,0,1,0,0,0,1,0,0,0,1,0,0,1,1,0,0,0,0,1,0,0,0,0,1,0,0,0,0,1,0,0,0,1,1]","location_rts":"[645,44,75,90,111,22,76,78,10,207,101,48,82,208,269,11,100,64,140,164,138,165,301,123,100,59,122,144,116,28,96,222,85,100,61,791,344,107,103,101]","trial_type":"two-door-navigation","trial_index":18,"time_elapsed":295508,"internal_node_id":"0.0-2.0-16.0"},{"group":"dicyclic group of order 12","room_assignment":["brown","cyan","purple","yellow","red","orange","blue","green","olive","ivory","pink","grey"],"door_color_assignment":["white","black"],"door_generator_assignment":[0,1],"goal":7,"start":2,"action_noise":0.15,"location_history":"[2,3,0,1,2,3,7]","action_history":"[0,0,0,0,0,1]","door_history":"[0,0,0,0,0,1]","location_rts":"[1413,211,122,108,19,90]","trial_type":"two-door-navigation","trial_index":19,"time_elapsed":307105,"internal_node_id":"0.0-2.0-17.0"},{"group":"dicyclic group of order 12","room_assignment":["brown","cyan","purple","yellow","red","orange","blue","green","olive","ivory","pink","grey"],"door_color_assignment":["white","black"],"door_generator_assignment":[0,1],"goal":5,"start":7,"action_noise":0.15,"location_history":"[7,11,3,0,1,2,6,11,3,7,8,0,4,9,1,5]","action_history":"[1,0,0,0,0,1,0,1,1,0,1,0,0,0,0]","door_history":"[1,0,0,0,0,1,0,1,1,0,1,0,0,0,0]","location_rts":"[753,873,415,58,19,140,109,35,81,221,1552,392,264,680,268]","trial_type":"two-door-navigation","trial_index":20,"time_elapsed":331810,"internal_node_id":"0.0-2.0-18.0"},{"group":"dicyclic group of order 12","room_assignment":["brown","cyan","purple","yellow","red","orange","blue","green","olive","ivory","pink","grey"],"door_color_assignment":["white","black"],"door_generator_assignment":[0,1],"goal":6,"start":5,"action_noise":0.15,"location_history":"[5,9,1,2,3,7,8,0,4,9,6]","action_history":"[1,0,0,0,1,0,1,1,0,0]","door_history":"[1,0,0,0,1,0,1,1,0,0]","location_rts":"[867,428,419,424,179,131,232,351,617,436]","trial_type":"two-door-navigation","trial_index":21,"time_elapsed":349650,"internal_node_id":"0.0-2.0-19.0"},{"group":"dicyclic group of order 12","room_assignment":["brown","cyan","purple","yellow","red","orange","blue","green","olive","ivory","pink","grey"],"door_color_assignment":["white","black"],"door_generator_assignment":[0,1],"goal":3,"start":6,"action_noise":0.15,"location_history":"[6,10,2,6,10,7,8,0,4,9,1,2,6,11,3]","action_history":"[1,1,1,0,0,0,0,1,0,0,0,0,1,1]","door_history":"[1,1,1,0,0,0,0,1,0,0,0,0,1,1]","location_rts":"[1354,370,374,287,297,1258,297,519,340,301,52,213,62,82]","trial_type":"two-door-navigation","trial_index":22,"time_elapsed":373316,"internal_node_id":"0.0-2.0-20.0"},{"group":"dicyclic group of order 12","room_assignment":["brown","cyan","purple","yellow","red","orange","blue","green","olive","ivory","pink","grey"],"door_color_assignment":["white","black"],"door_generator_assignment":[0,1],"goal":1,"start":3,"action_noise":0.15,"location_history":"[3,0,4,8,5,10,7,8,0,1]","action_history":"[0,0,0,0,0,0,0,1,0]","door_history":"[0,0,0,0,0,0,0,1,0]","location_rts":"[1273,376,708,417,428,208,287,90,134]","trial_type":"two-door-navigation","trial_index":23,"time_elapsed":389952,"internal_node_id":"0.0-2.0-21.0"},{"group":"dicyclic group of order 12","room_assignment":["brown","cyan","purple","yellow","red","orange","blue","green","olive","ivory","pink","grey"],"door_color_assignment":["white","black"],"door_generator_assignment":[0,1],"goal":9,"start":1,"action_noise":0.15,"location_history":"[1,5,10,2,6,11,4,9]","action_history":"[1,1,1,1,0,0,0]","door_history":"[1,1,1,1,0,0,0]","location_rts":"[1817,352,642,635,460,1300,116]","trial_type":"two-door-navigation","trial_index":24,"time_elapsed":405940,"internal_node_id":"0.0-2.0-22.0"},{"group":"dicyclic group of order 12","room_assignment":["brown","cyan","purple","yellow","red","orange","blue","green","olive","ivory","pink","grey"],"door_color_assignment":["white","black"],"door_generator_assignment":[0,1],"goal":3,"start":9,"action_noise":0.15,"location_history":"[9,1,5,10,7,11,4,9,1,5,9,6,10,7,8,0,4,9,6,10,2,6,11,4,8,0,4,8,5,10,7,11,3]","action_history":"[1,1,0,0,1,0,0,1,1,1,0,1,0,0,1,1,0,0,1,1,1,0,0,1,1,1,1,0,0,0,1,1]","door_history":"[1,1,0,0,1,0,0,1,1,1,0,1,0,0,1,1,0,0,1,1,1,0,0,1,1,1,1,0,0,0,1,1]","location_rts":"[934,311,197,144,291,683,646,212,133,229,117,331,197,95,277,164,69,132,47,162,59,110,97,436,14,147,141,116,149,261,313,501]","trial_type":"two-door-navigation","trial_index":25,"time_elapsed":449818,"internal_node_id":"0.0-2.0-23.0"},{"group":"dicyclic group of order 12","room_assignment":["brown","cyan","purple","yellow","red","orange","blue","green","olive","ivory","pink","grey"],"door_color_assignment":["white","black"],"door_generator_assignment":[0,1],"goal":4,"start":3,"action_noise":0.15,"location_history":"[3,7,11,3,7,11,4]","action_history":"[1,1,1,1,1,0]","door_history":"[1,1,1,1,1,0]","location_rts":"[1333,331,511,747,422,26]","trial_type":"two-door-navigation","trial_index":26,"time_elapsed":462818,"internal_node_id":"0.0-2.0-24.0"},{"group":"dicyclic group of order 12","room_assignment":["brown","cyan","purple","yellow","red","orange","blue","green","olive","ivory","pink","grey"],"door_color_assignment":["white","black"],"door_generator_assignment":[0,1],"goal":2,"start":4,"action_noise":0.15,"location_history":"[4,8,0,4,9,6,11,4,9,1,5,9,1,2]","action_history":"[1,1,1,0,0,0,0,0,0,1,1,1,0]","door_history":"[1,1,1,0,0,0,0,0,0,1,1,1,0]","location_rts":"[1522,412,407,249,908,1491,5563,1294,731,297,241,455,150]","trial_type":"two-door-navigation","trial_index":27,"time_elapsed":493364,"internal_node_id":"0.0-2.0-25.0"},{"group":"dicyclic group of order 12","room_assignment":["brown","cyan","purple","yellow","red","orange","blue","green","olive","ivory","pink","grey"],"door_color_assignment":["white","black"],"door_generator_assignment":[0,1],"goal":1,"start":2,"action_noise":0.15,"location_history":"[2,3,0,1]","action_history":"[0,0,0]","door_history":"[0,0,0]","location_rts":"[1481,152,411]","trial_type":"two-door-navigation","trial_index":28,"time_elapsed":501980,"internal_node_id":"0.0-2.0-26.0"},{"group":"dicyclic group of order 12","room_assignment":["brown","cyan","purple","yellow","red","orange","blue","green","olive","ivory","pink","grey"],"door_color_assignment":["white","black"],"door_generator_assignment":[0,1],"goal":8,"start":1,"action_noise":0.15,"location_history":"[1,2,3,7,8]","action_history":"[0,1,1,0]","door_history":"[0,1,1,0]","location_rts":"[2615,347,675,464]","trial_type":"two-door-navigation","trial_index":29,"time_elapsed":513679,"internal_node_id":"0.0-2.0-27.0"},{"group":"dicyclic group of order 12","room_assignment":["brown","cyan","purple","yellow","red","orange","blue","green","olive","ivory","pink","grey"],"door_color_assignment":["white","black"],"door_generator_assignment":[0,1],"goal":10,"start":8,"action_noise":0.15,"location_history":"[8,0,1,2,3,0,4,9,6,11,4,9,1,5,10]","action_history":"[1,0,0,0,0,0,0,0,0,0,1,1,1,0]","door_history":"[1,0,0,0,0,0,0,0,0,0,1,1,1,0]","location_rts":"[1101,729,3340,2468,463,1968,363,566,330,365,151,210,300,435]","trial_type":"two-door-navigation","trial_index":30,"time_elapsed":544286,"internal_node_id":"0.0-2.0-28.0"},{"group":"dicyclic group of order 12","room_assignment":["brown","cyan","purple","yellow","red","orange","blue","green","olive","ivory","pink","grey"],"door_color_assignment":["white","black"],"door_generator_assignment":[0,1],"goal":7,"start":10,"action_noise":0.15,"location_history":"[10,2,6,11,3,7]","action_history":"[1,1,1,1,1]","door_history":"[1,1,1,1,1]","location_rts":"[1917,336,566,356,357]","trial_type":"two-door-navigation","trial_index":31,"time_elapsed":556431,"internal_node_id":"0.0-2.0-29.0"},{"group":"dicyclic group of order 12","room_assignment":["brown","cyan","purple","yellow","red","orange","blue","green","olive","ivory","pink","grey"],"door_color_assignment":["white","black"],"door_generator_assignment":[0,1],"goal":6,"start":7,"action_noise":0.15,"location_history":"[7,11,3,0,1,5,10,2,6]","action_history":"[1,1,0,1,0,0,1,1]","door_history":"[1,1,0,1,0,0,1,1]","location_rts":"[2460,346,372,170,190,418,115,355]","trial_type":"two-door-navigation","trial_index":32,"time_elapsed":572523,"internal_node_id":"0.0-2.0-30.0"},{"group":"dicyclic group of order 12","room_assignment":["brown","cyan","purple","yellow","red","orange","blue","green","olive","ivory","pink","grey"],"door_color_assignment":["white","black"],"door_generator_assignment":[0,1],"goal":0,"start":6,"action_noise":0.15,"location_history":"[6,10,7,8,5,9,6,10,2,6,11,3,0]","action_history":"[1,1,0,0,0,0,1,1,1,0,1,0]","door_history":"[1,1,0,0,0,0,1,1,1,0,1,0]","location_rts":"[8010,413,160,24,99,165,159,78,27,133,87,340]","trial_type":"two-door-navigation","trial_index":33,"time_elapsed":598052,"internal_node_id":"0.0-2.0-31.0"},{"group":"dicyclic group of order 12","room_assignment":["brown","cyan","purple","yellow","red","orange","blue","green","olive","ivory","pink","grey"],"door_color_assignment":["white","black"],"door_generator_assignment":[0,1],"goal":11,"start":0,"action_noise":0.15,"location_history":"[0,1,2,3,7,11]","action_history":"[0,0,0,0,1]","door_history":"[0,0,0,0,1]","location_rts":"[1893,315,1322,442,115]","trial_type":"two-door-navigation","trial_index":34,"time_elapsed":610755,"internal_node_id":"0.0-2.0-32.0"},{"group":"dicyclic group of order 12","room_assignment":["brown","cyan","purple","yellow","red","orange","blue","green","olive","ivory","pink","grey"],"door_color_assignment":["white","black"],"door_generator_assignment":[0,1],"goal":9,"start":11,"action_noise":0.15,"location_history":"[11,3,7,8,0,4,8,0,4,8,5,9]","action_history":"[1,1,1,1,1,0,0,0,1,0,1]","door_history":"[1,1,1,1,1,0,0,0,1,0,1]","location_rts":"[8518,347,471,643,397,784,393,321,267,653,800]","trial_type":"two-door-navigation","trial_index":35,"time_elapsed":639102,"internal_node_id":"0.0-2.0-33.0"},{"group":"dicyclic group of order 12","room_assignment":["brown","cyan","purple","yellow","red","orange","blue","green","olive","ivory","pink","grey"],"door_color_assignment":["white","black"],"door_generator_assignment":[0,1],"goal":5,"start":9,"action_noise":0.15,"location_history":"[9,1,5]","action_history":"[1,1]","door_history":"[1,1]","location_rts":"[6468,427]","trial_type":"two-door-navigation","trial_index":36,"time_elapsed":651541,"internal_node_id":"0.0-2.0-34.0"},{"view_history":"[{\"page_index\":0,\"viewing_time\":11573}]","rt":11573,"trial_type":"instructions","trial_index":37,"time_elapsed":664115,"internal_node_id":"0.0-3.0"},{"view_history":"[{\"page_index\":0,\"viewing_time\":1526},{\"page_index\":1,\"viewing_time\":1410}]","rt":2937,"trial_type":"instructions","trial_index":38,"time_elapsed":668053,"internal_node_id":"0.0-4.0"},{"group":"dihedral group of order 12","fractal_assignment":["../images/gry_blk.png","../images/blu_wht.png","../images/grn_red.png","../images/org_blu.png","../images/pnk_blu.png","../images/ylw_pnk.png","../images/grn_blu.png","../images/red_prp.png","../images/grn_prp.png","../images/wht_red.png","../images/cyn_red.png","../images/ylw_slt.png"],"mutagen_generator_assignment":[0,1],"goal":7,"start":11,"action_noise":0.15,"location_history":"[11,5,11,10,9,8,2,3,9,3,9,3,4,5,0,6,11,5,11,5,0,1,2,8,2,3,9,8,7]","action_history":"[1,1,0,0,0,1,1,1,0,1,1,0,0,0,1,0,0,1,1,0,0,0,1,1,0,1,0,0]","mutagen_history":"[1,1,0,0,0,1,1,1,0,1,1,0,0,0,1,0,0,1,1,0,0,0,1,1,0,1,0,0]","location_rts":"[3189,471,116,490,443,63,374,424,588,347,351,51,449,754,281,197,435,185,170,97,850,152,568,273,477,124,114,618]","trial_type":"fractal-mutation","trial_index":39,"time_elapsed":715598,"internal_node_id":"0.0-5.0-0.0"},{"group":"dihedral group of order 12","fractal_assignment":["../images/gry_blk.png","../images/blu_wht.png","../images/grn_red.png","../images/org_blu.png","../images/pnk_blu.png","../images/ylw_pnk.png","../images/grn_blu.png","../images/red_prp.png","../images/grn_prp.png","../images/wht_red.png","../images/cyn_red.png","../images/ylw_slt.png"],"mutagen_generator_assignment":[0,1],"goal":8,"start":7,"action_noise":0.15,"location_history":"[7,1,2,3,4,5,11,10,9,8]","action_history":"[1,0,0,0,0,1,0,0,0]","mutagen_history":"[1,0,0,0,0,1,0,0,0]","location_rts":"[1246,182,422,489,394,315,49,203,495]","trial_type":"fractal-mutation","trial_index":40,"time_elapsed":732858,"internal_node_id":"0.0-5.0-1.0"},{"group":"dihedral group of order 12","fractal_assignment":["../images/gry_blk.png","../images/blu_wht.png","../images/grn_red.png","../images/org_blu.png","../images/pnk_blu.png","../images/ylw_pnk.png","../images/grn_blu.png","../images/red_prp.png","../images/grn_prp.png","../images/wht_red.png","../images/cyn_red.png","../images/ylw_slt.png"],"mutagen_generator_assignment":[0,1],"goal":4,"start":8,"action_noise":0.15,"location_history":"[8,7,6,11,5,0,1,2,3,9,8,2,3,9,8,7,1,2,3,4]","action_history":"[0,0,0,0,0,0,0,0,1,0,0,0,1,0,0,1,0,0,0]","mutagen_history":"[0,0,0,0,0,0,0,0,1,0,0,0,1,0,0,1,0,0,0]","location_rts":"[2114,552,872,497,399,413,239,651,509,47,300,601,869,568,618,643,565,476,531]","trial_type":"fractal-mutation","trial_index":41,"time_elapsed":768262,"internal_node_id":"0.0-5.0-2.0"},{"group":"dihedral group of order 12","fractal_assignment":["../images/gry_blk.png","../images/blu_wht.png","../images/grn_red.png","../images/org_blu.png","../images/pnk_blu.png","../images/ylw_pnk.png","../images/grn_blu.png","../images/red_prp.png","../images/grn_prp.png","../images/wht_red.png","../images/cyn_red.png","../images/ylw_slt.png"],"mutagen_generator_assignment":[0,1],"goal":5,"start":4,"action_noise":0.15,"location_history":"[4,5]","action_history":"[0]","mutagen_history":"[0]","location_rts":"[6202]","trial_type":"fractal-mutation","trial_index":42,"time_elapsed":778994,"internal_node_id":"0.0-5.0-3.0"},{"group":"dihedral group of order 12","fractal_assignment":["../images/gry_blk.png","../images/blu_wht.png","../images/grn_red.png","../images/org_blu.png","../images/pnk_blu.png","../images/ylw_pnk.png","../images/grn_blu.png","../images/red_prp.png","../images/grn_prp.png","../images/wht_red.png","../images/cyn_red.png","../images/ylw_slt.png"],"mutagen_generator_assignment":[0,1],"goal":10,"start":5,"action_noise":0.15,"location_history":"[5,0,1,2,3,9,3,9,3,9,8,7,1,7,6,0,6,0,6,11,5,0,1,7,1,7,6,11,10]","action_history":"[1,0,0,0,0,0,1,1,1,0,0,1,0,0,0,1,1,1,0,1,0,0,0,1,0,0,0,0]","mutagen_history":"[1,0,0,0,0,0,1,1,1,0,0,1,0,0,0,1,1,1,0,1,0,0,0,1,0,0,0,0]","location_rts":"[1359,794,265,146,404,444,497,357,420,63,513,602,630,408,473,553,555,432,46,1862,110,458,350,954,399,459,472,2041]","trial_type":"fractal-mutation","trial_index":43,"time_elapsed":829697,"internal_node_id":"0.0-5.0-4.0"},{"group":"dihedral group of order 12","fractal_assignment":["../images/gry_blk.png","../images/blu_wht.png","../images/grn_red.png","../images/org_blu.png","../images/pnk_blu.png","../images/ylw_pnk.png","../images/grn_blu.png","../images/red_prp.png","../images/grn_prp.png","../images/wht_red.png","../images/cyn_red.png","../images/ylw_slt.png"],"mutagen_generator_assignment":[0,1],"goal":1,"start":10,"action_noise":0.15,"location_history":"[10,4,5,11,5,0,1]","action_history":"[0,0,1,1,0,0]","mutagen_history":"[0,0,1,1,0,0]","location_rts":"[1441,528,349,528,898,711]","trial_type":"fractal-mutation","trial_index":44,"time_elapsed":844225,"internal_node_id":"0.0-5.0-5.0"},{"group":"dihedral group of order 12","fractal_assignment":["../images/gry_blk.png","../images/blu_wht.png","../images/grn_red.png","../images/org_blu.png","../images/pnk_blu.png","../images/ylw_pnk.png","../images/grn_blu.png","../images/red_prp.png","../images/grn_prp.png","../images/wht_red.png","../images/cyn_red.png","../images/ylw_slt.png"],"mutagen_generator_assignment":[0,1],"goal":6,"start":1,"action_noise":0.15,"location_history":"[1,7,6]","action_history":"[1,0]","mutagen_history":"[1,0]","location_rts":"[29221,232]","trial_type":"fractal-mutation","trial_index":45,"time_elapsed":879445,"internal_node_id":"0.0-5.0-6.0"},{"group":"dihedral group of order 12","fractal_assignment":["../images/gry_blk.png","../images/blu_wht.png","../images/grn_red.png","../images/org_blu.png","../images/pnk_blu.png","../images/ylw_pnk.png","../images/grn_blu.png","../images/red_prp.png","../images/grn_prp.png","../images/wht_red.png","../images/cyn_red.png","../images/ylw_slt.png"],"mutagen_generator_assignment":[0,1],"goal":9,"start":6,"action_noise":0.15,"location_history":"[6,11,5,11,10,4,5,0,1,2,8,7,1,2,3,9]","action_history":"[0,0,0,0,1,0,1,0,0,1,0,1,0,0,1]","mutagen_history":"[0,0,0,0,1,0,1,0,0,1,0,1,0,0,1]","location_rts":"[1293,274,727,390,138,712,342,82,287,418,53,743,483,454,274]","trial_type":"fractal-mutation","trial_index":46,"time_elapsed":906071,"internal_node_id":"0.0-5.0-7.0"},{"group":"dihedral group of order 12","fractal_assignment":["../images/gry_blk.png","../images/blu_wht.png","../images/grn_red.png","../images/org_blu.png","../images/pnk_blu.png","../images/ylw_pnk.png","../images/grn_blu.png","../images/red_prp.png","../images/grn_prp.png","../images/wht_red.png","../images/cyn_red.png","../images/ylw_slt.png"],"mutagen_generator_assignment":[0,1],"goal":2,"start":9,"action_noise":0.15,"location_history":"[9,3,4,10,4,10,9,8,7,1,7,6,11,5,0,1,7,1,7,6,0,1,7,6,0,1,2]","action_history":"[1,0,0,1,1,0,0,0,1,1,0,0,1,0,0,0,1,1,0,1,0,0,0,1,0,0]","mutagen_history":"[1,0,0,1,1,0,0,0,1,1,0,0,1,0,0,0,1,1,0,1,0,0,0,1,0,0]","location_rts":"[1359,474,517,444,482,162,557,992,499,546,474,587,709,82,509,486,163,444,263,710,96,456,227,152,154,392]","trial_type":"fractal-mutation","trial_index":47,"time_elapsed":950490,"internal_node_id":"0.0-5.0-8.0"},{"group":"dihedral group of order 12","fractal_assignment":["../images/gry_blk.png","../images/blu_wht.png","../images/grn_red.png","../images/org_blu.png","../images/pnk_blu.png","../images/ylw_pnk.png","../images/grn_blu.png","../images/red_prp.png","../images/grn_prp.png","../images/wht_red.png","../images/cyn_red.png","../images/ylw_slt.png"],"mutagen_generator_assignment":[0,1],"goal":0,"start":2,"action_noise":0.15,"location_history":"[2,8,7,1,7,1,7,6,0]","action_history":"[1,0,1,0,1,1,0,0]","mutagen_history":"[1,0,1,0,1,1,0,0]","location_rts":"[906,72,433,567,403,191,309,195]","trial_type":"fractal-mutation","trial_index":48,"time_elapsed":966121,"internal_node_id":"0.0-5.0-9.0"},{"group":"dihedral group of order 12","fractal_assignment":["../images/gry_blk.png","../images/blu_wht.png","../images/grn_red.png","../images/org_blu.png","../images/pnk_blu.png","../images/ylw_pnk.png","../images/grn_blu.png","../images/red_prp.png","../images/grn_prp.png","../images/wht_red.png","../images/cyn_red.png","../images/ylw_slt.png"],"mutagen_generator_assignment":[0,1],"goal":3,"start":0,"action_noise":0.15,"location_history":"[0,6,11,10,9,3]","action_history":"[1,0,0,0,1]","mutagen_history":"[1,0,0,0,1]","location_rts":"[1866,381,352,503,448]","trial_type":"fractal-mutation","trial_index":49,"time_elapsed":978768,"internal_node_id":"0.0-5.0-10.0"},{"group":"dihedral group of order 12","fractal_assignment":["../images/gry_blk.png","../images/blu_wht.png","../images/grn_red.png","../images/org_blu.png","../images/pnk_blu.png","../images/ylw_pnk.png","../images/grn_blu.png","../images/red_prp.png","../images/grn_prp.png","../images/wht_red.png","../images/cyn_red.png","../images/ylw_slt.png"],"mutagen_generator_assignment":[0,1],"goal":10,"start":3,"action_noise":0.15,"location_history":"[3,9,8,7,6,11,5,0,1,2,8,2,3,9,8,7,1,7,6,11,5,0,1,2,8,7,6,0,1,2,8,2,3,4,5,11,5,0,1,7,6,11,10]","action_history":"[1,0,0,0,0,1,0,0,0,1,1,0,1,0,0,1,1,0,0,1,0,0,0,1,0,0,1,0,0,1,1,0,0,0,1,1,0,0,0,0,1,0]","mutagen_history":"[1,0,0,0,0,1,0,0,0,1,1,0,1,0,0,1,1,0,0,1,0,0,0,1,0,0,1,0,0,1,1,0,0,0,1,1,0,0,0,0,1,0]","location_rts":"[1154,257,467,408,461,373,56,120,20406,115,375,110,651,447,349,291,424,180,512,249,1498,160,460,898,253,644,635,397,324,423,907,105,423,470,587,467,46,1173,675,10671,518,167]","trial_type":"fractal-mutation","trial_index":50,"time_elapsed":1078671,"internal_node_id":"0.0-5.0-11.0"},{"group":"dihedral group of order 12","fractal_assignment":["../images/gry_blk.png","../images/blu_wht.png","../images/grn_red.png","../images/org_blu.png","../images/pnk_blu.png","../images/ylw_pnk.png","../images/grn_blu.png","../images/red_prp.png","../images/grn_prp.png","../images/wht_red.png","../images/cyn_red.png","../images/ylw_slt.png"],"mutagen_generator_assignment":[0,1],"goal":8,"start":10,"action_noise":0.15,"location_history":"[10,4,5,0,6,0,6,0,6,0,6,0,1,2,3,4,5,0,1,2,8]","action_history":"[1,0,0,0,0,0,0,1,1,0,0,0,0,1,0,0,0,0,0,1]","mutagen_history":"[1,0,0,0,0,0,0,1,1,0,0,0,0,1,0,0,0,0,0,1]","location_rts":"[968,85,176,322,696,432,391,432,1776,357,330,482,441,966,350,376,329,359,231,213]","trial_type":"fractal-mutation","trial_index":51,"time_elapsed":1114039,"internal_node_id":"0.0-5.0-12.0"},{"group":"dihedral group of order 12","fractal_assignment":["../images/gry_blk.png","../images/blu_wht.png","../images/grn_red.png","../images/org_blu.png","../images/pnk_blu.png","../images/ylw_pnk.png","../images/grn_blu.png","../images/red_prp.png","../images/grn_prp.png","../images/wht_red.png","../images/cyn_red.png","../images/ylw_slt.png"],"mutagen_generator_assignment":[0,1],"goal":4,"start":8,"action_noise":0.15,"location_history":"[8,2,3,4]","action_history":"[0,0,0]","mutagen_history":"[0,0,0]","location_rts":"[1632,425,504]","trial_type":"fractal-mutation","trial_index":52,"time_elapsed":1123178,"internal_node_id":"0.0-5.0-13.0"},{"group":"dihedral group of order 12","fractal_assignment":["../images/gry_blk.png","../images/blu_wht.png","../images/grn_red.png","../images/org_blu.png","../images/pnk_blu.png","../images/ylw_pnk.png","../images/grn_blu.png","../images/red_prp.png","../images/grn_prp.png","../images/wht_red.png","../images/cyn_red.png","../images/ylw_slt.png"],"mutagen_generator_assignment":[0,1],"goal":0,"start":4,"action_noise":0.15,"location_history":"[4,5,0]","action_history":"[0,0]","mutagen_history":"[0,0]","location_rts":"[1164,430]","trial_type":"fractal-mutation","trial_index":53,"time_elapsed":1130345,"internal_node_id":"0.0-5.0-14.0"},{"group":"dihedral group of order 12","fractal_assignment":["../images/gry_blk.png","../images/blu_wht.png","../images/grn_red.png","../images/org_blu.png","../images/pnk_blu.png","../images/ylw_pnk.png","../images/grn_blu.png","../images/red_prp.png","../images/grn_prp.png","../images/wht_red.png","../images/cyn_red.png","../images/ylw_slt.png"],"mutagen_generator_assignment":[0,1],"goal":11,"start":0,"action_noise":0.15,"location_history":"[0,6,0,1,7,1,7,6,11]","action_history":"[1,1,0,0,1,0,0,0]","mutagen_history":"[1,1,0,0,1,0,0,0]","location_rts":"[1069,605,538,441,103,154,567,1919]","trial_type":"fractal-mutation","trial_index":54,"time_elapsed":1148186,"internal_node_id":"0.0-5.0-15.0"},{"group":"dihedral group of order 12","fractal_assignment":["../images/gry_blk.png","../images/blu_wht.png","../images/grn_red.png","../images/org_blu.png","../images/pnk_blu.png","../images/ylw_pnk.png","../images/grn_blu.png","../images/red_prp.png","../images/grn_prp.png","../images/wht_red.png","../images/cyn_red.png","../images/ylw_slt.png"],"mutagen_generator_assignment":[0,1],"goal":2,"start":11,"action_noise":0.15,"location_history":"[11,5,0,1,2]","action_history":"[1,0,0,0]","mutagen_history":"[1,0,0,0]","location_rts":"[6653,99,702,607]","trial_type":"fractal-mutation","trial_index":55,"time_elapsed":1164182,"internal_node_id":"0.0-5.0-16.0"},{"group":"dihedral group of order 12","fractal_assignment":["../images/gry_blk.png","../images/blu_wht.png","../images/grn_red.png","../images/org_blu.png","../images/pnk_blu.png","../images/ylw_pnk.png","../images/grn_blu.png","../images/red_prp.png","../images/grn_prp.png","../images/wht_red.png","../images/cyn_red.png","../images/ylw_slt.png"],"mutagen_generator_assignment":[0,1],"goal":7,"start":2,"action_noise":0.15,"location_history":"[2,8,7]","action_history":"[1,0]","mutagen_history":"[1,0]","location_rts":"[832,12]","trial_type":"fractal-mutation","trial_index":56,"time_elapsed":1170824,"internal_node_id":"0.0-5.0-17.0"},{"group":"dihedral group of order 12","fractal_assignment":["../images/gry_blk.png","../images/blu_wht.png","../images/grn_red.png","../images/org_blu.png","../images/pnk_blu.png","../images/ylw_pnk.png","../images/grn_blu.png","../images/red_prp.png","../images/grn_prp.png","../images/wht_red.png","../images/cyn_red.png","../images/ylw_slt.png"],"mutagen_generator_assignment":[0,1],"goal":5,"start":7,"action_noise":0.15,"location_history":"[7,1,2,3,4,5]","action_history":"[1,0,0,0,0]","mutagen_history":"[1,0,0,0,0]","location_rts":"[1330,20,375,535,425]","trial_type":"fractal-mutation","trial_index":57,"time_elapsed":1182525,"internal_node_id":"0.0-5.0-18.0"},{"group":"dihedral group of order 12","fractal_assignment":["../images/gry_blk.png","../images/blu_wht.png","../images/grn_red.png","../images/org_blu.png","../images/pnk_blu.png","../images/ylw_pnk.png","../images/grn_blu.png","../images/red_prp.png","../images/grn_prp.png","../images/wht_red.png","../images/cyn_red.png","../images/ylw_slt.png"],"mutagen_generator_assignment":[0,1],"goal":6,"start":5,"action_noise":0.15,"location_history":"[5,0,1,7,6]","action_history":"[1,0,0,0]","mutagen_history":"[1,0,0,0]","location_rts":"[1071,52,1562,1886]","trial_type":"fractal-mutation","trial_index":58,"time_elapsed":1195022,"internal_node_id":"0.0-5.0-19.0"},{"group":"dihedral group of order 12","fractal_assignment":["../images/gry_blk.png","../images/blu_wht.png","../images/grn_red.png","../images/org_blu.png","../images/pnk_blu.png","../images/ylw_pnk.png","../images/grn_blu.png","../images/red_prp.png","../images/grn_prp.png","../images/wht_red.png","../images/cyn_red.png","../images/ylw_slt.png"],"mutagen_generator_assignment":[0,1],"goal":3,"start":6,"action_noise":0.15,"location_history":"[6,11,10,9,3]","action_history":"[0,0,0,1]","mutagen_history":"[0,0,0,1]","location_rts":"[1035,496,551,1235]","trial_type":"fractal-mutation","trial_index":59,"time_elapsed":1206072,"internal_node_id":"0.0-5.0-20.0"},{"group":"dihedral group of order 12","fractal_assignment":["../images/gry_blk.png","../images/blu_wht.png","../images/grn_red.png","../images/org_blu.png","../images/pnk_blu.png","../images/ylw_pnk.png","../images/grn_blu.png","../images/red_prp.png","../images/grn_prp.png","../images/wht_red.png","../images/cyn_red.png","../images/ylw_slt.png"],"mutagen_generator_assignment":[0,1],"goal":1,"start":3,"action_noise":0.15,"location_history":"[3,9,8,7,6,11,10,4,5,0,1]","action_history":"[1,0,0,0,0,0,1,0,0,0]","mutagen_history":"[1,0,0,0,0,0,1,0,0,0]","location_rts":"[1106,60,250,178,375,412,514,70,360,253]","trial_type":"fractal-mutation","trial_index":60,"time_elapsed":1224216,"internal_node_id":"0.0-5.0-21.0"},{"group":"dihedral group of order 12","fractal_assignment":["../images/gry_blk.png","../images/blu_wht.png","../images/grn_red.png","../images/org_blu.png","../images/pnk_blu.png","../images/ylw_pnk.png","../images/grn_blu.png","../images/red_prp.png","../images/grn_prp.png","../images/wht_red.png","../images/cyn_red.png","../images/ylw_slt.png"],"mutagen_generator_assignment":[0,1],"goal":9,"start":1,"action_noise":0.15,"location_history":"[1,7,6,11,10,4,10,9]","action_history":"[1,0,0,0,0,0,1]","mutagen_history":"[1,0,0,0,0,0,1]","location_rts":"[1008,22,427,943,437,655,761]","trial_type":"fractal-mutation","trial_index":61,"time_elapsed":1239735,"internal_node_id":"0.0-5.0-22.0"},{"group":"dihedral group of order 12","fractal_assignment":["../images/gry_blk.png","../images/blu_wht.png","../images/grn_red.png","../images/org_blu.png","../images/pnk_blu.png","../images/ylw_pnk.png","../images/grn_blu.png","../images/red_prp.png","../images/grn_prp.png","../images/wht_red.png","../images/cyn_red.png","../images/ylw_slt.png"],"mutagen_generator_assignment":[0,1],"goal":3,"start":9,"action_noise":0.15,"location_history":"[9,3]","action_history":"[1]","mutagen_history":"[1]","location_rts":"[1106]","trial_type":"fractal-mutation","trial_index":62,"time_elapsed":1245510,"internal_node_id":"0.0-5.0-23.0"},{"group":"dihedral group of order 12","fractal_assignment":["../images/gry_blk.png","../images/blu_wht.png","../images/grn_red.png","../images/org_blu.png","../images/pnk_blu.png","../images/ylw_pnk.png","../images/grn_blu.png","../images/red_prp.png","../images/grn_prp.png","../images/wht_red.png","../images/cyn_red.png","../images/ylw_slt.png"],"mutagen_generator_assignment":[0,1],"goal":4,"start":3,"action_noise":0.15,"location_history":"[3,4]","action_history":"[0]","mutagen_history":"[0]","location_rts":"[1968]","trial_type":"fractal-mutation","trial_index":63,"time_elapsed":1252011,"internal_node_id":"0.0-5.0-24.0"},{"group":"dihedral group of order 12","fractal_assignment":["../images/gry_blk.png","../images/blu_wht.png","../images/grn_red.png","../images/org_blu.png","../images/pnk_blu.png","../images/ylw_pnk.png","../images/grn_blu.png","../images/red_prp.png","../images/grn_prp.png","../images/wht_red.png","../images/cyn_red.png","../images/ylw_slt.png"],"mutagen_generator_assignment":[0,1],"goal":2,"start":4,"action_noise":0.15,"location_history":"[4,5,0,6,11,10,4,5,11,10,9,8,2]","action_history":"[0,0,1,0,0,1,0,1,0,0,0,1]","mutagen_history":"[0,0,1,0,0,1,0,1,0,0,0,1]","location_rts":"[1547,597,255,37,395,323,419,522,140,255,937,1079]","trial_type":"fractal-mutation","trial_index":64,"time_elapsed":1275366,"internal_node_id":"0.0-5.0-25.0"},{"group":"dihedral group of order 12","fractal_assignment":["../images/gry_blk.png","../images/blu_wht.png","../images/grn_red.png","../images/org_blu.png","../images/pnk_blu.png","../images/ylw_pnk.png","../images/grn_blu.png","../images/red_prp.png","../images/grn_prp.png","../images/wht_red.png","../images/cyn_red.png","../images/ylw_slt.png"],"mutagen_generator_assignment":[0,1],"goal":1,"start":2,"action_noise":0.15,"location_history":"[2,8,7,6,11,10,4,10,9,3,9,8,7,1]","action_history":"[1,0,0,0,0,1,0,0,1,0,0,0,0]","mutagen_history":"[1,0,0,0,0,1,0,0,1,0,0,0,0]","location_rts":"[1056,149,507,358,518,455,108,702,779,56,475,526,456]","trial_type":"fractal-mutation","trial_index":65,"time_elapsed":1299401,"internal_node_id":"0.0-5.0-26.0"},{"group":"dihedral group of order 12","fractal_assignment":["../images/gry_blk.png","../images/blu_wht.png","../images/grn_red.png","../images/org_blu.png","../images/pnk_blu.png","../images/ylw_pnk.png","../images/grn_blu.png","../images/red_prp.png","../images/grn_prp.png","../images/wht_red.png","../images/cyn_red.png","../images/ylw_slt.png"],"mutagen_generator_assignment":[0,1],"goal":8,"start":1,"action_noise":0.15,"location_history":"[1,7,6,11,10,9,3,4,10,9,8]","action_history":"[1,0,0,0,0,1,0,1,1,0]","mutagen_history":"[1,0,0,0,0,1,0,1,1,0]","location_rts":"[1430,26,446,404,187,596,378,953,490,124]","trial_type":"fractal-mutation","trial_index":66,"time_elapsed":1319124,"internal_node_id":"0.0-5.0-27.0"},{"group":"dihedral group of order 12","fractal_assignment":["../images/gry_blk.png","../images/blu_wht.png","../images/grn_red.png","../images/org_blu.png","../images/pnk_blu.png","../images/ylw_pnk.png","../images/grn_blu.png","../images/red_prp.png","../images/grn_prp.png","../images/wht_red.png","../images/cyn_red.png","../images/ylw_slt.png"],"mutagen_generator_assignment":[0,1],"goal":10,"start":8,"action_noise":0.15,"location_history":"[8,2,3,9,8,7,1,2,3,4,10]","action_history":"[1,0,1,0,0,1,0,0,0,1]","mutagen_history":"[1,0,1,0,0,1,0,0,0,1]","location_rts":"[1050,433,580,82,712,408,91,645,518,280]","trial_type":"fractal-mutation","trial_index":67,"time_elapsed":1338634,"internal_node_id":"0.0-5.0-28.0"},{"group":"dihedral group of order 12","fractal_assignment":["../images/gry_blk.png","../images/blu_wht.png","../images/grn_red.png","../images/org_blu.png","../images/pnk_blu.png","../images/ylw_pnk.png","../images/grn_blu.png","../images/red_prp.png","../images/grn_prp.png","../images/wht_red.png","../images/cyn_red.png","../images/ylw_slt.png"],"mutagen_generator_assignment":[0,1],"goal":7,"start":10,"action_noise":0.15,"location_history":"[10,4,5,0,1,7]","action_history":"[1,0,0,1,0]","mutagen_history":"[1,0,0,1,0]","location_rts":"[947,63,511,138,184]","trial_type":"fractal-mutation","trial_index":68,"time_elapsed":1349572,"internal_node_id":"0.0-5.0-29.0"},{"group":"dihedral group of order 12","fractal_assignment":["../images/gry_blk.png","../images/blu_wht.png","../images/grn_red.png","../images/org_blu.png","../images/pnk_blu.png","../images/ylw_pnk.png","../images/grn_blu.png","../images/red_prp.png","../images/grn_prp.png","../images/wht_red.png","../images/cyn_red.png","../images/ylw_slt.png"],"mutagen_generator_assignment":[0,1],"goal":6,"start":7,"action_noise":0.15,"location_history":"[7,1,2,3,9,3,4,10,9,8,2,8,7,6]","action_history":"[1,0,0,1,0,0,1,0,0,1,1,0,0]","mutagen_history":"[1,0,0,1,0,0,1,0,0,1,1,0,0]","location_rts":"[697,114,264,535,55,621,230,249,426,235,673,296,634]","trial_type":"fractal-mutation","trial_index":69,"time_elapsed":1372708,"internal_node_id":"0.0-5.0-30.0"},{"group":"dihedral group of order 12","fractal_assignment":["../images/gry_blk.png","../images/blu_wht.png","../images/grn_red.png","../images/org_blu.png","../images/pnk_blu.png","../images/ylw_pnk.png","../images/grn_blu.png","../images/red_prp.png","../images/grn_prp.png","../images/wht_red.png","../images/cyn_red.png","../images/ylw_slt.png"],"mutagen_generator_assignment":[0,1],"goal":0,"start":6,"action_noise":0.15,"location_history":"[6,0]","action_history":"[1]","mutagen_history":"[1]","location_rts":"[989]","trial_type":"fractal-mutation","trial_index":70,"time_elapsed":1378381,"internal_node_id":"0.0-5.0-31.0"},{"group":"dihedral group of order 12","fractal_assignment":["../images/gry_blk.png","../images/blu_wht.png","../images/grn_red.png","../images/org_blu.png","../images/pnk_blu.png","../images/ylw_pnk.png","../images/grn_blu.png","../images/red_prp.png","../images/grn_prp.png","../images/wht_red.png","../images/cyn_red.png","../images/ylw_slt.png"],"mutagen_generator_assignment":[0,1],"goal":11,"start":0,"action_noise":0.15,"location_history":"[0,6,0,1,2,8,7,6,0,1,7,6,11]","action_history":"[1,0,0,0,1,0,0,1,0,1,0,0]","mutagen_history":"[1,0,0,0,1,0,0,1,0,1,0,0]","location_rts":"[741,224,505,567,298,300,427,254,213,281,401,673]","trial_type":"fractal-mutation","trial_index":71,"time_elapsed":1400029,"internal_node_id":"0.0-5.0-32.0"},{"group":"dihedral group of order 12","fractal_assignment":["../images/gry_blk.png","../images/blu_wht.png","../images/grn_red.png","../images/org_blu.png","../images/pnk_blu.png","../images/ylw_pnk.png","../images/grn_blu.png","../images/red_prp.png","../images/grn_prp.png","../images/wht_red.png","../images/cyn_red.png","../images/ylw_slt.png"],"mutagen_generator_assignment":[0,1],"goal":9,"start":11,"action_noise":0.15,"location_history":"[11,5,11,10,4,5,0,6,11,10,9]","action_history":"[1,1,0,1,0,0,1,0,0,0]","mutagen_history":"[1,1,0,1,0,0,1,0,0,0]","location_rts":"[821,249,175,738,449,480,367,188,534,185]","trial_type":"fractal-mutation","trial_index":72,"time_elapsed":1418905,"internal_node_id":"0.0-5.0-33.0"},{"group":"dihedral group of order 12","fractal_assignment":["../images/gry_blk.png","../images/blu_wht.png","../images/grn_red.png","../images/org_blu.png","../images/pnk_blu.png","../images/ylw_pnk.png","../images/grn_blu.png","../images/red_prp.png","../images/grn_prp.png","../images/wht_red.png","../images/cyn_red.png","../images/ylw_slt.png"],"mutagen_generator_assignment":[0,1],"goal":5,"start":9,"action_noise":0.15,"location_history":"[9,8,7,6,0,1,2,8,7,1,2,8,2,8,7,6,11,10,9,3,9,3,4,10,4,5]","action_history":"[1,0,0,1,0,0,1,0,0,0,1,1,1,1,0,0,0,0,0,0,1,0,1,1,0]","mutagen_history":"[1,0,0,1,0,0,1,0,0,0,1,1,1,1,0,0,0,0,0,0,1,0,1,1,0]","location_rts":"[1196,155,434,214,94,217,522,102,535,16050,202,69,18293,262,93,47,114,352,390,454,557,495,190,524,99]","trial_type":"fractal-mutation","trial_index":73,"time_elapsed":1492116,"internal_node_id":"0.0-5.0-34.0"},{"view_history":"[{\"page_index\":0,\"viewing_time\":8321}]","rt":8321,"trial_type":"instructions","trial_index":74,"time_elapsed":1501438,"internal_node_id":"0.0-6.0"},{"rt":5924,"responses":"{\"Q0\":\"No\"}","trial_type":"survey-text","trial_index":75,"time_elapsed":1508366,"internal_node_id":"0.0-7.0"}]