[{"view_history":"[{\"page_index\":0,\"viewing_time\":14335},{\"page_index\":1,\"viewing_time\":7604}]","rt":21941,"trial_type":"instructions","trial_index":0,"time_elapsed":21942,"internal_node_id":"0.0-0.0"},{"view_history":"[{\"page_index\":0,\"viewing_time\":4533},{\"page_index\":1,\"viewing_time\":91209}]","rt":95743,"trial_type":"instructions","trial_index":1,"time_elapsed":118688,"internal_node_id":"0.0-1.0"},{"group":"dicyclic group of order 12","room_assignment":["brown","purple","olive","red","orange","pink","ivory","green","cyan","yellow","grey","blue"],"door_color_assignment":["white","black"],"door_generator_assignment":[0,1],"goal":7,"start":11,"action_noise":0.15,"location_history":"[11,3,7]","action_history":"[0,1]","door_history":"[0,1]","location_rts":"[1940,604]","trial_type":"two-door-navigation","trial_index":2,"time_elapsed":126915,"internal_node_id":"0.0-2.0-0.0"},{"group":"dicyclic group of order 12","room_assignment":["brown","purple","olive","red","orange","pink","ivory","green","cyan","yellow","grey","blue"],"door_color_assignment":["white","black"],"door_generator_assignment":[0,1],"goal":8,"start":7,"action_noise":0.15,"location_history":"[7,8]","action_history":"[1]","door_history":"[1]","location_rts":"[380]","trial_type":"two-door-navigation","trial_index":3,"time_elapsed":131821,"internal_node_id":"0.0-2.0-1.0"},{"group":"dicyclic group of order 12","room_assignment":["brown","purple","olive","red","orange","pink","ivory","green","cyan","yellow","grey","blue"],"door_color_assignment":["white","black"],"door_generator_assignment":[0,1],"goal":4,"start":8,"action_noise":0.15,"location_history":"[8,5,10,2,6,10,7,8,5,10,2,6,10,2,6,10,2,6,10,7,11,3,0,4]","action_history":"[0,0,1,1,0,0,1,0,0,1,1,1,1,1,1,1,1,1,0,1,0,0,1]","door_history":"[0,0,1,1,0,0,1,0,0,1,1,1,1,1,1,1,1,1,0,1,0,0,1]","location_rts":"[361,23038,429,435,374,480,603,679,451,560,490,470,446,401,582,642,590,572,326,744,586,1017,2206]","trial_type":"two-door-navigation","trial_index":4,"time_elapsed":196058,"internal_node_id":"0.0-2.0-2.0"},{"group":"dicyclic group of order 12","room_assignment":["brown","purple","olive","red","orange","pink","ivory","green","cyan","yellow","grey","blue"],"door_color_assignment":["white","black"],"door_generator_assignment":[0,1],"goal":5,"start":4,"action_noise":0.15,"location_history":"[4,9,6,11,4,8,5]","action_history":"[0,1,0,0,1,0]","door_history":"[0,1,0,0,1,0]","location_rts":"[639,982,1040,393,312,622]","trial_type":"two-door-navigation","trial_index":5,"time_elapsed":209788,"internal_node_id":"0.0-2.0-3.0"},{"group":"dicyclic group of order 12","room_assignment":["brown","purple","olive","red","orange","pink","ivory","green","cyan","yellow","grey","blue"],"door_color_assignment":["white","black"],"door_generator_assignment":[0,1],"goal":10,"start":5,"action_noise":0.15,"location_history":"[5,9,1,2,6,11,3,0,1,5,10]","action_history":"[0,1,0,1,0,1,1,0,1,0]","door_history":"[0,1,0,1,0,1,1,0,1,0]","location_rts":"[430,252,343,216,309,263,7428,492,4895,416]","trial_type":"two-door-navigation","trial_index":6,"time_elapsed":238807,"internal_node_id":"0.0-2.0-4.0"},{"group":"dicyclic group of order 12","room_assignment":["brown","purple","olive","red","orange","pink","ivory","green","cyan","yellow","grey","blue"],"door_color_assignment":["white","black"],"door_generator_assignment":[0,1],"goal":1,"start":10,"action_noise":0.15,"location_history":"[10,7,11,4,8,0,4,9,6,11,3,0,1]","action_history":"[0,1,0,1,1,0,0,0,1,1,0,1]","door_history":"[0,1,0,1,1,0,0,0,1,1,0,1]","location_rts":"[540,717,524,454,461,373,377,591,262,1052,406,385]","trial_type":"two-door-navigation","trial_index":7,"time_elapsed":260798,"internal_node_id":"0.0-2.0-5.0"},{"group":"dicyclic group of order 12","room_assignment":["brown","purple","olive","red","orange","pink","ivory","green","cyan","yellow","grey","blue"],"door_color_assignment":["white","black"],"door_generator_assignment":[0,1],"goal":6,"start":1,"action_noise":0.15,"location_history":"[1,2,6]","action_history":"[0,1]","door_history":"[0,1]","location_rts":"[397,125]","trial_type":"two-door-navigation","trial_index":8,"time_elapsed":267015,"internal_node_id":"0.0-2.0-6.0"},{"group":"dicyclic group of order 12","room_assignment":["brown","purple","olive","red","orange","pink","ivory","green","cyan","yellow","grey","blue"],"door_color_assignment":["white","black"],"door_generator_assignment":[0,1],"goal":9,"start":6,"action_noise":0.15,"location_history":"[6,10,7,8,0,1,2,6,11,4,8,5,10,7,8,5,10,2,3,7,11,4,9]","action_history":"[1,0,0,1,0,0,1,0,0,1,0,0,0,0,0,0,1,0,0,1,0,0]","door_history":"[1,0,0,1,0,0,1,0,0,1,0,0,0,0,0,0,1,0,0,1,0,0]","location_rts":"[441,296,156,291,322,73,304,281,479,654,350,433,480,512,557,1622,1020,529,521,486,502,783]","trial_type":"two-door-navigation","trial_index":9,"time_elapsed":304826,"internal_node_id":"0.0-2.0-7.0"},{"group":"dicyclic group of order 12","room_assignment":["brown","purple","olive","red","orange","pink","ivory","green","cyan","yellow","grey","blue"],"door_color_assignment":["white","black"],"door_generator_assignment":[0,1],"goal":2,"start":9,"action_noise":0.15,"location_history":"[9,6,10,2]","action_history":"[0,1,1]","door_history":"[0,1,1]","location_rts":"[585,238,367]","trial_type":"two-door-navigation","trial_index":10,"time_elapsed":312720,"internal_node_id":"0.0-2.0-8.0"},{"group":"dicyclic group of order 12","room_assignment":["brown","purple","olive","red","orange","pink","ivory","green","cyan","yellow","grey","blue"],"door_color_assignment":["white","black"],"door_generator_assignment":[0,1],"goal":0,"start":2,"action_noise":0.15,"location_history":"[2,3,7,8,5,9,1,2,6,10,2,3,0]","action_history":"[0,1,0,0,1,1,0,0,1,1,0,0]","door_history":"[0,1,0,0,1,1,0,0,1,1,0,0]","location_rts":"[398,347,338,418,279,932,652,488,370,428,399,471]","trial_type":"two-door-navigation","trial_index":11,"time_elapsed":334421,"internal_node_id":"0.0-2.0-9.0"},{"group":"dicyclic group of order 12","room_assignment":["brown","purple","olive","red","orange","pink","ivory","green","cyan","yellow","grey","blue"],"door_color_assignment":["white","black"],"door_generator_assignment":[0,1],"goal":3,"start":0,"action_noise":0.15,"location_history":"[0,1,2,3]","action_history":"[1,0,0]","door_history":"[1,0,0]","location_rts":"[684,187,288]","trial_type":"two-door-navigation","trial_index":12,"time_elapsed":342138,"internal_node_id":"0.0-2.0-10.0"},{"group":"dicyclic group of order 12","room_assignment":["brown","purple","olive","red","orange","pink","ivory","green","cyan","yellow","grey","blue"],"door_color_assignment":["white","black"],"door_generator_assignment":[0,1],"goal":10,"start":3,"action_noise":0.15,"location_history":"[3,7,8,5,10]","action_history":"[1,0,0,1]","door_history":"[1,0,0,1]","location_rts":"[686,408,738,240]","trial_type":"two-door-navigation","trial_index":13,"time_elapsed":352000,"internal_node_id":"0.0-2.0-11.0"},{"group":"dicyclic group of order 12","room_assignment":["brown","purple","olive","red","orange","pink","ivory","green","cyan","yellow","grey","blue"],"door_color_assignment":["white","black"],"door_generator_assignment":[0,1],"goal":8,"start":10,"action_noise":0.15,"location_history":"[10,2,3,0,4,8]","action_history":"[1,0,0,1,1]","door_history":"[1,0,0,1,1]","location_rts":"[492,252,63,246,350]","trial_type":"two-door-navigation","trial_index":14,"time_elapsed":362300,"internal_node_id":"0.0-2.0-12.0"},{"group":"dicyclic group of order 12","room_assignment":["brown","purple","olive","red","orange","pink","ivory","green","cyan","yellow","grey","blue"],"door_color_assignment":["white","black"],"door_generator_assignment":[0,1],"goal":4,"start":8,"action_noise":0.15,"location_history":"[8,5,9,1,2,3,7,11,4]","action_history":"[0,1,1,0,0,1,1,0]","door_history":"[0,1,1,0,0,1,1,0]","location_rts":"[367,302,307,144,272,192,392,423]","trial_type":"two-door-navigation","trial_index":15,"time_elapsed":376659,"internal_node_id":"0.0-2.0-13.0"},{"group":"dicyclic group of order 12","room_assignment":["brown","purple","olive","red","orange","pink","ivory","green","cyan","yellow","grey","blue"],"door_color_assignment":["white","black"],"door_generator_assignment":[0,1],"goal":0,"start":4,"action_noise":0.15,"location_history":"[4,9,6,11,3,0]","action_history":"[0,1,0,1,0]","door_history":"[0,1,0,1,0]","location_rts":"[554,202,361,285,285]","trial_type":"two-door-navigation","trial_index":16,"time_elapsed":387141,"internal_node_id":"0.0-2.0-14.0"},{"group":"dicyclic group of order 12","room_assignment":["brown","purple","olive","red","orange","pink","ivory","green","cyan","yellow","grey","blue"],"door_color_assignment":["white","black"],"door_generator_assignment":[0,1],"goal":11,"start":0,"action_noise":0.15,"location_history":"[0,4,8,0,4,9,1,2,6,11]","action_history":"[0,1,0,1,0,1,0,1,0]","door_history":"[0,1,0,1,0,1,0,1,0]","location_rts":"[423,49,281,307,276,320,333,540,364]","trial_type":"two-door-navigation","trial_index":17,"time_elapsed":403066,"internal_node_id":"0.0-2.0-15.0"},{"group":"dicyclic group of order 12","room_assignment":["brown","purple","olive","red","orange","pink","ivory","green","cyan","yellow","grey","blue"],"door_color_assignment":["white","black"],"door_generator_assignment":[0,1],"goal":2,"start":11,"action_noise":0.15,"location_history":"[11,4,8,5,9,6,11,4,8,0,1,2]","action_history":"[0,1,0,1,0,1,0,1,0,1,0]","door_history":"[0,1,0,1,0,1,0,1,0,1,0]","location_rts":"[577,845,911,1000,429,317,287,336,291,248,245]","trial_type":"two-door-navigation","trial_index":18,"time_elapsed":423673,"internal_node_id":"0.0-2.0-16.0"},{"group":"dicyclic group of order 12","room_assignment":["brown","purple","olive","red","orange","pink","ivory","green","cyan","yellow","grey","blue"],"door_color_assignment":["white","black"],"door_generator_assignment":[0,1],"goal":7,"start":2,"action_noise":0.15,"location_history":"[2,3,7]","action_history":"[0,1]","door_history":"[0,1]","location_rts":"[451,415]","trial_type":"two-door-navigation","trial_index":19,"time_elapsed":430070,"internal_node_id":"0.0-2.0-17.0"},{"group":"dicyclic group of order 12","room_assignment":["brown","purple","olive","red","orange","pink","ivory","green","cyan","yellow","grey","blue"],"door_color_assignment":["white","black"],"door_generator_assignment":[0,1],"goal":5,"start":7,"action_noise":0.15,"location_history":"[7,8,0,4,8,5]","action_history":"[0,1,0,1,0]","door_history":"[0,1,0,1,0]","location_rts":"[361,433,289,278,292]","trial_type":"two-door-navigation","trial_index":20,"time_elapsed":440301,"internal_node_id":"0.0-2.0-18.0"},{"group":"dicyclic group of order 12","room_assignment":["brown","purple","olive","red","orange","pink","ivory","green","cyan","yellow","grey","blue"],"door_color_assignment":["white","black"],"door_generator_assignment":[0,1],"goal":6,"start":5,"action_noise":0.15,"location_history":"[5,9,1,5,10,2,3,7,8,0,1,5,10,7,11,4,9,1,2,3,7,11,4,9,1,5,9,6]","action_history":"[1,0,1,0,1,0,1,0,1,0,1,0,1,0,1,0,1,0,0,1,1,0,0,1,1,1,0]","door_history":"[1,0,1,0,1,0,1,0,1,0,1,0,1,0,1,0,1,0,0,1,1,0,0,1,1,1,0]","location_rts":"[431,249,142,179,209,54,250,194,190,384,320,104,198,148,833,455,331,308,294,245,471,298,314,93,257,476,595]","trial_type":"two-door-navigation","trial_index":21,"time_elapsed":480012,"internal_node_id":"0.0-2.0-19.0"},{"group":"dicyclic group of order 12","room_assignment":["brown","purple","olive","red","orange","pink","ivory","green","cyan","yellow","grey","blue"],"door_color_assignment":["white","black"],"door_generator_assignment":[0,1],"goal":3,"start":6,"action_noise":0.15,"location_history":"[6,11,3]","action_history":"[0,1]","door_history":"[0,1]","location_rts":"[674,106]","trial_type":"two-door-navigation","trial_index":22,"time_elapsed":486324,"internal_node_id":"0.0-2.0-20.0"},{"group":"dicyclic group of order 12","room_assignment":["brown","purple","olive","red","orange","pink","ivory","green","cyan","yellow","grey","blue"],"door_color_assignment":["white","black"],"door_generator_assignment":[0,1],"goal":1,"start":3,"action_noise":0.15,"location_history":"[3,7,8,5,9,6,10,7,11,3,0,1]","action_history":"[1,0,0,1,0,1,0,1,1,0,0]","door_history":"[1,0,0,1,0,1,0,1,1,0,0]","location_rts":"[821,205,211,126,258,208,542,329,301,401,250]","trial_type":"two-door-navigation","trial_index":23,"time_elapsed":505015,"internal_node_id":"0.0-2.0-21.0"},{"group":"dicyclic group of order 12","room_assignment":["brown","purple","olive","red","orange","pink","ivory","green","cyan","yellow","grey","blue"],"door_color_assignment":["white","black"],"door_generator_assignment":[0,1],"goal":9,"start":1,"action_noise":0.15,"location_history":"[1,5,10,7,11,3,7,8,0,4,9]","action_history":"[1,0,0,1,1,0,0,1,1,0]","door_history":"[1,0,0,1,1,0,0,1,1,0]","location_rts":"[545,266,138,255,292,249,275,338,430,207]","trial_type":"two-door-navigation","trial_index":24,"time_elapsed":521868,"internal_node_id":"0.0-2.0-22.0"},{"group":"dicyclic group of order 12","room_assignment":["brown","purple","olive","red","orange","pink","ivory","green","cyan","yellow","grey","blue"],"door_color_assignment":["white","black"],"door_generator_assignment":[0,1],"goal":3,"start":9,"action_noise":0.15,"location_history":"[9,6,10,7,11,4,9,1,2,3]","action_history":"[0,1,0,1,0,1,1,0,0]","door_history":"[0,1,0,1,0,1,1,0,0]","location_rts":"[420,131,298,301,309,1261,2279,118,227]","trial_type":"two-door-navigation","trial_index":25,"time_elapsed":540072,"internal_node_id":"0.0-2.0-23.0"},{"group":"dicyclic group of order 12","room_assignment":["brown","purple","olive","red","orange","pink","ivory","green","cyan","yellow","grey","blue"],"door_color_assignment":["white","black"],"door_generator_assignment":[0,1],"goal":4,"start":3,"action_noise":0.15,"location_history":"[3,7,8,0,1,5,9,1,2,6,11,3,0,4]","action_history":"[1,0,1,0,1,0,1,0,1,0,1,0,1]","door_history":"[1,0,1,0,1,0,1,0,1,0,1,0,1]","location_rts":"[508,289,418,280,424,47,148,151,126,336,262,283,547]","trial_type":"two-door-navigation","trial_index":26,"time_elapsed":560753,"internal_node_id":"0.0-2.0-24.0"},{"group":"dicyclic group of order 12","room_assignment":["brown","purple","olive","red","orange","pink","ivory","green","cyan","yellow","grey","blue"],"door_color_assignment":["white","black"],"door_generator_assignment":[0,1],"goal":2,"start":4,"action_noise":0.15,"location_history":"[4,9,1,5,9,6,10,7,11,3,0,1,5,10,2]","action_history":"[0,1,0,1,0,1,0,0,1,0,1,1,0,1]","door_history":"[0,1,0,1,0,1,0,0,1,0,1,1,0,1]","location_rts":"[759,346,240,159,163,182,216,610,203,371,597,393,745,722]","trial_type":"two-door-navigation","trial_index":27,"time_elapsed":584713,"internal_node_id":"0.0-2.0-25.0"},{"group":"dicyclic group of order 12","room_assignment":["brown","purple","olive","red","orange","pink","ivory","green","cyan","yellow","grey","blue"],"door_color_assignment":["white","black"],"door_generator_assignment":[0,1],"goal":1,"start":2,"action_noise":0.15,"location_history":"[2,6,11,3,0,1]","action_history":"[0,1,1,0,0]","door_history":"[0,1,1,0,0]","location_rts":"[1008,923,9123,511,913]","trial_type":"two-door-navigation","trial_index":28,"time_elapsed":605934,"internal_node_id":"0.0-2.0-26.0"},{"group":"dicyclic group of order 12","room_assignment":["brown","purple","olive","red","orange","pink","ivory","green","cyan","yellow","grey","blue"],"door_color_assignment":["white","black"],"door_generator_assignment":[0,1],"goal":8,"start":1,"action_noise":0.15,"location_history":"[1,2,3,7,8]","action_history":"[1,0,1,0]","door_history":"[1,0,1,0]","location_rts":"[1296,416,468,289]","trial_type":"two-door-navigation","trial_index":29,"time_elapsed":616165,"internal_node_id":"0.0-2.0-27.0"},{"group":"dicyclic group of order 12","room_assignment":["brown","purple","olive","red","orange","pink","ivory","green","cyan","yellow","grey","blue"],"door_color_assignment":["white","black"],"door_generator_assignment":[0,1],"goal":10,"start":8,"action_noise":0.15,"location_history":"[8,5,9,1,5,10]","action_history":"[0,1,0,1,0]","door_history":"[0,1,0,1,0]","location_rts":"[520,120,82,259,240]","trial_type":"two-door-navigation","trial_index":30,"time_elapsed":626140,"internal_node_id":"0.0-2.0-28.0"},{"group":"dicyclic group of order 12","room_assignment":["brown","purple","olive","red","orange","pink","ivory","green","cyan","yellow","grey","blue"],"door_color_assignment":["white","black"],"door_generator_assignment":[0,1],"goal":7,"start":10,"action_noise":0.15,"location_history":"[10,2,3,7]","action_history":"[1,0,1]","door_history":"[1,0,1]","location_rts":"[784,111,218]","trial_type":"two-door-navigation","trial_index":31,"time_elapsed":633891,"internal_node_id":"0.0-2.0-29.0"},{"group":"dicyclic group of order 12","room_assignment":["brown","purple","olive","red","orange","pink","ivory","green","cyan","yellow","grey","blue"],"door_color_assignment":["white","black"],"door_generator_assignment":[0,1],"goal":6,"start":7,"action_noise":0.15,"location_history":"[7,8,0,1,5,10,7,8,0,1,5,10,2,3,7,8,5,9,6]","action_history":"[0,1,0,1,0,1,0,1,0,1,0,1,0,1,0,1,1,0]","door_history":"[0,1,0,1,0,1,0,1,0,1,0,1,0,1,0,1,1,0]","location_rts":"[723,201,183,238,309,243,52,688,249,388,368,99,135,305,26,1009,344,343]","trial_type":"two-door-navigation","trial_index":32,"time_elapsed":661808,"internal_node_id":"0.0-2.0-30.0"},{"group":"dicyclic group of order 12","room_assignment":["brown","purple","olive","red","orange","pink","ivory","green","cyan","yellow","grey","blue"],"door_color_assignment":["white","black"],"door_generator_assignment":[0,1],"goal":0,"start":6,"action_noise":0.15,"location_history":"[6,10,2,3,0]","action_history":"[0,1,0,0]","door_history":"[0,1,0,0]","location_rts":"[3156,721,200,164]","trial_type":"two-door-navigation","trial_index":33,"time_elapsed":673892,"internal_node_id":"0.0-2.0-31.0"},{"group":"dicyclic group of order 12","room_assignment":["brown","purple","olive","red","orange","pink","ivory","green","cyan","yellow","grey","blue"],"door_color_assignment":["white","black"],"door_generator_assignment":[0,1],"goal":11,"start":0,"action_noise":0.15,"location_history":"[0,1,5,10,2,3,7,11]","action_history":"[0,1,0,1,0,1,0]","door_history":"[0,1,0,1,0,1,0]","location_rts":"[7445,119,138,561,1873,394,567]","trial_type":"two-door-navigation","trial_index":34,"time_elapsed":695867,"internal_node_id":"0.0-2.0-32.0"},{"group":"dicyclic group of order 12","room_assignment":["brown","purple","olive","red","orange","pink","ivory","green","cyan","yellow","grey","blue"],"door_color_assignment":["white","black"],"door_generator_assignment":[0,1],"goal":9,"start":11,"action_noise":0.15,"location_history":"[11,4,8,5,9]","action_history":"[0,1,0,1]","door_history":"[0,1,0,1]","location_rts":"[613,624,460,448]","trial_type":"two-door-navigation","trial_index":35,"time_elapsed":705649,"internal_node_id":"0.0-2.0-33.0"},{"group":"dicyclic group of order 12","room_assignment":["brown","purple","olive","red","orange","pink","ivory","green","cyan","yellow","grey","blue"],"door_color_assignment":["white","black"],"door_generator_assignment":[0,1],"goal":5,"start":9,"action_noise":0.15,"location_history":"[9,6,10,2,6,11,4,9,1,2,3,0,4,9,6,10,2,6,11,4,9,1,5]","action_history":"[1,0,0,1,0,1,0,1,0,0,1,1,0,0,1,1,0,0,1,0,1,1]","door_history":"[1,0,0,1,0,1,0,1,0,0,1,1,0,0,1,1,0,0,1,0,1,1]","location_rts":"[463,334,1093,162,216,1946,127,261,68,282,221,491,193,358,655,1206,1023,270,5412,294,798,227]","trial_type":"two-door-navigation","trial_index":36,"time_elapsed":748488,"internal_node_id":"0.0-2.0-34.0"},{"view_history":"[{\"page_index\":0,\"viewing_time\":1973}]","rt":1974,"trial_type":"instructions","trial_index":37,"time_elapsed":751463,"internal_node_id":"0.0-3.0"},{"view_history":"[{\"page_index\":0,\"viewing_time\":3260},{\"page_index\":1,\"viewing_time\":2844}]","rt":6104,"trial_type":"instructions","trial_index":38,"time_elapsed":758568,"internal_node_id":"0.0-4.0"},{"group":"dihedral group of order 12","fractal_assignment":["../images/wht_red.png","../images/grn_blu.png","../images/blu_wht.png","../images/grn_red.png","../images/cyn_red.png","../images/pnk_blu.png","../images/gry_blk.png","../images/ylw_pnk.png","../images/ylw_slt.png","../images/red_prp.png","../images/grn_prp.png","../images/org_blu.png"],"mutagen_generator_assignment":[1,0],"goal":7,"start":11,"action_noise":0.15,"location_history":"[11,10,9,8,2,8,7]","action_history":"[1,0,0,0,1,1]","mutagen_history":"[0,1,1,1,0,0]","location_rts":"[3805,666,636,64,4,336]","trial_type":"fractal-mutation","trial_index":39,"time_elapsed":773975,"internal_node_id":"0.0-5.0-0.0"},{"group":"dihedral group of order 12","fractal_assignment":["../images/wht_red.png","../images/grn_blu.png","../images/blu_wht.png","../images/grn_red.png","../images/cyn_red.png","../images/pnk_blu.png","../images/gry_blk.png","../images/ylw_pnk.png","../images/ylw_slt.png","../images/red_prp.png","../images/grn_prp.png","../images/org_blu.png"],"mutagen_generator_assignment":[1,0],"goal":8,"start":7,"action_noise":0.15,"location_history":"[7,1,7,6,11,5,11,5,0,6,11,10,4,10,9,3,4,5,11,5,0,1,7,6,11,5,0,1,7,1,2,8]","action_history":"[1,0,0,1,1,1,1,0,0,0,0,1,1,0,0,0,0,1,1,0,0,0,0,0,0,0,0,1,0,0,1]","mutagen_history":"[0,1,1,0,0,0,0,1,1,1,1,0,0,1,1,1,1,0,0,1,1,1,1,1,1,1,1,0,1,1,0]","location_rts":"[348,426,171,184,632,444,395,272,45,286,419,638,524,333,187,430,600,873,479,1790,1814,577,486,1030,885,669,1071,743,433,482,762]","trial_type":"fractal-mutation","trial_index":40,"time_elapsed":829330,"internal_node_id":"0.0-5.0-1.0"},{"group":"dihedral group of order 12","fractal_assignment":["../images/wht_red.png","../images/grn_blu.png","../images/blu_wht.png","../images/grn_red.png","../images/cyn_red.png","../images/pnk_blu.png","../images/gry_blk.png","../images/ylw_pnk.png","../images/ylw_slt.png","../images/red_prp.png","../images/grn_prp.png","../images/org_blu.png"],"mutagen_generator_assignment":[1,0],"goal":4,"start":8,"action_noise":0.15,"location_history":"[8,7,6,0,6,11,5,0,6,0,6,11,10,4]","action_history":"[0,0,0,1,1,1,1,1,1,1,0,0,0]","mutagen_history":"[1,1,1,0,0,0,0,0,0,0,1,1,1]","location_rts":"[709,232,719,490,475,487,3808,603,1675,5946,725,518,482]","trial_type":"fractal-mutation","trial_index":41,"time_elapsed":863669,"internal_node_id":"0.0-5.0-2.0"},{"group":"dihedral group of order 12","fractal_assignment":["../images/wht_red.png","../images/grn_blu.png","../images/blu_wht.png","../images/grn_red.png","../images/cyn_red.png","../images/pnk_blu.png","../images/gry_blk.png","../images/ylw_pnk.png","../images/ylw_slt.png","../images/red_prp.png","../images/grn_prp.png","../images/org_blu.png"],"mutagen_generator_assignment":[1,0],"goal":5,"start":4,"action_noise":0.15,"location_history":"[4,5]","action_history":"[0]","mutagen_history":"[1]","location_rts":"[665]","trial_type":"fractal-mutation","trial_index":42,"time_elapsed":868891,"internal_node_id":"0.0-5.0-3.0"},{"group":"dihedral group of order 12","fractal_assignment":["../images/wht_red.png","../images/grn_blu.png","../images/blu_wht.png","../images/grn_red.png","../images/cyn_red.png","../images/pnk_blu.png","../images/gry_blk.png","../images/ylw_pnk.png","../images/ylw_slt.png","../images/red_prp.png","../images/grn_prp.png","../images/org_blu.png"],"mutagen_generator_assignment":[1,0],"goal":10,"start":5,"action_noise":0.15,"location_history":"[5,0,6,0,6,11,10]","action_history":"[0,1,1,1,1,1]","mutagen_history":"[1,0,0,0,0,0]","location_rts":"[304,506,730,1094,430,693]","trial_type":"fractal-mutation","trial_index":43,"time_elapsed":882486,"internal_node_id":"0.0-5.0-4.0"},{"group":"dihedral group of order 12","fractal_assignment":["../images/wht_red.png","../images/grn_blu.png","../images/blu_wht.png","../images/grn_red.png","../images/cyn_red.png","../images/pnk_blu.png","../images/gry_blk.png","../images/ylw_pnk.png","../images/ylw_slt.png","../images/red_prp.png","../images/grn_prp.png","../images/org_blu.png"],"mutagen_generator_assignment":[1,0],"goal":1,"start":10,"action_noise":0.15,"location_history":"[10,4,10,4,10,9,3,9,3,4,5,11,10,9,8,7,6,11,5,0,1]","action_history":"[0,1,1,1,1,1,1,1,0,0,1,0,0,0,0,0,1,0,0,0]","mutagen_history":"[1,0,0,0,0,0,0,0,1,1,0,1,1,1,1,1,0,1,1,1]","location_rts":"[761,263,140,289,1202,466,632,566,154,189,286,499,997,1426,649,576,593,215,338,894]","trial_type":"fractal-mutation","trial_index":44,"time_elapsed":918740,"internal_node_id":"0.0-5.0-5.0"},{"group":"dihedral group of order 12","fractal_assignment":["../images/wht_red.png","../images/grn_blu.png","../images/blu_wht.png","../images/grn_red.png","../images/cyn_red.png","../images/pnk_blu.png","../images/gry_blk.png","../images/ylw_pnk.png","../images/ylw_slt.png","../images/red_prp.png","../images/grn_prp.png","../images/org_blu.png"],"mutagen_generator_assignment":[1,0],"goal":6,"start":1,"action_noise":0.15,"location_history":"[1,2,8,2,3,9,3,4,5,11,5,0,1,7,6]","action_history":"[0,1,1,0,1,1,0,1,1,1,0,0,1,1]","mutagen_history":"[1,0,0,1,0,0,1,0,0,0,1,1,0,0]","location_rts":"[280,199,185,271,435,161,139,185,193,275,159,97,155,154]","trial_type":"fractal-mutation","trial_index":45,"time_elapsed":939813,"internal_node_id":"0.0-5.0-6.0"},{"group":"dihedral group of order 12","fractal_assignment":["../images/wht_red.png","../images/grn_blu.png","../images/blu_wht.png","../images/grn_red.png","../images/cyn_red.png","../images/pnk_blu.png","../images/gry_blk.png","../images/ylw_pnk.png","../images/ylw_slt.png","../images/red_prp.png","../images/grn_prp.png","../images/org_blu.png"],"mutagen_generator_assignment":[1,0],"goal":9,"start":6,"action_noise":0.15,"location_history":"[6,0,1,2,8,2,8,2,8,7,1,7,6,0,6,0,1,7,1,2,8,2,8,2,8,2,8,2,8,7,1,7,6,0,6,11,10,4,10,4,5,0,1,2,8,7,6,0,1,2,3,4,10,9]","action_history":"[1,0,1,1,1,1,1,1,0,0,0,0,1,1,1,0,1,1,1,1,1,1,1,1,1,1,1,1,0,0,0,0,1,1,0,1,1,1,1,1,1,0,0,1,0,0,0,0,0,0,0,1,0]","mutagen_history":"[0,1,0,0,0,0,0,0,1,1,1,1,0,0,0,1,0,0,0,0,0,0,0,0,0,0,0,0,1,1,1,1,0,0,1,0,0,0,0,0,0,1,1,0,1,1,1,1,1,1,1,0,1]","location_rts":"[273,283,200,176,402,419,570,462,365,191,424,763,571,520,449,531,336,440,285,198,231,217,320,162,292,290,315,150,250,345,245,683,176,164,141,199,166,178,93,274,317,124,258,150,318,949,932,1126,808,1022,1144,842,610]","trial_type":"fractal-mutation","trial_index":46,"time_elapsed":1020793,"internal_node_id":"0.0-5.0-7.0"},{"group":"dihedral group of order 12","fractal_assignment":["../images/wht_red.png","../images/grn_blu.png","../images/blu_wht.png","../images/grn_red.png","../images/cyn_red.png","../images/pnk_blu.png","../images/gry_blk.png","../images/ylw_pnk.png","../images/ylw_slt.png","../images/red_prp.png","../images/grn_prp.png","../images/org_blu.png"],"mutagen_generator_assignment":[1,0],"goal":2,"start":9,"action_noise":0.15,"location_history":"[9,8,7,1,2]","action_history":"[0,1,1,0]","mutagen_history":"[1,0,0,1]","location_rts":"[383,191,437,274]","trial_type":"fractal-mutation","trial_index":47,"time_elapsed":1029862,"internal_node_id":"0.0-5.0-8.0"},{"group":"dihedral group of order 12","fractal_assignment":["../images/wht_red.png","../images/grn_blu.png","../images/blu_wht.png","../images/grn_red.png","../images/cyn_red.png","../images/pnk_blu.png","../images/gry_blk.png","../images/ylw_pnk.png","../images/ylw_slt.png","../images/red_prp.png","../images/grn_prp.png","../images/org_blu.png"],"mutagen_generator_assignment":[1,0],"goal":0,"start":2,"action_noise":0.15,"location_history":"[2,8,7,6,0]","action_history":"[0,0,1,1]","mutagen_history":"[1,1,0,0]","location_rts":"[410,109,65,141]","trial_type":"fractal-mutation","trial_index":48,"time_elapsed":1038424,"internal_node_id":"0.0-5.0-9.0"},{"group":"dihedral group of order 12","fractal_assignment":["../images/wht_red.png","../images/grn_blu.png","../images/blu_wht.png","../images/grn_red.png","../images/cyn_red.png","../images/pnk_blu.png","../images/gry_blk.png","../images/ylw_pnk.png","../images/ylw_slt.png","../images/red_prp.png","../images/grn_prp.png","../images/org_blu.png"],"mutagen_generator_assignment":[1,0],"goal":3,"start":0,"action_noise":0.15,"location_history":"[0,1,2,8,2,8,7,6,11,10,9,3]","action_history":"[0,0,1,1,1,0,0,0,0,0,1]","mutagen_history":"[1,1,0,0,0,1,1,1,1,1,0]","location_rts":"[334,56,178,264,237,271,261,477,353,198,157]","trial_type":"fractal-mutation","trial_index":49,"time_elapsed":1056514,"internal_node_id":"0.0-5.0-10.0"},{"group":"dihedral group of order 12","fractal_assignment":["../images/wht_red.png","../images/grn_blu.png","../images/blu_wht.png","../images/grn_red.png","../images/cyn_red.png","../images/pnk_blu.png","../images/gry_blk.png","../images/ylw_pnk.png","../images/ylw_slt.png","../images/red_prp.png","../images/grn_prp.png","../images/org_blu.png"],"mutagen_generator_assignment":[1,0],"goal":10,"start":3,"action_noise":0.15,"location_history":"[3,4,10]","action_history":"[0,1]","mutagen_history":"[1,0]","location_rts":"[314,143]","trial_type":"fractal-mutation","trial_index":50,"time_elapsed":1062568,"internal_node_id":"0.0-5.0-11.0"},{"group":"dihedral group of order 12","fractal_assignment":["../images/wht_red.png","../images/grn_blu.png","../images/blu_wht.png","../images/grn_red.png","../images/cyn_red.png","../images/pnk_blu.png","../images/gry_blk.png","../images/ylw_pnk.png","../images/ylw_slt.png","../images/red_prp.png","../images/grn_prp.png","../images/org_blu.png"],"mutagen_generator_assignment":[1,0],"goal":8,"start":10,"action_noise":0.15,"location_history":"[10,9,8]","action_history":"[0,1]","mutagen_history":"[1,0]","location_rts":"[328,177]","trial_type":"fractal-mutation","trial_index":51,"time_elapsed":1068659,"internal_node_id":"0.0-5.0-12.0"},{"group":"dihedral group of order 12","fractal_assignment":["../images/wht_red.png","../images/grn_blu.png","../images/blu_wht.png","../images/grn_red.png","../images/cyn_red.png","../images/pnk_blu.png","../images/gry_blk.png","../images/ylw_pnk.png","../images/ylw_slt.png","../images/red_prp.png","../images/grn_prp.png","../images/org_blu.png"],"mutagen_generator_assignment":[1,0],"goal":4,"start":8,"action_noise":0.15,"location_history":"[8,7,6,11,10,9,8,2,3,9,3,9,3,9,3,9,3,9,8,7,6,11,10,9,8,7,6,11,10,9,8,7,1,7,1,7,6,0,6,0,6,0,6,0,1,7,6,11,10,4]","action_history":"[0,0,0,0,0,0,1,0,1,1,1,1,1,1,1,1,1,0,0,0,0,0,0,0,0,0,0,0,0,0,0,1,1,1,1,0,1,1,1,1,1,1,1,0,1,0,0,0,0]","mutagen_history":"[1,1,1,1,1,1,0,1,0,0,0,0,0,0,0,0,0,1,1,1,1,1,1,1,1,1,1,1,1,1,1,0,0,0,0,1,0,0,0,0,0,0,0,1,0,1,1,1,1]","location_rts":"[469,212,158,405,705,467,951,415,350,203,182,153,293,276,367,587,218,342,166,2413,475,1117,855,1136,2280,1965,901,410,565,689,366,273,246,400,228,391,172,111,257,501,380,354,420,538,459,598,409,397,684]","trial_type":"fractal-mutation","trial_index":52,"time_elapsed":1151221,"internal_node_id":"0.0-5.0-13.0"},{"group":"dihedral group of order 12","fractal_assignment":["../images/wht_red.png","../images/grn_blu.png","../images/blu_wht.png","../images/grn_red.png","../images/cyn_red.png","../images/pnk_blu.png","../images/gry_blk.png","../images/ylw_pnk.png","../images/ylw_slt.png","../images/red_prp.png","../images/grn_prp.png","../images/org_blu.png"],"mutagen_generator_assignment":[1,0],"goal":0,"start":4,"action_noise":0.15,"location_history":"[4,5,11,5,0]","action_history":"[0,1,1,0]","mutagen_history":"[1,0,0,1]","location_rts":"[344,264,184,245]","trial_type":"fractal-mutation","trial_index":53,"time_elapsed":1160043,"internal_node_id":"0.0-5.0-14.0"},{"group":"dihedral group of order 12","fractal_assignment":["../images/wht_red.png","../images/grn_blu.png","../images/blu_wht.png","../images/grn_red.png","../images/cyn_red.png","../images/pnk_blu.png","../images/gry_blk.png","../images/ylw_pnk.png","../images/ylw_slt.png","../images/red_prp.png","../images/grn_prp.png","../images/org_blu.png"],"mutagen_generator_assignment":[1,0],"goal":11,"start":0,"action_noise":0.15,"location_history":"[0,6,0,6,11]","action_history":"[1,1,0,0]","mutagen_history":"[0,0,1,1]","location_rts":"[330,578,482,241]","trial_type":"fractal-mutation","trial_index":54,"time_elapsed":1169501,"internal_node_id":"0.0-5.0-15.0"},{"group":"dihedral group of order 12","fractal_assignment":["../images/wht_red.png","../images/grn_blu.png","../images/blu_wht.png","../images/grn_red.png","../images/cyn_red.png","../images/pnk_blu.png","../images/gry_blk.png","../images/ylw_pnk.png","../images/ylw_slt.png","../images/red_prp.png","../images/grn_prp.png","../images/org_blu.png"],"mutagen_generator_assignment":[1,0],"goal":2,"start":11,"action_noise":0.15,"location_history":"[11,5,0,1,7,1,2]","action_history":"[1,0,0,1,1,0]","mutagen_history":"[0,1,1,0,0,1]","location_rts":"[13970,589,289,218,313,211]","trial_type":"fractal-mutation","trial_index":55,"time_elapsed":1195237,"internal_node_id":"0.0-5.0-16.0"},{"group":"dihedral group of order 12","fractal_assignment":["../images/wht_red.png","../images/grn_blu.png","../images/blu_wht.png","../images/grn_red.png","../images/cyn_red.png","../images/pnk_blu.png","../images/gry_blk.png","../images/ylw_pnk.png","../images/ylw_slt.png","../images/red_prp.png","../images/grn_prp.png","../images/org_blu.png"],"mutagen_generator_assignment":[1,0],"goal":7,"start":2,"action_noise":0.15,"location_history":"[2,3,9,3,9,8,7]","action_history":"[0,1,1,0,0,0]","mutagen_history":"[1,0,0,1,1,1]","location_rts":"[40,353,157,148,1634,705]","trial_type":"fractal-mutation","trial_index":56,"time_elapsed":1208308,"internal_node_id":"0.0-5.0-17.0"},{"group":"dihedral group of order 12","fractal_assignment":["../images/wht_red.png","../images/grn_blu.png","../images/blu_wht.png","../images/grn_red.png","../images/cyn_red.png","../images/pnk_blu.png","../images/gry_blk.png","../images/ylw_pnk.png","../images/ylw_slt.png","../images/red_prp.png","../images/grn_prp.png","../images/org_blu.png"],"mutagen_generator_assignment":[1,0],"goal":5,"start":7,"action_noise":0.15,"location_history":"[7,6,0,6,0,6,0,1,2,8,2,8,2,8,2,8,7,6,11,5]","action_history":"[0,1,1,1,1,1,0,1,1,1,1,1,1,1,1,0,0,0,0]","mutagen_history":"[1,0,0,0,0,0,1,0,0,0,0,0,0,0,0,1,1,1,1]","location_rts":"[782,608,284,319,1298,242,208,210,1337,1123,454,292,180,244,218,118,268,261,450]","trial_type":"fractal-mutation","trial_index":57,"time_elapsed":1240989,"internal_node_id":"0.0-5.0-18.0"},{"group":"dihedral group of order 12","fractal_assignment":["../images/wht_red.png","../images/grn_blu.png","../images/blu_wht.png","../images/grn_red.png","../images/cyn_red.png","../images/pnk_blu.png","../images/gry_blk.png","../images/ylw_pnk.png","../images/ylw_slt.png","../images/red_prp.png","../images/grn_prp.png","../images/org_blu.png"],"mutagen_generator_assignment":[1,0],"goal":6,"start":5,"action_noise":0.15,"location_history":"[5,0,1,2,3,9,8,7,1,2,3,9,3,4,5,11,5,11,10,4,5,11,10,9,8,2,8,2,8,2,8,7,6]","action_history":"[0,1,0,0,1,0,0,0,0,0,1,1,0,0,1,1,1,1,1,1,1,0,0,0,1,1,1,1,1,1,0,0]","mutagen_history":"[1,0,1,1,0,1,1,1,1,1,0,0,1,1,0,0,0,0,0,0,0,1,1,1,0,0,0,0,0,0,1,1]","location_rts":"[448,125,290,154,261,293,299,832,487,235,315,689,3066,902,291,137,334,283,356,204,69,89,48,241,237,108,147,100,60,426,233,132]","trial_type":"fractal-mutation","trial_index":58,"time_elapsed":1290212,"internal_node_id":"0.0-5.0-19.0"},{"group":"dihedral group of order 12","fractal_assignment":["../images/wht_red.png","../images/grn_blu.png","../images/blu_wht.png","../images/grn_red.png","../images/cyn_red.png","../images/pnk_blu.png","../images/gry_blk.png","../images/ylw_pnk.png","../images/ylw_slt.png","../images/red_prp.png","../images/grn_prp.png","../images/org_blu.png"],"mutagen_generator_assignment":[1,0],"goal":3,"start":6,"action_noise":0.15,"location_history":"[6,11,10,4,10,9,8,7,1,7,6,11,5,11,5,0,6,0,1,2,8,2,8,2,8,7,1,7,1,7,1,7,1,7,6,11,10,9,8,7,6,0,1,7,1,2,3]","action_history":"[1,0,0,0,0,0,1,1,1,0,0,1,1,0,0,1,1,0,0,1,1,1,0,1,1,1,1,1,1,1,1,1,1,0,1,0,0,0,0,0,1,1,1,1,0,0]","mutagen_history":"[0,1,1,1,1,1,0,0,0,1,1,0,0,1,1,0,0,1,1,0,0,0,1,0,0,0,0,0,0,0,0,0,0,1,0,1,1,1,1,1,0,0,0,0,1,1]","location_rts":"[395,241,548,120,60,59,130,232,153,105,136,29,92,120,97,91,66,163,150,205,88,76,92,20,92,22,37,80,141,499,2,94,432,181,301,142,182,104,164,254,190,153,512,79,101,127]","trial_type":"fractal-mutation","trial_index":59,"time_elapsed":1349664,"internal_node_id":"0.0-5.0-20.0"},{"group":"dihedral group of order 12","fractal_assignment":["../images/wht_red.png","../images/grn_blu.png","../images/blu_wht.png","../images/grn_red.png","../images/cyn_red.png","../images/pnk_blu.png","../images/gry_blk.png","../images/ylw_pnk.png","../images/ylw_slt.png","../images/red_prp.png","../images/grn_prp.png","../images/org_blu.png"],"mutagen_generator_assignment":[1,0],"goal":1,"start":3,"action_noise":0.15,"location_history":"[3,4,5,11,5,11,10,9,3,4,10,4,10,9,3,9,8,2,3,4,10,4,10,9,3,9,8,7,6,0,6,0,6,0,6,11,10,4,10,9,3,4,5,11,10,4,10,4,5,11,5,0,1]","action_history":"[0,0,1,1,1,0,0,1,1,1,1,1,0,0,0,0,1,0,0,1,1,0,0,1,1,1,0,0,1,1,1,1,1,0,0,1,1,1,0,1,0,0,1,0,1,1,1,1,1,1,0,0]","mutagen_history":"[1,1,0,0,0,1,1,0,0,0,0,0,1,1,1,1,0,1,1,0,0,1,1,0,0,0,1,1,0,0,0,0,0,1,1,0,0,0,1,0,1,1,0,1,0,0,0,0,0,0,1,1]","location_rts":"[492,114,106,127,164,46,124,459,566,142,75,240,92,193,121,151,9930,713,4968,343,195,31,4870,144,1306,439,1029,800,122,113,729,2976,182,99,68,153,121,98,269,550,313,337,755,704,1034,392,347,254,543,333,720,93]","trial_type":"fractal-mutation","trial_index":60,"time_elapsed":1447662,"internal_node_id":"0.0-5.0-21.0"},{"group":"dihedral group of order 12","fractal_assignment":["../images/wht_red.png","../images/grn_blu.png","../images/blu_wht.png","../images/grn_red.png","../images/cyn_red.png","../images/pnk_blu.png","../images/gry_blk.png","../images/ylw_pnk.png","../images/ylw_slt.png","../images/red_prp.png","../images/grn_prp.png","../images/org_blu.png"],"mutagen_generator_assignment":[1,0],"goal":9,"start":1,"action_noise":0.15,"location_history":"[1,2,3,9]","action_history":"[0,0,1]","mutagen_history":"[1,1,0]","location_rts":"[637,206,160]","trial_type":"fractal-mutation","trial_index":61,"time_elapsed":1455280,"internal_node_id":"0.0-5.0-22.0"},{"group":"dihedral group of order 12","fractal_assignment":["../images/wht_red.png","../images/grn_blu.png","../images/blu_wht.png","../images/grn_red.png","../images/cyn_red.png","../images/pnk_blu.png","../images/gry_blk.png","../images/ylw_pnk.png","../images/ylw_slt.png","../images/red_prp.png","../images/grn_prp.png","../images/org_blu.png"],"mutagen_generator_assignment":[1,0],"goal":3,"start":9,"action_noise":0.15,"location_history":"[9,8,2,8,7,6,0,6,11,10,9,3]","action_history":"[0,1,0,0,0,1,1,0,0,0,1]","mutagen_history":"[1,0,1,1,1,0,0,1,1,1,0]","location_rts":"[422,115,311,230,122,127,88,30,81,99,138]","trial_type":"fractal-mutation","trial_index":62,"time_elapsed":1472310,"internal_node_id":"0.0-5.0-23.0"},{"group":"dihedral group of order 12","fractal_assignment":["../images/wht_red.png","../images/grn_blu.png","../images/blu_wht.png","../images/grn_red.png","../images/cyn_red.png","../images/pnk_blu.png","../images/gry_blk.png","../images/ylw_pnk.png","../images/ylw_slt.png","../images/red_prp.png","../images/grn_prp.png","../images/org_blu.png"],"mutagen_generator_assignment":[1,0],"goal":4,"start":3,"action_noise":0.15,"location_history":"[3,9,8,7,1,7,1,7,1,2,8,7,6,0,1,2,3,9,3,9,3,9,8,2,8,2,3,9,8,7,6,0,6,11,5,0,1,2,8,7,6,11,10,4]","action_history":"[1,0,0,1,0,0,1,1,1,1,0,0,1,0,0,0,1,1,1,1,0,0,1,1,1,0,1,0,0,0,1,1,1,1,1,0,0,0,0,0,0,0,1]","mutagen_history":"[0,1,1,0,1,1,0,0,0,0,1,1,0,1,1,1,0,0,0,0,1,1,0,0,0,1,0,1,1,1,0,0,0,0,0,1,1,1,1,1,1,1,0]","location_rts":"[6885,180,1685,2623,1479,1502,390,483,627,124,147,53,253,397,3501,1410,226,2578,586,1802,206,157,192,1127,5039,113,5663,3772,463,728,243,6054,687,903,861,229,169,268,355,696,1039,620,200]","trial_type":"fractal-mutation","trial_index":63,"time_elapsed":1578009,"internal_node_id":"0.0-5.0-24.0"},{"group":"dihedral group of order 12","fractal_assignment":["../images/wht_red.png","../images/grn_blu.png","../images/blu_wht.png","../images/grn_red.png","../images/cyn_red.png","../images/pnk_blu.png","../images/gry_blk.png","../images/ylw_pnk.png","../images/ylw_slt.png","../images/red_prp.png","../images/grn_prp.png","../images/org_blu.png"],"mutagen_generator_assignment":[1,0],"goal":2,"start":4,"action_noise":0.15,"location_history":"[4,10,9,3,9,3,9,8,7,6,11,10,4,5,0,1,2]","action_history":"[1,0,0,1,1,1,0,0,0,1,1,1,0,0,0,0]","mutagen_history":"[0,1,1,0,0,0,1,1,1,0,0,0,1,1,1,1]","location_rts":"[257,348,121,111,198,319,127,270,121,414,363,710,890,358,1805,1865]","trial_type":"fractal-mutation","trial_index":64,"time_elapsed":1606673,"internal_node_id":"0.0-5.0-25.0"},{"group":"dihedral group of order 12","fractal_assignment":["../images/wht_red.png","../images/grn_blu.png","../images/blu_wht.png","../images/grn_red.png","../images/cyn_red.png","../images/pnk_blu.png","../images/gry_blk.png","../images/ylw_pnk.png","../images/ylw_slt.png","../images/red_prp.png","../images/grn_prp.png","../images/org_blu.png"],"mutagen_generator_assignment":[1,0],"goal":1,"start":2,"action_noise":0.15,"location_history":"[2,8,2,8,2,3,4,5,11,5,11,10,9,8,7,6,0,6,0,6,11,10,9,8,7,1]","action_history":"[0,1,1,1,0,0,0,1,1,1,0,0,0,0,0,1,1,1,1,0,1,0,0,0,1]","mutagen_history":"[1,0,0,0,1,1,1,0,0,0,1,1,1,1,1,0,0,0,0,1,0,1,1,1,0]","location_rts":"[1122,97,212,657,332,283,92,306,692,156,34,57,103,46,102,65,188,158,208,106,194,161,119,4498,838]","trial_type":"fractal-mutation","trial_index":65,"time_elapsed":1647535,"internal_node_id":"0.0-5.0-26.0"},{"group":"dihedral group of order 12","fractal_assignment":["../images/wht_red.png","../images/grn_blu.png","../images/blu_wht.png","../images/grn_red.png","../images/cyn_red.png","../images/pnk_blu.png","../images/gry_blk.png","../images/ylw_pnk.png","../images/ylw_slt.png","../images/red_prp.png","../images/grn_prp.png","../images/org_blu.png"],"mutagen_generator_assignment":[1,0],"goal":8,"start":1,"action_noise":0.15,"location_history":"[1,2,8]","action_history":"[0,1]","mutagen_history":"[1,0]","location_rts":"[383,105]","trial_type":"fractal-mutation","trial_index":66,"time_elapsed":1653729,"internal_node_id":"0.0-5.0-27.0"},{"group":"dihedral group of order 12","fractal_assignment":["../images/wht_red.png","../images/grn_blu.png","../images/blu_wht.png","../images/grn_red.png","../images/cyn_red.png","../images/pnk_blu.png","../images/gry_blk.png","../images/ylw_pnk.png","../images/ylw_slt.png","../images/red_prp.png","../images/grn_prp.png","../images/org_blu.png"],"mutagen_generator_assignment":[1,0],"goal":10,"start":8,"action_noise":0.15,"location_history":"[8,2,8,7,6,11,10]","action_history":"[1,0,1,0,0,0]","mutagen_history":"[0,1,0,1,1,1]","location_rts":"[264,428,8797,428,373,589]","trial_type":"fractal-mutation","trial_index":67,"time_elapsed":1674483,"internal_node_id":"0.0-5.0-28.0"},{"group":"dihedral group of order 12","fractal_assignment":["../images/wht_red.png","../images/grn_blu.png","../images/blu_wht.png","../images/grn_red.png","../images/cyn_red.png","../images/pnk_blu.png","../images/gry_blk.png","../images/ylw_pnk.png","../images/ylw_slt.png","../images/red_prp.png","../images/grn_prp.png","../images/org_blu.png"],"mutagen_generator_assignment":[1,0],"goal":7,"start":10,"action_noise":0.15,"location_history":"[10,4,10,4,5,0,6,0,1,2,8,2,8,2,3,4,5,0,6,11,10,9,3,4,10,4,5,11,5,11,5,11,10,4,5,0,1,2,3,4,10,4,5,0,6,0,6,0,6,0,6,11,5,0,1,7]","action_history":"[1,1,0,0,0,1,1,0,0,1,1,1,1,0,0,0,0,1,1,0,1,1,0,1,1,0,1,1,1,0,0,1,1,0,0,0,0,0,0,1,1,0,0,1,1,1,1,1,0,0,0,1,0,0,1]","mutagen_history":"[0,0,1,1,1,0,0,1,1,0,0,0,0,1,1,1,1,0,0,1,0,0,1,0,0,1,0,0,0,1,1,0,0,1,1,1,1,1,1,0,0,1,1,0,0,0,0,0,1,1,1,0,1,1,0]","location_rts":"[797,229,69,56,143,289,118,142,4014,330,738,218,107,52,101,187,104,180,53,135,103,742,430,312,96,122,318,450,408,148,126,210,9189,177,952,574,306,6373,623,251,237,169,141,70,386,932,321,404,433,644,655,890,766,699,859]","trial_type":"fractal-mutation","trial_index":68,"time_elapsed":1774098,"internal_node_id":"0.0-5.0-29.0"},{"group":"dihedral group of order 12","fractal_assignment":["../images/wht_red.png","../images/grn_blu.png","../images/blu_wht.png","../images/grn_red.png","../images/cyn_red.png","../images/pnk_blu.png","../images/gry_blk.png","../images/ylw_pnk.png","../images/ylw_slt.png","../images/red_prp.png","../images/grn_prp.png","../images/org_blu.png"],"mutagen_generator_assignment":[1,0],"goal":6,"start":7,"action_noise":0.15,"location_history":"[7,6]","action_history":"[0]","mutagen_history":"[1]","location_rts":"[314]","trial_type":"fractal-mutation","trial_index":69,"time_elapsed":1778951,"internal_node_id":"0.0-5.0-30.0"},{"group":"dihedral group of order 12","fractal_assignment":["../images/wht_red.png","../images/grn_blu.png","../images/blu_wht.png","../images/grn_red.png","../images/cyn_red.png","../images/pnk_blu.png","../images/gry_blk.png","../images/ylw_pnk.png","../images/ylw_slt.png","../images/red_prp.png","../images/grn_prp.png","../images/org_blu.png"],"mutagen_generator_assignment":[1,0],"goal":0,"start":6,"action_noise":0.15,"location_history":"[6,0]","action_history":"[1]","mutagen_history":"[0]","location_rts":"[319]","trial_type":"fractal-mutation","trial_index":70,"time_elapsed":1783918,"internal_node_id":"0.0-5.0-31.0"},{"group":"dihedral group of order 12","fractal_assignment":["../images/wht_red.png","../images/grn_blu.png","../images/blu_wht.png","../images/grn_red.png","../images/cyn_red.png","../images/pnk_blu.png","../images/gry_blk.png","../images/ylw_pnk.png","../images/ylw_slt.png","../images/red_prp.png","../images/grn_prp.png","../images/org_blu.png"],"mutagen_generator_assignment":[1,0],"goal":11,"start":0,"action_noise":0.15,"location_history":"[0,1,7,1,7,6,0,1,7,6,0,1,2,8,2,8,7,6,11]","action_history":"[0,1,1,1,0,0,0,0,0,1,0,0,1,1,0,0,0,0]","mutagen_history":"[1,0,0,0,1,1,1,1,1,0,1,1,0,0,1,1,1,1]","location_rts":"[241,996,711,682,398,493,1236,420,614,724,1135,1210,1022,1124,587,620,866,1753]","trial_type":"fractal-mutation","trial_index":71,"time_elapsed":1821475,"internal_node_id":"0.0-5.0-32.0"},{"group":"dihedral group of order 12","fractal_assignment":["../images/wht_red.png","../images/grn_blu.png","../images/blu_wht.png","../images/grn_red.png","../images/cyn_red.png","../images/pnk_blu.png","../images/gry_blk.png","../images/ylw_pnk.png","../images/ylw_slt.png","../images/red_prp.png","../images/grn_prp.png","../images/org_blu.png"],"mutagen_generator_assignment":[1,0],"goal":9,"start":11,"action_noise":0.15,"location_history":"[11,10,4,10,4,5,0,6,0,6,11,5,11,5,11,10,4,5,0,1,7,6,11,10,9]","action_history":"[0,1,1,1,0,0,1,1,0,0,1,1,1,1,0,1,0,0,0,1,0,0,0,1]","mutagen_history":"[1,0,0,0,1,1,0,0,1,1,0,0,0,0,1,0,1,1,1,0,1,1,1,0]","location_rts":"[751,1103,359,538,376,524,650,841,727,524,981,600,406,693,1028,7680,338,215,90,285,407,1325,145,168]","trial_type":"fractal-mutation","trial_index":72,"time_elapsed":1870821,"internal_node_id":"0.0-5.0-33.0"},{"group":"dihedral group of order 12","fractal_assignment":["../images/wht_red.png","../images/grn_blu.png","../images/blu_wht.png","../images/grn_red.png","../images/cyn_red.png","../images/pnk_blu.png","../images/gry_blk.png","../images/ylw_pnk.png","../images/ylw_slt.png","../images/red_prp.png","../images/grn_prp.png","../images/org_blu.png"],"mutagen_generator_assignment":[1,0],"goal":5,"start":9,"action_noise":0.15,"location_history":"[9,8,7,1,7,1,2,3,4,5]","action_history":"[0,1,1,1,1,0,0,1,1]","mutagen_history":"[1,0,0,0,0,1,1,0,0]","location_rts":"[586,947,700,464,317,214,250,86,309]","trial_type":"fractal-mutation","trial_index":73,"time_elapsed":1887770,"internal_node_id":"0.0-5.0-34.0"},{"view_history":"[{\"page_index\":0,\"viewing_time\":3651}]","rt":3651,"trial_type":"instructions","trial_index":74,"time_elapsed":1892422,"internal_node_id":"0.0-6.0"},{"rt":1731,"responses":"{\"Q0\":\"\"}","trial_type":"survey-text","trial_index":75,"time_elapsed":1895157,"internal_node_id":"0.0-7.0"}]