[{"view_history":"[{\"page_index\":0,\"viewing_time\":2679898},{\"page_index\":1,\"viewing_time\":2999}]","rt":2682898,"trial_type":"instructions","trial_index":0,"time_elapsed":2682899,"internal_node_id":"0.0-0.0"},{"view_history":"[{\"page_index\":0,\"viewing_time\":10419},{\"page_index\":1,\"viewing_time\":19031}]","rt":29451,"trial_type":"instructions","trial_index":1,"time_elapsed":2713351,"internal_node_id":"0.0-1.0"},{"group":"dicyclic group of order 12","room_assignment":["brown","pink","cyan","red","grey","yellow","ivory","purple","olive","orange","blue","green"],"door_color_assignment":["white","black"],"door_generator_assignment":[1,0],"goal":7,"start":11,"action_noise":0.15,"location_history":"[11,3,0,4,8,0,1,5,10,7]","action_history":"[0,1,1,1,1,0,0,0,0]","door_history":"[1,0,0,0,0,1,1,1,1]","location_rts":"[2746,1056,778,523,907,420,411,458,442]","trial_type":"two-door-navigation","trial_index":2,"time_elapsed":2733799,"internal_node_id":"0.0-2.0-0.0"},{"group":"dicyclic group of order 12","room_assignment":["brown","pink","cyan","red","grey","yellow","ivory","purple","olive","orange","blue","green"],"door_color_assignment":["white","black"],"door_generator_assignment":[1,0],"goal":8,"start":7,"action_noise":0.15,"location_history":"[7,11,4,9,1,2,6,11,4,8]","action_history":"[1,0,0,0,0,1,1,0,1]","door_history":"[0,1,1,1,1,0,0,1,0]","location_rts":"[5958,1186,779,643,748,1605,427,1092,1004]","trial_type":"two-door-navigation","trial_index":3,"time_elapsed":2759931,"internal_node_id":"0.0-2.0-1.0"},{"group":"dicyclic group of order 12","room_assignment":["brown","pink","cyan","red","grey","yellow","ivory","purple","olive","orange","blue","green"],"door_color_assignment":["white","black"],"door_generator_assignment":[1,0],"goal":4,"start":8,"action_noise":0.15,"location_history":"[8,5,10,7,8,5,9,1,5,9,1,5,10,2,6,10,2,3,0,4]","action_history":"[0,0,0,0,0,1,1,1,1,1,1,0,1,1,1,1,0,0,1]","door_history":"[1,1,1,1,1,0,0,0,0,0,0,1,0,0,0,0,1,1,0]","location_rts":"[3835,601,402,362,331,1187,307,403,647,347,451,715,578,380,356,426,419,268,548]","trial_type":"two-door-navigation","trial_index":4,"time_elapsed":2795402,"internal_node_id":"0.0-2.0-2.0"},{"group":"dicyclic group of order 12","room_assignment":["brown","pink","cyan","red","grey","yellow","ivory","purple","olive","orange","blue","green"],"door_color_assignment":["white","black"],"door_generator_assignment":[1,0],"goal":5,"start":4,"action_noise":0.15,"location_history":"[4,9,6,10,2,6,11,3,7,11,3,0,1,2,3,7,8,0,4,8,0,4,8,5]","action_history":"[1,0,1,1,1,0,1,1,1,1,0,0,0,1,1,0,0,1,1,1,1,1,0]","door_history":"[0,1,0,0,0,1,0,0,0,0,1,1,1,0,0,1,1,0,0,0,0,0,1]","location_rts":"[907,1172,854,588,451,667,652,458,346,370,618,361,492,612,419,779,379,301,363,339,268,244,395]","trial_type":"two-door-navigation","trial_index":5,"time_elapsed":2834416,"internal_node_id":"0.0-2.0-3.0"},{"group":"dicyclic group of order 12","room_assignment":["brown","pink","cyan","red","grey","yellow","ivory","purple","olive","orange","blue","green"],"door_color_assignment":["white","black"],"door_generator_assignment":[1,0],"goal":10,"start":5,"action_noise":0.15,"location_history":"[5,9,1,2,6,11,4,9,6,11,4,8,5,9,1,5,9,6,11,3,0,1,2,3,0,1,5,10]","action_history":"[0,1,0,1,0,0,0,0,0,1,1,1,1,0,0,0,0,0,0,0,0,1,0,1,0,1,0]","door_history":"[1,0,1,0,1,1,1,1,1,0,0,0,0,1,1,1,1,1,1,1,1,0,1,0,1,0,1]","location_rts":"[515,1117,905,979,884,980,365,51,235,484,291,50,283,418,284,187,331,220,234,339,347,284,588,300,365,348,325]","trial_type":"two-door-navigation","trial_index":6,"time_elapsed":2877184,"internal_node_id":"0.0-2.0-4.0"},{"group":"dicyclic group of order 12","room_assignment":["brown","pink","cyan","red","grey","yellow","ivory","purple","olive","orange","blue","green"],"door_color_assignment":["white","black"],"door_generator_assignment":[1,0],"goal":1,"start":10,"action_noise":0.15,"location_history":"[10,2,3,0,1]","action_history":"[1,0,0,1]","door_history":"[0,1,1,0]","location_rts":"[588,1067,363,157]","trial_type":"two-door-navigation","trial_index":7,"time_elapsed":2886945,"internal_node_id":"0.0-2.0-5.0"},{"group":"dicyclic group of order 12","room_assignment":["brown","pink","cyan","red","grey","yellow","ivory","purple","olive","orange","blue","green"],"door_color_assignment":["white","black"],"door_generator_assignment":[1,0],"goal":6,"start":1,"action_noise":0.15,"location_history":"[1,5,10,2,6]","action_history":"[1,0,1,1]","door_history":"[0,1,0,0]","location_rts":"[1547,570,691,532]","trial_type":"two-door-navigation","trial_index":8,"time_elapsed":2897872,"internal_node_id":"0.0-2.0-6.0"},{"group":"dicyclic group of order 12","room_assignment":["brown","pink","cyan","red","grey","yellow","ivory","purple","olive","orange","blue","green"],"door_color_assignment":["white","black"],"door_generator_assignment":[1,0],"goal":9,"start":6,"action_noise":0.15,"location_history":"[6,10,2,3,0,4,9]","action_history":"[0,1,0,1,0,1]","door_history":"[1,0,1,0,1,0]","location_rts":"[1132,707,523,612,450,691]","trial_type":"two-door-navigation","trial_index":9,"time_elapsed":2911617,"internal_node_id":"0.0-2.0-7.0"},{"group":"dicyclic group of order 12","room_assignment":["brown","pink","cyan","red","grey","yellow","ivory","purple","olive","orange","blue","green"],"door_color_assignment":["white","black"],"door_generator_assignment":[1,0],"goal":2,"start":9,"action_noise":0.15,"location_history":"[9,1,5,10,2]","action_history":"[0,1,0,1]","door_history":"[1,0,1,0]","location_rts":"[843,804,492,1243]","trial_type":"two-door-navigation","trial_index":10,"time_elapsed":2922586,"internal_node_id":"0.0-2.0-8.0"},{"group":"dicyclic group of order 12","room_assignment":["brown","pink","cyan","red","grey","yellow","ivory","purple","olive","orange","blue","green"],"door_color_assignment":["white","black"],"door_generator_assignment":[1,0],"goal":0,"start":2,"action_noise":0.15,"location_history":"[2,6,10,2,6,11,4,9,6,11,3,0]","action_history":"[1,1,1,1,0,0,0,0,0,0,0]","door_history":"[0,0,0,0,1,1,1,1,1,1,1]","location_rts":"[659,707,1243,882,874,363,859,643,442,443,427]","trial_type":"two-door-navigation","trial_index":11,"time_elapsed":2944864,"internal_node_id":"0.0-2.0-9.0"},{"group":"dicyclic group of order 12","room_assignment":["brown","pink","cyan","red","grey","yellow","ivory","purple","olive","orange","blue","green"],"door_color_assignment":["white","black"],"door_generator_assignment":[1,0],"goal":3,"start":0,"action_noise":0.15,"location_history":"[0,4,9,1,2,6,11,4,9,1,5,9,1,5,9,6,10,7,8,0,1,5,10,7,8,0,4,8,5,10,2,3]","action_history":"[1,0,1,0,1,0,1,0,1,1,1,1,0,1,0,0,0,1,1,0,0,0,0,0,0,1,1,1,1,1,0]","door_history":"[0,1,0,1,0,1,0,1,0,0,0,0,1,0,1,1,1,0,0,1,1,1,1,1,1,0,0,0,0,0,1]","location_rts":"[1339,387,747,684,587,667,779,764,918,528,339,450,698,573,748,298,316,635,412,546,347,291,796,666,386,378,307,291,739,435,1196]","trial_type":"two-door-navigation","trial_index":12,"time_elapsed":2998266,"internal_node_id":"0.0-2.0-10.0"},{"group":"dicyclic group of order 12","room_assignment":["brown","pink","cyan","red","grey","yellow","ivory","purple","olive","orange","blue","green"],"door_color_assignment":["white","black"],"door_generator_assignment":[1,0],"goal":10,"start":3,"action_noise":0.15,"location_history":"[3,7,8,0,4,8,5,10]","action_history":"[1,0,1,1,0,0,0]","door_history":"[0,1,0,0,1,1,1]","location_rts":"[489,468,725,437,427,315,251]","trial_type":"two-door-navigation","trial_index":13,"time_elapsed":3012024,"internal_node_id":"0.0-2.0-11.0"},{"group":"dicyclic group of order 12","room_assignment":["brown","pink","cyan","red","grey","yellow","ivory","purple","olive","orange","blue","green"],"door_color_assignment":["white","black"],"door_generator_assignment":[1,0],"goal":8,"start":10,"action_noise":0.15,"location_history":"[10,7,11,3,0,1,5,10,2,3,7,11,4,9,6,11,4,8]","action_history":"[1,1,1,0,0,1,1,1,1,1,1,1,0,0,0,0,1]","door_history":"[0,0,0,1,1,0,0,0,0,0,0,0,1,1,1,1,0]","location_rts":"[443,1195,1011,1355,563,995,395,259,241,284,273,395,1308,418,420,1580,756]","trial_type":"two-door-navigation","trial_index":14,"time_elapsed":3044776,"internal_node_id":"0.0-2.0-12.0"},{"group":"dicyclic group of order 12","room_assignment":["brown","pink","cyan","red","grey","yellow","ivory","purple","olive","orange","blue","green"],"door_color_assignment":["white","black"],"door_generator_assignment":[1,0],"goal":4,"start":8,"action_noise":0.15,"location_history":"[8,5,9,1,5,9,6,10,2,3,0,1,5,9,6,10,7,8,5,9,1,2,6,11,3,0,4]","action_history":"[1,1,0,1,1,0,1,1,1,1,0,1,1,1,1,1,1,1,0,1,0,1,0,1,0,1]","door_history":"[0,0,1,0,0,1,0,0,0,0,1,0,0,0,0,0,0,0,1,0,1,0,1,0,1,0]","location_rts":"[819,548,460,332,420,572,403,541,330,426,314,402,401,347,362,611,459,563,476,452,283,269,261,308,294,268]","trial_type":"two-door-navigation","trial_index":15,"time_elapsed":3085742,"internal_node_id":"0.0-2.0-13.0"},{"group":"dicyclic group of order 12","room_assignment":["brown","pink","cyan","red","grey","yellow","ivory","purple","olive","orange","blue","green"],"door_color_assignment":["white","black"],"door_generator_assignment":[1,0],"goal":0,"start":4,"action_noise":0.15,"location_history":"[4,9,1,2,3,7,11,4,8,5,9,1,5,10,7,8,5,9,1,2,3,0]","action_history":"[0,1,0,0,0,0,0,0,0,1,1,1,0,0,0,0,1,1,0,0,0]","door_history":"[1,0,1,1,1,1,1,1,1,0,0,0,1,1,1,1,0,0,1,1,1]","location_rts":"[891,445,941,411,283,348,555,323,939,987,380,426,363,394,283,315,1002,1091,515,371,364]","trial_type":"two-door-navigation","trial_index":16,"time_elapsed":3122311,"internal_node_id":"0.0-2.0-14.0"},{"group":"dicyclic group of order 12","room_assignment":["brown","pink","cyan","red","grey","yellow","ivory","purple","olive","orange","blue","green"],"door_color_assignment":["white","black"],"door_generator_assignment":[1,0],"goal":11,"start":0,"action_noise":0.15,"location_history":"[0,4,8,5,10,7,8,5,10,2,6,11]","action_history":"[1,1,0,0,0,0,0,0,1,1,0]","door_history":"[0,0,1,1,1,1,1,1,0,0,1]","location_rts":"[683,571,659,396,275,251,371,340,266,363,619]","trial_type":"two-door-navigation","trial_index":17,"time_elapsed":3141839,"internal_node_id":"0.0-2.0-15.0"},{"group":"dicyclic group of order 12","room_assignment":["brown","pink","cyan","red","grey","yellow","ivory","purple","olive","orange","blue","green"],"door_color_assignment":["white","black"],"door_generator_assignment":[1,0],"goal":2,"start":11,"action_noise":0.15,"location_history":"[11,3,7,11,3,7,8,5,9,1,5,10,2]","action_history":"[0,0,1,1,1,0,0,0,1,1,0,1]","door_history":"[1,1,0,0,0,1,1,1,0,0,1,0]","location_rts":"[747,587,1075,1163,532,754,370,410,746,283,852,612]","trial_type":"two-door-navigation","trial_index":18,"time_elapsed":3165727,"internal_node_id":"0.0-2.0-16.0"},{"group":"dicyclic group of order 12","room_assignment":["brown","pink","cyan","red","grey","yellow","ivory","purple","olive","orange","blue","green"],"door_color_assignment":["white","black"],"door_generator_assignment":[1,0],"goal":7,"start":2,"action_noise":0.15,"location_history":"[2,6,10,7]","action_history":"[1,1,0]","door_history":"[0,0,1]","location_rts":"[619,363,306]","trial_type":"two-door-navigation","trial_index":19,"time_elapsed":3173582,"internal_node_id":"0.0-2.0-17.0"},{"group":"dicyclic group of order 12","room_assignment":["brown","pink","cyan","red","grey","yellow","ivory","purple","olive","orange","blue","green"],"door_color_assignment":["white","black"],"door_generator_assignment":[1,0],"goal":5,"start":7,"action_noise":0.15,"location_history":"[7,11,4,8,5]","action_history":"[1,0,1,0]","door_history":"[0,1,0,1]","location_rts":"[1715,979,547,500]","trial_type":"two-door-navigation","trial_index":20,"time_elapsed":3184910,"internal_node_id":"0.0-2.0-18.0"},{"group":"dicyclic group of order 12","room_assignment":["brown","pink","cyan","red","grey","yellow","ivory","purple","olive","orange","blue","green"],"door_color_assignment":["white","black"],"door_generator_assignment":[1,0],"goal":6,"start":5,"action_noise":0.15,"location_history":"[5,10,7,8,5,10,2,6]","action_history":"[0,1,0,0,0,1,1]","door_history":"[1,0,1,1,1,0,0]","location_rts":"[1891,867,812,571,523,523,314]","trial_type":"two-door-navigation","trial_index":21,"time_elapsed":3201061,"internal_node_id":"0.0-2.0-19.0"},{"group":"dicyclic group of order 12","room_assignment":["brown","pink","cyan","red","grey","yellow","ivory","purple","olive","orange","blue","green"],"door_color_assignment":["white","black"],"door_generator_assignment":[1,0],"goal":3,"start":6,"action_noise":0.15,"location_history":"[6,11,4,8,0,1,2,3]","action_history":"[0,0,0,0,0,0,0]","door_history":"[1,1,1,1,1,1,1]","location_rts":"[1637,394,467,386,315,363,467]","trial_type":"two-door-navigation","trial_index":22,"time_elapsed":3215743,"internal_node_id":"0.0-2.0-20.0"},{"group":"dicyclic group of order 12","room_assignment":["brown","pink","cyan","red","grey","yellow","ivory","purple","olive","orange","blue","green"],"door_color_assignment":["white","black"],"door_generator_assignment":[1,0],"goal":1,"start":3,"action_noise":0.15,"location_history":"[3,7,11,3,7,8,0,1]","action_history":"[1,1,1,1,0,1,0]","door_history":"[0,0,0,0,1,0,1]","location_rts":"[1283,419,428,1059,619,516,284]","trial_type":"two-door-navigation","trial_index":23,"time_elapsed":3230997,"internal_node_id":"0.0-2.0-21.0"},{"group":"dicyclic group of order 12","room_assignment":["brown","pink","cyan","red","grey","yellow","ivory","purple","olive","orange","blue","green"],"door_color_assignment":["white","black"],"door_generator_assignment":[1,0],"goal":9,"start":1,"action_noise":0.15,"location_history":"[1,5,9]","action_history":"[1,1]","door_history":"[0,0]","location_rts":"[557,634]","trial_type":"two-door-navigation","trial_index":24,"time_elapsed":3237734,"internal_node_id":"0.0-2.0-22.0"},{"group":"dicyclic group of order 12","room_assignment":["brown","pink","cyan","red","grey","yellow","ivory","purple","olive","orange","blue","green"],"door_color_assignment":["white","black"],"door_generator_assignment":[1,0],"goal":3,"start":9,"action_noise":0.15,"location_history":"[9,6,11,4,8,5,10,7,8,5,9,1,5,9,1,2,6,10,2,3]","action_history":"[0,1,0,1,0,1,0,0,0,1,1,0,1,1,1,1,1,0,0]","door_history":"[1,0,1,0,1,0,1,1,1,0,0,1,0,0,0,0,0,1,1]","location_rts":"[1492,443,259,1332,412,636,547,500,306,995,395,339,324,572,386,322,364,482,419]","trial_type":"two-door-navigation","trial_index":25,"time_elapsed":3271159,"internal_node_id":"0.0-2.0-23.0"},{"group":"dicyclic group of order 12","room_assignment":["brown","pink","cyan","red","grey","yellow","ivory","purple","olive","orange","blue","green"],"door_color_assignment":["white","black"],"door_generator_assignment":[1,0],"goal":4,"start":3,"action_noise":0.15,"location_history":"[3,0,4]","action_history":"[0,1]","door_history":"[1,0]","location_rts":"[988,451]","trial_type":"two-door-navigation","trial_index":26,"time_elapsed":3278143,"internal_node_id":"0.0-2.0-24.0"},{"group":"dicyclic group of order 12","room_assignment":["brown","pink","cyan","red","grey","yellow","ivory","purple","olive","orange","blue","green"],"door_color_assignment":["white","black"],"door_generator_assignment":[1,0],"goal":2,"start":4,"action_noise":0.15,"location_history":"[4,9,6,10,7,11,4,8,5,9,6,11,4,8,0,4,8,0,4,8,5,10,7,8,0,1,5,10,7,8,5,10,2]","action_history":"[0,0,1,0,1,0,1,0,1,0,0,0,0,1,1,0,1,1,1,0,0,1,0,1,1,1,0,1,1,0,0,0]","door_history":"[1,1,0,1,0,1,0,1,0,1,1,1,1,0,0,1,0,0,0,1,1,0,1,0,0,0,1,0,0,1,1,1]","location_rts":"[818,1347,587,843,708,324,644,1187,884,706,323,474,581,954,451,219,1074,650,322,811,451,883,747,723,356,419,707,627,308,331,236,371]","trial_type":"two-door-navigation","trial_index":27,"time_elapsed":3334383,"internal_node_id":"0.0-2.0-25.0"},{"group":"dicyclic group of order 12","room_assignment":["brown","pink","cyan","red","grey","yellow","ivory","purple","olive","orange","blue","green"],"door_color_assignment":["white","black"],"door_generator_assignment":[1,0],"goal":1,"start":2,"action_noise":0.15,"location_history":"[2,3,7,8,5,10,2,6,10,7,8,5,10,2,6,10,7,8,5,10,7,8,5,10,2,3,7,11,4,9,6,10,2,3,7,8,5,9,6,10,7,11,4,9,1]","action_history":"[0,1,0,0,0,1,1,1,0,0,0,0,1,1,1,0,0,0,1,0,0,0,0,0,0,1,1,0,0,0,0,0,0,0,0,1,1,0,0,0,1,1,0,1]","door_history":"[1,0,1,1,1,0,0,0,1,1,1,1,0,0,0,1,1,1,0,1,1,1,1,1,1,0,0,1,1,1,1,1,1,1,1,0,0,1,1,1,0,0,1,0]","location_rts":"[803,867,1427,450,298,642,307,395,867,299,396,916,363,395,771,683,387,355,252,290,283,324,227,446,786,1116,397,237,300,250,124,458,10,362,523,426,307,493,339,349,363,499,723,378]","trial_type":"two-door-navigation","trial_index":28,"time_elapsed":3403684,"internal_node_id":"0.0-2.0-26.0"},{"group":"dicyclic group of order 12","room_assignment":["brown","pink","cyan","red","grey","yellow","ivory","purple","olive","orange","blue","green"],"door_color_assignment":["white","black"],"door_generator_assignment":[1,0],"goal":8,"start":1,"action_noise":0.15,"location_history":"[1,2,6,11,3,0,1,5,9,1,2,3,0,1,2,3,7,11,3,0,4,9,6,11,4,9,1,5,9,1,5,9,1,2,3,0,1,2,3,0,4,9,1,2,3,0,1,2,6,10,2,6,11,3,0,1,5,10,2,3,0,1,2,6,11,4,8]","action_history":"[0,1,0,1,0,0,1,1,1,0,0,0,0,0,0,1,0,1,0,1,0,0,0,0,0,1,1,1,1,1,1,1,0,0,0,1,0,0,0,1,0,0,0,0,0,0,0,1,1,0,1,0,1,0,0,1,0,0,0,0,0,0,0,0,0,1]","door_history":"[1,0,1,0,1,1,0,0,0,1,1,1,1,1,1,0,1,0,1,0,1,1,1,1,1,0,0,0,0,0,0,0,1,1,1,0,1,1,1,0,1,1,1,1,1,1,1,0,0,1,0,1,0,1,1,0,1,1,1,1,1,1,1,1,1,0]","location_rts":"[725,1322,475,1164,675,755,580,449,539,787,523,412,660,435,275,594,310,490,699,259,755,362,332,267,323,419,291,283,260,338,283,323,700,283,244,308,611,355,323,411,348,315,410,396,341,212,363,307,243,292,131,19,106,1066,1372,356,363,372,243,283,115,323,122,139,362,659]","trial_type":"two-door-navigation","trial_index":29,"time_elapsed":3503419,"internal_node_id":"0.0-2.0-27.0"},{"group":"dicyclic group of order 12","room_assignment":["brown","pink","cyan","red","grey","yellow","ivory","purple","olive","orange","blue","green"],"door_color_assignment":["white","black"],"door_generator_assignment":[1,0],"goal":10,"start":8,"action_noise":0.15,"location_history":"[8,0,1,5,10]","action_history":"[1,0,1,1]","door_history":"[0,1,0,0]","location_rts":"[2003,19,723,997]","trial_type":"two-door-navigation","trial_index":30,"time_elapsed":3514748,"internal_node_id":"0.0-2.0-28.0"},{"group":"dicyclic group of order 12","room_assignment":["brown","pink","cyan","red","grey","yellow","ivory","purple","olive","orange","blue","green"],"door_color_assignment":["white","black"],"door_generator_assignment":[1,0],"goal":7,"start":10,"action_noise":0.15,"location_history":"[10,7]","action_history":"[0]","door_history":"[1]","location_rts":"[1428]","trial_type":"two-door-navigation","trial_index":31,"time_elapsed":3520701,"internal_node_id":"0.0-2.0-29.0"},{"group":"dicyclic group of order 12","room_assignment":["brown","pink","cyan","red","grey","yellow","ivory","purple","olive","orange","blue","green"],"door_color_assignment":["white","black"],"door_generator_assignment":[1,0],"goal":6,"start":7,"action_noise":0.15,"location_history":"[7,11,4,8,0,4,9,6]","action_history":"[1,0,1,1,1,0,0]","door_history":"[0,1,0,0,0,1,1]","location_rts":"[1234,267,123,403,451,291,380]","trial_type":"two-door-navigation","trial_index":32,"time_elapsed":3534500,"internal_node_id":"0.0-2.0-30.0"},{"group":"dicyclic group of order 12","room_assignment":["brown","pink","cyan","red","grey","yellow","ivory","purple","olive","orange","blue","green"],"door_color_assignment":["white","black"],"door_generator_assignment":[1,0],"goal":0,"start":6,"action_noise":0.15,"location_history":"[6,11,3,7,11,3,0]","action_history":"[0,1,1,1,0,0]","door_history":"[1,0,0,0,1,1]","location_rts":"[684,499,579,267,306,1131]","trial_type":"two-door-navigation","trial_index":33,"time_elapsed":3547595,"internal_node_id":"0.0-2.0-31.0"},{"group":"dicyclic group of order 12","room_assignment":["brown","pink","cyan","red","grey","yellow","ivory","purple","olive","orange","blue","green"],"door_color_assignment":["white","black"],"door_generator_assignment":[1,0],"goal":11,"start":0,"action_noise":0.15,"location_history":"[0,1,5,9,1,2,3,0,4,9,1,5,10,7,8,0,1,5,10,2,3,0,1,2,6,11]","action_history":"[0,1,1,0,0,0,0,1,0,1,0,0,0,0,0,0,1,0,1,0,0,0,0,1,0]","door_history":"[1,0,0,1,1,1,1,0,1,0,1,1,1,1,1,1,0,1,0,1,1,1,1,0,1]","location_rts":"[3916,555,507,403,429,499,508,748,788,395,339,307,283,371,923,411,524,612,427,396,459,444,475,404,419]","trial_type":"two-door-navigation","trial_index":34,"time_elapsed":3592156,"internal_node_id":"0.0-2.0-32.0"},{"group":"dicyclic group of order 12","room_assignment":["brown","pink","cyan","red","grey","yellow","ivory","purple","olive","orange","blue","green"],"door_color_assignment":["white","black"],"door_generator_assignment":[1,0],"goal":9,"start":11,"action_noise":0.15,"location_history":"[11,4,8,5,9]","action_history":"[0,1,0,1]","door_history":"[1,0,1,0]","location_rts":"[780,1596,971,714]","trial_type":"two-door-navigation","trial_index":35,"time_elapsed":3603804,"internal_node_id":"0.0-2.0-33.0"},{"group":"dicyclic group of order 12","room_assignment":["brown","pink","cyan","red","grey","yellow","ivory","purple","olive","orange","blue","green"],"door_color_assignment":["white","black"],"door_generator_assignment":[1,0],"goal":5,"start":9,"action_noise":0.15,"location_history":"[9,1,2,6,10,7,8,0,1,2,6,11,4,9,6,11,3,7,11,4,8,0,1,5]","action_history":"[1,0,1,0,0,0,1,0,1,1,0,0,0,0,0,1,1,1,0,1,1,1,1]","door_history":"[0,1,0,1,1,1,0,1,0,0,1,1,1,1,1,0,0,0,1,0,0,0,0]","location_rts":"[1147,323,402,507,443,315,299,892,405,459,315,780,338,284,332,940,291,451,1107,531,404,387,554]","trial_type":"two-door-navigation","trial_index":36,"time_elapsed":3642693,"internal_node_id":"0.0-2.0-34.0"},{"view_history":"[{\"page_index\":0,\"viewing_time\":777639}]","rt":777640,"trial_type":"instructions","trial_index":37,"time_elapsed":4421333,"internal_node_id":"0.0-3.0"},{"view_history":"[{\"page_index\":0,\"viewing_time\":6670},{\"page_index\":1,\"viewing_time\":7544}]","rt":14214,"trial_type":"instructions","trial_index":38,"time_elapsed":4436547,"internal_node_id":"0.0-4.0"},{"group":"dicyclic group of order 12","fractal_assignment":["../images/blu_wht.png","../images/grn_red.png","../images/grn_prp.png","../images/red_prp.png","../images/cyn_red.png","../images/pnk_blu.png","../images/ylw_slt.png","../images/wht_red.png","../images/ylw_pnk.png","../images/org_blu.png","../images/grn_blu.png","../images/gry_blk.png"],"mutagen_generator_assignment":[1,0],"goal":7,"start":11,"action_noise":0.15,"location_history":"[11,3,7]","action_history":"[1,1]","mutagen_history":"[0,0]","location_rts":"[5155,1530]","trial_type":"fractal-mutation","trial_index":39,"time_elapsed":4448796,"internal_node_id":"0.0-5.0-0.0"},{"group":"dicyclic group of order 12","fractal_assignment":["../images/blu_wht.png","../images/grn_red.png","../images/grn_prp.png","../images/red_prp.png","../images/cyn_red.png","../images/pnk_blu.png","../images/ylw_slt.png","../images/wht_red.png","../images/ylw_pnk.png","../images/org_blu.png","../images/grn_blu.png","../images/gry_blk.png"],"mutagen_generator_assignment":[1,0],"goal":8,"start":7,"action_noise":0.15,"location_history":"[7,8]","action_history":"[0]","mutagen_history":"[1]","location_rts":"[729]","trial_type":"fractal-mutation","trial_index":40,"time_elapsed":4454208,"internal_node_id":"0.0-5.0-1.0"},{"group":"dicyclic group of order 12","fractal_assignment":["../images/blu_wht.png","../images/grn_red.png","../images/grn_prp.png","../images/red_prp.png","../images/cyn_red.png","../images/pnk_blu.png","../images/ylw_slt.png","../images/wht_red.png","../images/ylw_pnk.png","../images/org_blu.png","../images/grn_blu.png","../images/gry_blk.png"],"mutagen_generator_assignment":[1,0],"goal":4,"start":8,"action_noise":0.15,"location_history":"[8,5,9,6,10,2,3,0,4]","action_history":"[0,1,0,1,1,0,0,1]","mutagen_history":"[1,0,1,0,0,1,1,0]","location_rts":"[1991,983,1009,848,931,799,840,902]","trial_type":"fractal-mutation","trial_index":41,"time_elapsed":4475262,"internal_node_id":"0.0-5.0-2.0"},{"group":"dicyclic group of order 12","fractal_assignment":["../images/blu_wht.png","../images/grn_red.png","../images/grn_prp.png","../images/red_prp.png","../images/cyn_red.png","../images/pnk_blu.png","../images/ylw_slt.png","../images/wht_red.png","../images/ylw_pnk.png","../images/org_blu.png","../images/grn_blu.png","../images/gry_blk.png"],"mutagen_generator_assignment":[1,0],"goal":5,"start":4,"action_noise":0.15,"location_history":"[4,9,6,10,7,11,4,9,6,11,3,7,11,3,7,8,0,1,2,3,7,11,3,0,1,2,6,11,4,9,6,11,3,0,4,9,6,11,4,9,6,10,7,11,3,7,8,5]","action_history":"[0,1,1,1,1,0,0,1,0,1,1,0,0,1,0,1,0,0,0,1,1,1,0,0,0,1,1,1,0,1,0,1,0,1,0,0,0,0,0,0,0,0,0,1,1,1,0]","mutagen_history":"[1,0,0,0,0,1,1,0,1,0,0,1,1,0,1,0,1,1,1,0,0,0,1,1,1,0,0,0,1,0,1,0,1,0,1,1,1,1,1,1,1,1,1,0,0,0,1]","location_rts":"[976,780,1014,767,875,607,812,657,739,542,651,390,706,987,803,759,702,816,847,750,1026,600,1146,816,833,629,925,599,644,660,491,443,647,499,610,1070,513,443,580,812,718,1313,810,526,710,1074,543]","trial_type":"fractal-mutation","trial_index":42,"time_elapsed":4567673,"internal_node_id":"0.0-5.0-3.0"},{"group":"dicyclic group of order 12","fractal_assignment":["../images/blu_wht.png","../images/grn_red.png","../images/grn_prp.png","../images/red_prp.png","../images/cyn_red.png","../images/pnk_blu.png","../images/ylw_slt.png","../images/wht_red.png","../images/ylw_pnk.png","../images/org_blu.png","../images/grn_blu.png","../images/gry_blk.png"],"mutagen_generator_assignment":[1,0],"goal":10,"start":5,"action_noise":0.15,"location_history":"[5,9,1,5,9,1,2,3,0,4,9,6,10]","action_history":"[1,1,0,1,0,0,0,1,1,0,0,1]","mutagen_history":"[0,0,1,0,1,1,1,0,0,1,1,0]","location_rts":"[677,1002,626,1553,643,719,764,581,608,413,829,415]","trial_type":"fractal-mutation","trial_index":43,"time_elapsed":4593598,"internal_node_id":"0.0-5.0-4.0"},{"group":"dicyclic group of order 12","fractal_assignment":["../images/blu_wht.png","../images/grn_red.png","../images/grn_prp.png","../images/red_prp.png","../images/cyn_red.png","../images/pnk_blu.png","../images/ylw_slt.png","../images/wht_red.png","../images/ylw_pnk.png","../images/org_blu.png","../images/grn_blu.png","../images/gry_blk.png"],"mutagen_generator_assignment":[1,0],"goal":1,"start":10,"action_noise":0.15,"location_history":"[10,2,3,7,8,5,9,6,10,7,8,0,4,8,0,1]","action_history":"[1,0,1,0,0,1,0,1,0,0,1,0,1,1,0]","mutagen_history":"[0,1,0,1,1,0,1,0,1,1,0,1,0,0,1]","location_rts":"[648,482,509,700,710,533,765,781,482,659,616,816,877,1095,563]","trial_type":"fractal-mutation","trial_index":44,"time_elapsed":4624332,"internal_node_id":"0.0-5.0-5.0"},{"group":"dicyclic group of order 12","fractal_assignment":["../images/blu_wht.png","../images/grn_red.png","../images/grn_prp.png","../images/red_prp.png","../images/cyn_red.png","../images/pnk_blu.png","../images/ylw_slt.png","../images/wht_red.png","../images/ylw_pnk.png","../images/org_blu.png","../images/grn_blu.png","../images/gry_blk.png"],"mutagen_generator_assignment":[1,0],"goal":6,"start":1,"action_noise":0.15,"location_history":"[1,2,6]","action_history":"[0,1]","mutagen_history":"[1,0]","location_rts":"[960,1051]","trial_type":"fractal-mutation","trial_index":45,"time_elapsed":4632115,"internal_node_id":"0.0-5.0-6.0"},{"group":"dicyclic group of order 12","fractal_assignment":["../images/blu_wht.png","../images/grn_red.png","../images/grn_prp.png","../images/red_prp.png","../images/cyn_red.png","../images/pnk_blu.png","../images/ylw_slt.png","../images/wht_red.png","../images/ylw_pnk.png","../images/org_blu.png","../images/grn_blu.png","../images/gry_blk.png"],"mutagen_generator_assignment":[1,0],"goal":9,"start":6,"action_noise":0.15,"location_history":"[6,11,4,8,0,4,9]","action_history":"[1,0,1,0,1,0]","mutagen_history":"[0,1,0,1,0,1]","location_rts":"[777,434,544,551,722,493]","trial_type":"fractal-mutation","trial_index":46,"time_elapsed":4645967,"internal_node_id":"0.0-5.0-7.0"},{"group":"dicyclic group of order 12","fractal_assignment":["../images/blu_wht.png","../images/grn_red.png","../images/grn_prp.png","../images/red_prp.png","../images/cyn_red.png","../images/pnk_blu.png","../images/ylw_slt.png","../images/wht_red.png","../images/ylw_pnk.png","../images/org_blu.png","../images/grn_blu.png","../images/gry_blk.png"],"mutagen_generator_assignment":[1,0],"goal":2,"start":9,"action_noise":0.15,"location_history":"[9,6,11,4,8,5,10,2]","action_history":"[1,0,0,1,0,0,1]","mutagen_history":"[0,1,1,0,1,1,0]","location_rts":"[605,880,625,1251,562,987,982]","trial_type":"fractal-mutation","trial_index":47,"time_elapsed":4663254,"internal_node_id":"0.0-5.0-8.0"},{"group":"dicyclic group of order 12","fractal_assignment":["../images/blu_wht.png","../images/grn_red.png","../images/grn_prp.png","../images/red_prp.png","../images/cyn_red.png","../images/pnk_blu.png","../images/ylw_slt.png","../images/wht_red.png","../images/ylw_pnk.png","../images/org_blu.png","../images/grn_blu.png","../images/gry_blk.png"],"mutagen_generator_assignment":[1,0],"goal":0,"start":2,"action_noise":0.15,"location_history":"[2,3,0]","action_history":"[0,0]","mutagen_history":"[1,1]","location_rts":"[1520,410]","trial_type":"fractal-mutation","trial_index":48,"time_elapsed":4671024,"internal_node_id":"0.0-5.0-9.0"},{"group":"dicyclic group of order 12","fractal_assignment":["../images/blu_wht.png","../images/grn_red.png","../images/grn_prp.png","../images/red_prp.png","../images/cyn_red.png","../images/pnk_blu.png","../images/ylw_slt.png","../images/wht_red.png","../images/ylw_pnk.png","../images/org_blu.png","../images/grn_blu.png","../images/gry_blk.png"],"mutagen_generator_assignment":[1,0],"goal":3,"start":0,"action_noise":0.15,"location_history":"[0,1,2,3]","action_history":"[0,1,0]","mutagen_history":"[1,0,1]","location_rts":"[1261,695,1121]","trial_type":"fractal-mutation","trial_index":49,"time_elapsed":4681049,"internal_node_id":"0.0-5.0-10.0"},{"group":"dicyclic group of order 12","fractal_assignment":["../images/blu_wht.png","../images/grn_red.png","../images/grn_prp.png","../images/red_prp.png","../images/cyn_red.png","../images/pnk_blu.png","../images/ylw_slt.png","../images/wht_red.png","../images/ylw_pnk.png","../images/org_blu.png","../images/grn_blu.png","../images/gry_blk.png"],"mutagen_generator_assignment":[1,0],"goal":10,"start":3,"action_noise":0.15,"location_history":"[3,0,1,2,6,10]","action_history":"[1,0,0,1,0]","mutagen_history":"[0,1,1,0,1]","location_rts":"[779,585,991,554,266]","trial_type":"fractal-mutation","trial_index":50,"time_elapsed":4693380,"internal_node_id":"0.0-5.0-11.0"},{"group":"dicyclic group of order 12","fractal_assignment":["../images/blu_wht.png","../images/grn_red.png","../images/grn_prp.png","../images/red_prp.png","../images/cyn_red.png","../images/pnk_blu.png","../images/ylw_slt.png","../images/wht_red.png","../images/ylw_pnk.png","../images/org_blu.png","../images/grn_blu.png","../images/gry_blk.png"],"mutagen_generator_assignment":[1,0],"goal":8,"start":10,"action_noise":0.15,"location_history":"[10,7,11,4,9,1,5,9,6,10,2,6,11,4,8]","action_history":"[0,1,0,0,0,0,1,0,1,1,1,0,0,1]","mutagen_history":"[1,0,1,1,1,1,0,1,0,0,0,1,1,0]","location_rts":"[1072,516,396,644,1090,824,561,1047,566,1171,1255,431,457,522]","trial_type":"fractal-mutation","trial_index":51,"time_elapsed":4723608,"internal_node_id":"0.0-5.0-12.0"},{"group":"dicyclic group of order 12","fractal_assignment":["../images/blu_wht.png","../images/grn_red.png","../images/grn_prp.png","../images/red_prp.png","../images/cyn_red.png","../images/pnk_blu.png","../images/ylw_slt.png","../images/wht_red.png","../images/ylw_pnk.png","../images/org_blu.png","../images/grn_blu.png","../images/gry_blk.png"],"mutagen_generator_assignment":[1,0],"goal":4,"start":8,"action_noise":0.15,"location_history":"[8,0,4]","action_history":"[0,1]","mutagen_history":"[1,0]","location_rts":"[973,547]","trial_type":"fractal-mutation","trial_index":52,"time_elapsed":4730946,"internal_node_id":"0.0-5.0-13.0"},{"group":"dicyclic group of order 12","fractal_assignment":["../images/blu_wht.png","../images/grn_red.png","../images/grn_prp.png","../images/red_prp.png","../images/cyn_red.png","../images/pnk_blu.png","../images/ylw_slt.png","../images/wht_red.png","../images/ylw_pnk.png","../images/org_blu.png","../images/grn_blu.png","../images/gry_blk.png"],"mutagen_generator_assignment":[1,0],"goal":0,"start":4,"action_noise":0.15,"location_history":"[4,9,6,10,2,3,0]","action_history":"[0,0,1,0,0,0]","mutagen_history":"[1,1,0,1,1,1]","location_rts":"[1930,439,541,326,582,430]","trial_type":"fractal-mutation","trial_index":53,"time_elapsed":4745789,"internal_node_id":"0.0-5.0-14.0"},{"group":"dicyclic group of order 12","fractal_assignment":["../images/blu_wht.png","../images/grn_red.png","../images/grn_prp.png","../images/red_prp.png","../images/cyn_red.png","../images/pnk_blu.png","../images/ylw_slt.png","../images/wht_red.png","../images/ylw_pnk.png","../images/org_blu.png","../images/grn_blu.png","../images/gry_blk.png"],"mutagen_generator_assignment":[1,0],"goal":11,"start":0,"action_noise":0.15,"location_history":"[0,4,8,5,9,6,10,7,11]","action_history":"[1,1,0,1,1,1,0,1]","mutagen_history":"[0,0,1,0,0,0,1,0]","location_rts":"[1855,585,449,404,465,461,414,253]","trial_type":"fractal-mutation","trial_index":54,"time_elapsed":4762979,"internal_node_id":"0.0-5.0-15.0"},{"group":"dicyclic group of order 12","fractal_assignment":["../images/blu_wht.png","../images/grn_red.png","../images/grn_prp.png","../images/red_prp.png","../images/cyn_red.png","../images/pnk_blu.png","../images/ylw_slt.png","../images/wht_red.png","../images/ylw_pnk.png","../images/org_blu.png","../images/grn_blu.png","../images/gry_blk.png"],"mutagen_generator_assignment":[1,0],"goal":2,"start":11,"action_noise":0.15,"location_history":"[11,4,8,0,1,2]","action_history":"[0,0,1,0,0]","mutagen_history":"[1,1,0,1,1]","location_rts":"[1256,809,416,298,400]","trial_type":"fractal-mutation","trial_index":55,"time_elapsed":4775542,"internal_node_id":"0.0-5.0-16.0"},{"group":"dicyclic group of order 12","fractal_assignment":["../images/blu_wht.png","../images/grn_red.png","../images/grn_prp.png","../images/red_prp.png","../images/cyn_red.png","../images/pnk_blu.png","../images/ylw_slt.png","../images/wht_red.png","../images/ylw_pnk.png","../images/org_blu.png","../images/grn_blu.png","../images/gry_blk.png"],"mutagen_generator_assignment":[1,0],"goal":7,"start":2,"action_noise":0.15,"location_history":"[2,6,11,4,8,0,1,5,9,6,11,4,8,0,4,9,1,5,10,2,6,11,3,7]","action_history":"[1,0,0,1,1,0,0,1,0,0,0,1,1,1,0,0,0,0,1,1,1,1,1]","mutagen_history":"[0,1,1,0,0,1,1,0,1,1,1,0,0,0,1,1,1,1,0,0,0,0,0]","location_rts":"[1653,488,220,295,750,294,598,420,513,508,417,409,702,829,591,725,689,701,634,507,452,558,754]","trial_type":"fractal-mutation","trial_index":56,"time_elapsed":4819011,"internal_node_id":"0.0-5.0-17.0"},{"group":"dicyclic group of order 12","fractal_assignment":["../images/blu_wht.png","../images/grn_red.png","../images/grn_prp.png","../images/red_prp.png","../images/cyn_red.png","../images/pnk_blu.png","../images/ylw_slt.png","../images/wht_red.png","../images/ylw_pnk.png","../images/org_blu.png","../images/grn_blu.png","../images/gry_blk.png"],"mutagen_generator_assignment":[1,0],"goal":5,"start":7,"action_noise":0.15,"location_history":"[7,8,5]","action_history":"[0,0]","mutagen_history":"[1,1]","location_rts":"[624,359]","trial_type":"fractal-mutation","trial_index":57,"time_elapsed":4825867,"internal_node_id":"0.0-5.0-18.0"},{"group":"dicyclic group of order 12","fractal_assignment":["../images/blu_wht.png","../images/grn_red.png","../images/grn_prp.png","../images/red_prp.png","../images/cyn_red.png","../images/pnk_blu.png","../images/ylw_slt.png","../images/wht_red.png","../images/ylw_pnk.png","../images/org_blu.png","../images/grn_blu.png","../images/gry_blk.png"],"mutagen_generator_assignment":[1,0],"goal":6,"start":5,"action_noise":0.15,"location_history":"[5,10,7,8,5,9,1,5,10,2,6]","action_history":"[0,0,0,1,1,1,1,1,1,1]","mutagen_history":"[1,1,1,0,0,0,0,0,0,0]","location_rts":"[1464,976,523,400,387,467,460,1169,722,1181]","trial_type":"fractal-mutation","trial_index":58,"time_elapsed":4848437,"internal_node_id":"0.0-5.0-19.0"},{"group":"dicyclic group of order 12","fractal_assignment":["../images/blu_wht.png","../images/grn_red.png","../images/grn_prp.png","../images/red_prp.png","../images/cyn_red.png","../images/pnk_blu.png","../images/ylw_slt.png","../images/wht_red.png","../images/ylw_pnk.png","../images/org_blu.png","../images/grn_blu.png","../images/gry_blk.png"],"mutagen_generator_assignment":[1,0],"goal":3,"start":6,"action_noise":0.15,"location_history":"[6,10,7,8,5,9,1,2,3]","action_history":"[1,0,0,0,1,0,1,0]","mutagen_history":"[0,1,1,1,0,1,0,1]","location_rts":"[999,297,455,407,473,310,455,444]","trial_type":"fractal-mutation","trial_index":59,"time_elapsed":4864868,"internal_node_id":"0.0-5.0-20.0"},{"group":"dicyclic group of order 12","fractal_assignment":["../images/blu_wht.png","../images/grn_red.png","../images/grn_prp.png","../images/red_prp.png","../images/cyn_red.png","../images/pnk_blu.png","../images/ylw_slt.png","../images/wht_red.png","../images/ylw_pnk.png","../images/org_blu.png","../images/grn_blu.png","../images/gry_blk.png"],"mutagen_generator_assignment":[1,0],"goal":1,"start":3,"action_noise":0.15,"location_history":"[3,0,4,9,6,11,3,7,11,3,7,11,3,7,8,0,1]","action_history":"[0,1,0,0,0,1,1,1,1,1,1,1,1,0,1,0]","mutagen_history":"[1,0,1,1,1,0,0,0,0,0,0,0,0,1,0,1]","location_rts":"[1088,565,1080,463,425,396,331,290,451,1004,642,865,1105,217,607,393]","trial_type":"fractal-mutation","trial_index":60,"time_elapsed":4896519,"internal_node_id":"0.0-5.0-21.0"},{"group":"dicyclic group of order 12","fractal_assignment":["../images/blu_wht.png","../images/grn_red.png","../images/grn_prp.png","../images/red_prp.png","../images/cyn_red.png","../images/pnk_blu.png","../images/ylw_slt.png","../images/wht_red.png","../images/ylw_pnk.png","../images/org_blu.png","../images/grn_blu.png","../images/gry_blk.png"],"mutagen_generator_assignment":[1,0],"goal":9,"start":1,"action_noise":0.15,"location_history":"[1,5,9]","action_history":"[0,1]","mutagen_history":"[1,0]","location_rts":"[1685,643]","trial_type":"fractal-mutation","trial_index":61,"time_elapsed":4904595,"internal_node_id":"0.0-5.0-22.0"},{"group":"dicyclic group of order 12","fractal_assignment":["../images/blu_wht.png","../images/grn_red.png","../images/grn_prp.png","../images/red_prp.png","../images/cyn_red.png","../images/pnk_blu.png","../images/ylw_slt.png","../images/wht_red.png","../images/ylw_pnk.png","../images/org_blu.png","../images/grn_blu.png","../images/gry_blk.png"],"mutagen_generator_assignment":[1,0],"goal":3,"start":9,"action_noise":0.15,"location_history":"[9,1,2,3]","action_history":"[1,0,0]","mutagen_history":"[0,1,1]","location_rts":"[1617,443,535]","trial_type":"fractal-mutation","trial_index":62,"time_elapsed":4913997,"internal_node_id":"0.0-5.0-23.0"},{"group":"dicyclic group of order 12","fractal_assignment":["../images/blu_wht.png","../images/grn_red.png","../images/grn_prp.png","../images/red_prp.png","../images/cyn_red.png","../images/pnk_blu.png","../images/ylw_slt.png","../images/wht_red.png","../images/ylw_pnk.png","../images/org_blu.png","../images/grn_blu.png","../images/gry_blk.png"],"mutagen_generator_assignment":[1,0],"goal":4,"start":3,"action_noise":0.15,"location_history":"[3,7,8,5,10,2,3,0,4]","action_history":"[1,0,0,0,1,0,0,0]","mutagen_history":"[0,1,1,1,0,1,1,1]","location_rts":"[590,378,545,420,412,537,452,439]","trial_type":"fractal-mutation","trial_index":63,"time_elapsed":4930564,"internal_node_id":"0.0-5.0-24.0"},{"group":"dicyclic group of order 12","fractal_assignment":["../images/blu_wht.png","../images/grn_red.png","../images/grn_prp.png","../images/red_prp.png","../images/cyn_red.png","../images/pnk_blu.png","../images/ylw_slt.png","../images/wht_red.png","../images/ylw_pnk.png","../images/org_blu.png","../images/grn_blu.png","../images/gry_blk.png"],"mutagen_generator_assignment":[1,0],"goal":2,"start":4,"action_noise":0.15,"location_history":"[4,8,0,4,8,0,4,8,5,10,2]","action_history":"[1,0,0,1,0,1,1,0,0,1]","mutagen_history":"[0,1,1,0,1,0,0,1,1,0]","location_rts":"[710,585,438,156,481,340,1018,290,618,639]","trial_type":"fractal-mutation","trial_index":64,"time_elapsed":4950668,"internal_node_id":"0.0-5.0-25.0"},{"group":"dicyclic group of order 12","fractal_assignment":["../images/blu_wht.png","../images/grn_red.png","../images/grn_prp.png","../images/red_prp.png","../images/cyn_red.png","../images/pnk_blu.png","../images/ylw_slt.png","../images/wht_red.png","../images/ylw_pnk.png","../images/org_blu.png","../images/grn_blu.png","../images/gry_blk.png"],"mutagen_generator_assignment":[1,0],"goal":1,"start":2,"action_noise":0.15,"location_history":"[2,6,11,4,8,5,9,1]","action_history":"[1,0,0,1,0,1,1]","mutagen_history":"[0,1,1,0,1,0,0]","location_rts":"[1728,475,433,558,422,684,665]","trial_type":"fractal-mutation","trial_index":65,"time_elapsed":4967102,"internal_node_id":"0.0-5.0-26.0"},{"group":"dicyclic group of order 12","fractal_assignment":["../images/blu_wht.png","../images/grn_red.png","../images/grn_prp.png","../images/red_prp.png","../images/cyn_red.png","../images/pnk_blu.png","../images/ylw_slt.png","../images/wht_red.png","../images/ylw_pnk.png","../images/org_blu.png","../images/grn_blu.png","../images/gry_blk.png"],"mutagen_generator_assignment":[1,0],"goal":8,"start":1,"action_noise":0.15,"location_history":"[1,2,3,0,4,8]","action_history":"[0,1,0,1,1]","mutagen_history":"[1,0,1,0,0]","location_rts":"[461,719,1047,526,1000]","trial_type":"fractal-mutation","trial_index":66,"time_elapsed":4980053,"internal_node_id":"0.0-5.0-27.0"},{"group":"dicyclic group of order 12","fractal_assignment":["../images/blu_wht.png","../images/grn_red.png","../images/grn_prp.png","../images/red_prp.png","../images/cyn_red.png","../images/pnk_blu.png","../images/ylw_slt.png","../images/wht_red.png","../images/ylw_pnk.png","../images/org_blu.png","../images/grn_blu.png","../images/gry_blk.png"],"mutagen_generator_assignment":[1,0],"goal":10,"start":8,"action_noise":0.15,"location_history":"[8,5,9,6,10]","action_history":"[0,1,0,1]","mutagen_history":"[1,0,1,0]","location_rts":"[1341,739,552,538]","trial_type":"fractal-mutation","trial_index":67,"time_elapsed":4991273,"internal_node_id":"0.0-5.0-28.0"},{"group":"dicyclic group of order 12","fractal_assignment":["../images/blu_wht.png","../images/grn_red.png","../images/grn_prp.png","../images/red_prp.png","../images/cyn_red.png","../images/pnk_blu.png","../images/ylw_slt.png","../images/wht_red.png","../images/ylw_pnk.png","../images/org_blu.png","../images/grn_blu.png","../images/gry_blk.png"],"mutagen_generator_assignment":[1,0],"goal":7,"start":10,"action_noise":0.15,"location_history":"[10,2,3,0,4,9,6,11,3,7]","action_history":"[1,0,0,1,0,0,0,1,1]","mutagen_history":"[0,1,1,0,1,1,1,0,0]","location_rts":"[465,306,458,326,518,1310,821,631,887]","trial_type":"fractal-mutation","trial_index":68,"time_elapsed":5010763,"internal_node_id":"0.0-5.0-29.0"},{"group":"dicyclic group of order 12","fractal_assignment":["../images/blu_wht.png","../images/grn_red.png","../images/grn_prp.png","../images/red_prp.png","../images/cyn_red.png","../images/pnk_blu.png","../images/ylw_slt.png","../images/wht_red.png","../images/ylw_pnk.png","../images/org_blu.png","../images/grn_blu.png","../images/gry_blk.png"],"mutagen_generator_assignment":[1,0],"goal":6,"start":7,"action_noise":0.15,"location_history":"[7,8,0,1,2,6]","action_history":"[0,1,0,0,1]","mutagen_history":"[1,0,1,1,0]","location_rts":"[671,4057,1554,770,1808]","trial_type":"fractal-mutation","trial_index":69,"time_elapsed":5028898,"internal_node_id":"0.0-5.0-30.0"},{"group":"dicyclic group of order 12","fractal_assignment":["../images/blu_wht.png","../images/grn_red.png","../images/grn_prp.png","../images/red_prp.png","../images/cyn_red.png","../images/pnk_blu.png","../images/ylw_slt.png","../images/wht_red.png","../images/ylw_pnk.png","../images/org_blu.png","../images/grn_blu.png","../images/gry_blk.png"],"mutagen_generator_assignment":[1,0],"goal":0,"start":6,"action_noise":0.15,"location_history":"[6,10,7,8,5,10,2,3,0]","action_history":"[0,0,0,0,0,1,0,0]","mutagen_history":"[1,1,1,1,1,0,1,1]","location_rts":"[1241,420,488,492,472,556,231,436]","trial_type":"fractal-mutation","trial_index":70,"time_elapsed":5046058,"internal_node_id":"0.0-5.0-31.0"},{"group":"dicyclic group of order 12","fractal_assignment":["../images/blu_wht.png","../images/grn_red.png","../images/grn_prp.png","../images/red_prp.png","../images/cyn_red.png","../images/pnk_blu.png","../images/ylw_slt.png","../images/wht_red.png","../images/ylw_pnk.png","../images/org_blu.png","../images/grn_blu.png","../images/gry_blk.png"],"mutagen_generator_assignment":[1,0],"goal":11,"start":0,"action_noise":0.15,"location_history":"[0,4,9,6,10,2,6,11]","action_history":"[1,0,0,1,1,1,0]","mutagen_history":"[0,1,1,0,0,0,1]","location_rts":"[728,305,382,302,308,447,272]","trial_type":"fractal-mutation","trial_index":71,"time_elapsed":5060210,"internal_node_id":"0.0-5.0-32.0"},{"group":"dicyclic group of order 12","fractal_assignment":["../images/blu_wht.png","../images/grn_red.png","../images/grn_prp.png","../images/red_prp.png","../images/cyn_red.png","../images/pnk_blu.png","../images/ylw_slt.png","../images/wht_red.png","../images/ylw_pnk.png","../images/org_blu.png","../images/grn_blu.png","../images/gry_blk.png"],"mutagen_generator_assignment":[1,0],"goal":9,"start":11,"action_noise":0.15,"location_history":"[11,3,0,1,5,9]","action_history":"[1,0,0,1,1]","mutagen_history":"[0,1,1,0,0]","location_rts":"[592,395,326,1181,446]","trial_type":"fractal-mutation","trial_index":72,"time_elapsed":5072285,"internal_node_id":"0.0-5.0-33.0"},{"group":"dicyclic group of order 12","fractal_assignment":["../images/blu_wht.png","../images/grn_red.png","../images/grn_prp.png","../images/red_prp.png","../images/cyn_red.png","../images/pnk_blu.png","../images/ylw_slt.png","../images/wht_red.png","../images/ylw_pnk.png","../images/org_blu.png","../images/grn_blu.png","../images/gry_blk.png"],"mutagen_generator_assignment":[1,0],"goal":5,"start":9,"action_noise":0.15,"location_history":"[9,6,11,3,7,8,0,4,9,1,2,3,7,11,4,9,6,11,3,7,8,5]","action_history":"[0,0,1,1,0,1,0,0,1,0,0,1,1,0,0,0,0,1,0,0,0]","mutagen_history":"[1,1,0,0,1,0,1,1,0,1,1,0,0,1,1,1,1,0,1,1,1]","location_rts":"[1206,288,307,615,364,349,337,556,947,506,857,401,894,302,496,250,793,373,375,300,730]","trial_type":"fractal-mutation","trial_index":73,"time_elapsed":5111442,"internal_node_id":"0.0-5.0-34.0"},{"view_history":"[{\"page_index\":0,\"viewing_time\":10699}]","rt":10699,"trial_type":"instructions","trial_index":74,"time_elapsed":5123142,"internal_node_id":"0.0-6.0"},{"rt":4363,"responses":"{\"Q0\":\"\"}","trial_type":"survey-text","trial_index":75,"time_elapsed":5128514,"internal_node_id":"0.0-7.0"}]