[{"view_history":"[{\"page_index\":0,\"viewing_time\":6158},{\"page_index\":1,\"viewing_time\":2054}]","rt":8213,"trial_type":"instructions","trial_index":0,"time_elapsed":8214,"internal_node_id":"0.0-0.0"},{"view_history":"[{\"page_index\":0,\"viewing_time\":1901},{\"page_index\":1,\"viewing_time\":1032}]","rt":2934,"trial_type":"instructions","trial_index":1,"time_elapsed":12149,"internal_node_id":"0.0-1.0"},{"group":"dicyclic group of order 12","room_assignment":["ivory","olive","cyan","brown","purple","pink","green","yellow","orange","grey","red","blue"],"door_color_assignment":["white","black"],"door_generator_assignment":[0,1],"goal":7,"start":11,"action_noise":0.15,"location_history":"[11,3,7]","action_history":"[1,1]","door_history":"[1,1]","location_rts":"[5306,765]","trial_type":"two-door-navigation","trial_index":2,"time_elapsed":23781,"internal_node_id":"0.0-2.0-0.0"},{"group":"dicyclic group of order 12","room_assignment":["ivory","olive","cyan","brown","purple","pink","green","yellow","orange","grey","red","blue"],"door_color_assignment":["white","black"],"door_generator_assignment":[0,1],"goal":8,"start":7,"action_noise":0.15,"location_history":"[7,8]","action_history":"[0]","door_history":"[0]","location_rts":"[1598]","trial_type":"two-door-navigation","trial_index":3,"time_elapsed":29903,"internal_node_id":"0.0-2.0-1.0"},{"group":"dicyclic group of order 12","room_assignment":["ivory","olive","cyan","brown","purple","pink","green","yellow","orange","grey","red","blue"],"door_color_assignment":["white","black"],"door_generator_assignment":[0,1],"goal":4,"start":8,"action_noise":0.15,"location_history":"[8,0,4]","action_history":"[1,1]","door_history":"[1,1]","location_rts":"[1158,1406]","trial_type":"two-door-navigation","trial_index":4,"time_elapsed":38014,"internal_node_id":"0.0-2.0-2.0"},{"group":"dicyclic group of order 12","room_assignment":["ivory","olive","cyan","brown","purple","pink","green","yellow","orange","grey","red","blue"],"door_color_assignment":["white","black"],"door_generator_assignment":[0,1],"goal":5,"start":4,"action_noise":0.15,"location_history":"[4,9,6,11,3,7,8,0,1,2,3,7,11,3,7,8,0,4,8,5]","action_history":"[0,0,0,1,1,0,1,0,0,0,1,1,1,1,0,0,1,1,0]","door_history":"[0,0,0,1,1,0,1,0,0,0,1,1,1,1,0,0,1,1,0]","location_rts":"[941,309,352,364,310,877,653,795,415,382,613,294,538,499,524,1230,549,729,748]","trial_type":"two-door-navigation","trial_index":5,"time_elapsed":72026,"internal_node_id":"0.0-2.0-3.0"},{"group":"dicyclic group of order 12","room_assignment":["ivory","olive","cyan","brown","purple","pink","green","yellow","orange","grey","red","blue"],"door_color_assignment":["white","black"],"door_generator_assignment":[0,1],"goal":10,"start":5,"action_noise":0.15,"location_history":"[5,9,1,5,9,1,5,10]","action_history":"[1,1,1,0,1,1,1]","door_history":"[1,1,1,0,1,1,1]","location_rts":"[1243,338,499,353,422,318,482]","trial_type":"two-door-navigation","trial_index":6,"time_elapsed":86323,"internal_node_id":"0.0-2.0-4.0"},{"group":"dicyclic group of order 12","room_assignment":["ivory","olive","cyan","brown","purple","pink","green","yellow","orange","grey","red","blue"],"door_color_assignment":["white","black"],"door_generator_assignment":[0,1],"goal":1,"start":10,"action_noise":0.15,"location_history":"[10,7,8,5,9,1]","action_history":"[0,0,0,1,1]","door_history":"[0,0,0,1,1]","location_rts":"[1226,569,383,372,387]","trial_type":"two-door-navigation","trial_index":7,"time_elapsed":97856,"internal_node_id":"0.0-2.0-5.0"},{"group":"dicyclic group of order 12","room_assignment":["ivory","olive","cyan","brown","purple","pink","green","yellow","orange","grey","red","blue"],"door_color_assignment":["white","black"],"door_generator_assignment":[0,1],"goal":6,"start":1,"action_noise":0.15,"location_history":"[1,5,9,6]","action_history":"[1,0,0]","door_history":"[1,0,0]","location_rts":"[1244,325,238]","trial_type":"two-door-navigation","trial_index":8,"time_elapsed":106221,"internal_node_id":"0.0-2.0-6.0"},{"group":"dicyclic group of order 12","room_assignment":["ivory","olive","cyan","brown","purple","pink","green","yellow","orange","grey","red","blue"],"door_color_assignment":["white","black"],"door_generator_assignment":[0,1],"goal":9,"start":6,"action_noise":0.15,"location_history":"[6,10,2,3,0,1,5,10,7,11,4,8,5,9]","action_history":"[1,1,1,0,0,1,0,0,0,0,1,1,1]","door_history":"[1,1,1,0,0,1,0,0,0,0,1,1,1]","location_rts":"[1160,266,497,651,377,1037,706,347,418,426,917,347,388]","trial_type":"two-door-navigation","trial_index":9,"time_elapsed":130517,"internal_node_id":"0.0-2.0-7.0"},{"group":"dicyclic group of order 12","room_assignment":["ivory","olive","cyan","brown","purple","pink","green","yellow","orange","grey","red","blue"],"door_color_assignment":["white","black"],"door_generator_assignment":[0,1],"goal":2,"start":9,"action_noise":0.15,"location_history":"[9,1,5,9,1,2]","action_history":"[1,1,1,0,0]","door_history":"[1,1,1,0,0]","location_rts":"[1503,347,760,1190,264]","trial_type":"two-door-navigation","trial_index":10,"time_elapsed":143178,"internal_node_id":"0.0-2.0-8.0"},{"group":"dicyclic group of order 12","room_assignment":["ivory","olive","cyan","brown","purple","pink","green","yellow","orange","grey","red","blue"],"door_color_assignment":["white","black"],"door_generator_assignment":[0,1],"goal":0,"start":2,"action_noise":0.15,"location_history":"[2,3,0]","action_history":"[0,0]","door_history":"[0,0]","location_rts":"[1587,295]","trial_type":"two-door-navigation","trial_index":11,"time_elapsed":150602,"internal_node_id":"0.0-2.0-9.0"},{"group":"dicyclic group of order 12","room_assignment":["ivory","olive","cyan","brown","purple","pink","green","yellow","orange","grey","red","blue"],"door_color_assignment":["white","black"],"door_generator_assignment":[0,1],"goal":3,"start":0,"action_noise":0.15,"location_history":"[0,4,8,0,1,5,9,6,10,7,8,5,9,1,2,6,11,4,8,0,1,5,9,1,5,9,1,2,6,11,3]","action_history":"[1,1,1,0,1,1,0,1,1,0,1,1,1,1,0,0,0,1,1,0,1,1,1,1,1,1,0,1,0,0]","door_history":"[1,1,1,0,1,1,0,1,1,0,1,1,1,1,0,0,0,1,1,0,1,1,1,1,1,1,0,1,0,0]","location_rts":"[746,317,635,294,394768,349,1066,755,1904,1492,903,564,1845,310,1014,695,596,951,1226,703,793,519,596,199,342,506,53,1233,688,858]","trial_type":"two-door-navigation","trial_index":12,"time_elapsed":602379,"internal_node_id":"0.0-2.0-10.0"},{"group":"dicyclic group of order 12","room_assignment":["ivory","olive","cyan","brown","purple","pink","green","yellow","orange","grey","red","blue"],"door_color_assignment":["white","black"],"door_generator_assignment":[0,1],"goal":10,"start":3,"action_noise":0.15,"location_history":"[3,7,11,4,9,1,5,9,6,11,4,8,0,1,2,3,0,4,9,1,5,9,6,11,4,9,1,2,6,11,3,7,8,5,9,1,5,9,6,10]","action_history":"[1,1,0,1,1,1,1,0,0,0,1,1,0,0,0,1,1,0,1,1,0,0,0,1,0,0,0,0,1,1,1,0,0,1,1,1,1,1,1]","door_history":"[1,1,0,1,1,1,1,0,0,0,1,1,0,0,0,1,1,0,1,1,0,0,0,1,0,0,0,0,1,1,1,0,0,1,1,1,1,1,1]","location_rts":"[710708,395,757,613,1229,242,509,2934,73,1268,696660,587,776,373,390,552,628,1292,860,172,1071,837,478,939,758,595,78,70,703,658,1199,1061,1778,851,543,693,442,662,123]","trial_type":"two-door-navigation","trial_index":13,"time_elapsed":2080184,"internal_node_id":"0.0-2.0-11.0"},{"group":"dicyclic group of order 12","room_assignment":["ivory","olive","cyan","brown","purple","pink","green","yellow","orange","grey","red","blue"],"door_color_assignment":["white","black"],"door_generator_assignment":[0,1],"goal":8,"start":10,"action_noise":0.15,"location_history":"[10,7,11,3,7,11,3,7,11,4,9,6,10,7,11,4,9,6,11,3,0,4,8]","action_history":"[0,0,1,1,1,1,1,1,0,0,0,1,0,0,0,0,0,0,1,0,1,1]","door_history":"[0,0,1,1,1,1,1,1,0,0,0,1,0,0,0,0,0,0,1,0,1,1]","location_rts":"[1038,772,620,460,976,619,904,632,225,285,878,130,534,476,126,381,784,463,763,1379,1739,903]","trial_type":"two-door-navigation","trial_index":14,"time_elapsed":2121202,"internal_node_id":"0.0-2.0-12.0"},{"group":"dicyclic group of order 12","room_assignment":["ivory","olive","cyan","brown","purple","pink","green","yellow","orange","grey","red","blue"],"door_color_assignment":["white","black"],"door_generator_assignment":[0,1],"goal":4,"start":8,"action_noise":0.15,"location_history":"[8,5,10,2,6,10,7,8,5,9,6,11,3,0,4]","action_history":"[1,0,1,1,1,0,0,0,1,0,0,0,0,1]","door_history":"[1,0,1,1,1,0,0,0,1,0,0,0,0,1]","location_rts":"[1397,814,586,82,402,725,110,497,733,614,81,103299,15,454]","trial_type":"two-door-navigation","trial_index":15,"time_elapsed":2248784,"internal_node_id":"0.0-2.0-13.0"},{"group":"dicyclic group of order 12","room_assignment":["ivory","olive","cyan","brown","purple","pink","green","yellow","orange","grey","red","blue"],"door_color_assignment":["white","black"],"door_generator_assignment":[0,1],"goal":0,"start":4,"action_noise":0.15,"location_history":"[4,9,6,10,7,8,0]","action_history":"[0,0,1,0,0,0]","door_history":"[0,0,1,0,0,0]","location_rts":"[1688,130,181,486,376,403]","trial_type":"two-door-navigation","trial_index":16,"time_elapsed":2262379,"internal_node_id":"0.0-2.0-14.0"},{"group":"dicyclic group of order 12","room_assignment":["ivory","olive","cyan","brown","purple","pink","green","yellow","orange","grey","red","blue"],"door_color_assignment":["white","black"],"door_generator_assignment":[0,1],"goal":11,"start":0,"action_noise":0.15,"location_history":"[0,4,9,6,11]","action_history":"[1,1,0,0]","door_history":"[1,1,0,0]","location_rts":"[1102,1328,475,499]","trial_type":"two-door-navigation","trial_index":17,"time_elapsed":2273370,"internal_node_id":"0.0-2.0-15.0"},{"group":"dicyclic group of order 12","room_assignment":["ivory","olive","cyan","brown","purple","pink","green","yellow","orange","grey","red","blue"],"door_color_assignment":["white","black"],"door_generator_assignment":[0,1],"goal":2,"start":11,"action_noise":0.15,"location_history":"[11,3,7,8,5,10,2]","action_history":"[1,1,0,0,0,1]","door_history":"[1,1,0,0,0,1]","location_rts":"[1254,1352,532,483,410,692]","trial_type":"two-door-navigation","trial_index":18,"time_elapsed":2287723,"internal_node_id":"0.0-2.0-16.0"},{"group":"dicyclic group of order 12","room_assignment":["ivory","olive","cyan","brown","purple","pink","green","yellow","orange","grey","red","blue"],"door_color_assignment":["white","black"],"door_generator_assignment":[0,1],"goal":7,"start":2,"action_noise":0.15,"location_history":"[2,3,7]","action_history":"[1,1]","door_history":"[1,1]","location_rts":"[917,401]","trial_type":"two-door-navigation","trial_index":19,"time_elapsed":2294586,"internal_node_id":"0.0-2.0-17.0"},{"group":"dicyclic group of order 12","room_assignment":["ivory","olive","cyan","brown","purple","pink","green","yellow","orange","grey","red","blue"],"door_color_assignment":["white","black"],"door_generator_assignment":[0,1],"goal":5,"start":7,"action_noise":0.15,"location_history":"[7,8,5]","action_history":"[0,0]","door_history":"[0,0]","location_rts":"[805,293]","trial_type":"two-door-navigation","trial_index":20,"time_elapsed":2301230,"internal_node_id":"0.0-2.0-18.0"},{"group":"dicyclic group of order 12","room_assignment":["ivory","olive","cyan","brown","purple","pink","green","yellow","orange","grey","red","blue"],"door_color_assignment":["white","black"],"door_generator_assignment":[0,1],"goal":6,"start":5,"action_noise":0.15,"location_history":"[5,9,1,5,9,6]","action_history":"[1,1,0,1,0]","door_history":"[1,1,0,1,0]","location_rts":"[881,341,791,92,731]","trial_type":"two-door-navigation","trial_index":21,"time_elapsed":2312667,"internal_node_id":"0.0-2.0-19.0"},{"group":"dicyclic group of order 12","room_assignment":["ivory","olive","cyan","brown","purple","pink","green","yellow","orange","grey","red","blue"],"door_color_assignment":["white","black"],"door_generator_assignment":[0,1],"goal":3,"start":6,"action_noise":0.15,"location_history":"[6,11,3]","action_history":"[0,1]","door_history":"[0,1]","location_rts":"[1278,583]","trial_type":"two-door-navigation","trial_index":22,"time_elapsed":2320067,"internal_node_id":"0.0-2.0-20.0"},{"group":"dicyclic group of order 12","room_assignment":["ivory","olive","cyan","brown","purple","pink","green","yellow","orange","grey","red","blue"],"door_color_assignment":["white","black"],"door_generator_assignment":[0,1],"goal":1,"start":3,"action_noise":0.15,"location_history":"[3,0,4,8,0,4,8,5,10,7,8,0,1]","action_history":"[0,1,1,1,1,1,0,0,0,0,1,0]","door_history":"[0,1,1,1,1,1,0,0,0,0,1,0]","location_rts":"[1331,981,305,412,744,454,180,83,454,487,576,789]","trial_type":"two-door-navigation","trial_index":23,"time_elapsed":2342594,"internal_node_id":"0.0-2.0-21.0"},{"group":"dicyclic group of order 12","room_assignment":["ivory","olive","cyan","brown","purple","pink","green","yellow","orange","grey","red","blue"],"door_color_assignment":["white","black"],"door_generator_assignment":[0,1],"goal":9,"start":1,"action_noise":0.15,"location_history":"[1,5,10,7,8,5,10,7,8,0,4,9]","action_history":"[1,0,0,0,0,0,0,0,0,1,0]","door_history":"[1,0,0,0,0,0,0,0,0,1,0]","location_rts":"[4784,557,376,358,372,399,354,414,462,681,545]","trial_type":"two-door-navigation","trial_index":24,"time_elapsed":2366620,"internal_node_id":"0.0-2.0-22.0"},{"group":"dicyclic group of order 12","room_assignment":["ivory","olive","cyan","brown","purple","pink","green","yellow","orange","grey","red","blue"],"door_color_assignment":["white","black"],"door_generator_assignment":[0,1],"goal":3,"start":9,"action_noise":0.15,"location_history":"[9,1,5,10,7,11,3]","action_history":"[1,1,1,0,1,1]","door_history":"[1,1,1,0,1,1]","location_rts":"[867,16745,329,997,462,610]","trial_type":"two-door-navigation","trial_index":25,"time_elapsed":2396251,"internal_node_id":"0.0-2.0-23.0"},{"group":"dicyclic group of order 12","room_assignment":["ivory","olive","cyan","brown","purple","pink","green","yellow","orange","grey","red","blue"],"door_color_assignment":["white","black"],"door_generator_assignment":[0,1],"goal":4,"start":3,"action_noise":0.15,"location_history":"[3,7,8,0,4]","action_history":"[1,0,1,1]","door_history":"[1,0,1,1]","location_rts":"[4085,942,480,554]","trial_type":"two-door-navigation","trial_index":26,"time_elapsed":2409889,"internal_node_id":"0.0-2.0-24.0"},{"group":"dicyclic group of order 12","room_assignment":["ivory","olive","cyan","brown","purple","pink","green","yellow","orange","grey","red","blue"],"door_color_assignment":["white","black"],"door_generator_assignment":[0,1],"goal":2,"start":4,"action_noise":0.15,"location_history":"[4,8,0,1,5,9,1,5,10,2]","action_history":"[1,0,0,0,1,1,1,1,1]","door_history":"[1,0,0,0,1,1,1,1,1]","location_rts":"[5504,356,698,799,500,463,414,512,1094]","trial_type":"two-door-navigation","trial_index":27,"time_elapsed":2432901,"internal_node_id":"0.0-2.0-25.0"},{"group":"dicyclic group of order 12","room_assignment":["ivory","olive","cyan","brown","purple","pink","green","yellow","orange","grey","red","blue"],"door_color_assignment":["white","black"],"door_generator_assignment":[0,1],"goal":1,"start":2,"action_noise":0.15,"location_history":"[2,6,11,3,0,4,8,5,10,7,8,0,4,9,6,10,2,3,7,11,4,9,1]","action_history":"[0,0,1,0,0,1,0,1,0,0,1,1,0,0,0,0,0,1,0,0,0,1]","door_history":"[0,0,1,0,0,1,0,1,0,0,1,1,0,0,0,0,0,1,0,0,0,1]","location_rts":"[860,454,747,798,389,1020,367,383,404,468,352,859,901,786,442,487,534,475,661,322,526,998]","trial_type":"two-door-navigation","trial_index":28,"time_elapsed":2472052,"internal_node_id":"0.0-2.0-26.0"},{"group":"dicyclic group of order 12","room_assignment":["ivory","olive","cyan","brown","purple","pink","green","yellow","orange","grey","red","blue"],"door_color_assignment":["white","black"],"door_generator_assignment":[0,1],"goal":8,"start":1,"action_noise":0.15,"location_history":"[1,2,6,10,7,8]","action_history":"[0,0,1,1,0]","door_history":"[0,0,1,1,0]","location_rts":"[1364,295,363,1243,524]","trial_type":"two-door-navigation","trial_index":29,"time_elapsed":2484449,"internal_node_id":"0.0-2.0-27.0"},{"group":"dicyclic group of order 12","room_assignment":["ivory","olive","cyan","brown","purple","pink","green","yellow","orange","grey","red","blue"],"door_color_assignment":["white","black"],"door_generator_assignment":[0,1],"goal":10,"start":8,"action_noise":0.15,"location_history":"[8,0,1,2,6,10]","action_history":"[1,1,0,0,1]","door_history":"[1,1,0,0,1]","location_rts":"[1177,354,28,135,485]","trial_type":"two-door-navigation","trial_index":30,"time_elapsed":2495227,"internal_node_id":"0.0-2.0-28.0"},{"group":"dicyclic group of order 12","room_assignment":["ivory","olive","cyan","brown","purple","pink","green","yellow","orange","grey","red","blue"],"door_color_assignment":["white","black"],"door_generator_assignment":[0,1],"goal":7,"start":10,"action_noise":0.15,"location_history":"[10,2,6,11,4,8,5,10,2,6,10,2,3,0,4,9,1,5,9,6,11,3,0,1,5,9,1,5,10,7]","action_history":"[1,1,0,0,1,0,0,1,1,1,1,0,1,1,0,1,1,1,0,0,1,0,0,1,1,1,1,0,0]","door_history":"[1,1,0,0,1,0,0,1,1,1,1,0,1,1,0,1,1,1,0,0,1,0,0,1,1,1,1,0,0]","location_rts":"[893,329,5467,323,959,561,337,350,279,326,332,790,684,673,361,535,25,489,107,114,504,432,9692,412,378,8836,260,206,443]","trial_type":"two-door-navigation","trial_index":31,"time_elapsed":2563400,"internal_node_id":"0.0-2.0-29.0"},{"group":"dicyclic group of order 12","room_assignment":["ivory","olive","cyan","brown","purple","pink","green","yellow","orange","grey","red","blue"],"door_color_assignment":["white","black"],"door_generator_assignment":[0,1],"goal":6,"start":7,"action_noise":0.15,"location_history":"[7,8,0,4,8,0,1,2,3,7,8,5,10,2,6]","action_history":"[0,1,1,1,1,0,0,0,1,1,0,0,1,1]","door_history":"[0,1,1,1,1,0,0,0,1,1,0,0,1,1]","location_rts":"[711,152,342,507,443,463,90,403,378,358,309,11,1999,77]","trial_type":"two-door-navigation","trial_index":32,"time_elapsed":2588378,"internal_node_id":"0.0-2.0-30.0"},{"group":"dicyclic group of order 12","room_assignment":["ivory","olive","cyan","brown","purple","pink","green","yellow","orange","grey","red","blue"],"door_color_assignment":["white","black"],"door_generator_assignment":[0,1],"goal":0,"start":6,"action_noise":0.15,"location_history":"[6,10,7,11,4,8,0]","action_history":"[0,0,0,1,1,1]","door_history":"[0,0,0,1,1,1]","location_rts":"[1948,485,537,29,132,378]","trial_type":"two-door-navigation","trial_index":33,"time_elapsed":2601516,"internal_node_id":"0.0-2.0-31.0"},{"group":"dicyclic group of order 12","room_assignment":["ivory","olive","cyan","brown","purple","pink","green","yellow","orange","grey","red","blue"],"door_color_assignment":["white","black"],"door_generator_assignment":[0,1],"goal":11,"start":0,"action_noise":0.15,"location_history":"[0,4,9,6,10,2,3,0,4,8,5,10,2,3,0,1,5,9,1,2,3,0,4,8,5,9,6,10,2,3,7,11]","action_history":"[0,0,0,1,1,0,0,0,1,1,0,1,0,0,0,0,1,1,1,1,0,1,1,0,0,0,1,1,0,1,1]","door_history":"[0,0,0,1,1,0,0,0,1,1,0,1,0,0,0,0,1,1,1,1,0,1,1,0,0,0,1,1,0,1,1]","location_rts":"[1085,308,1327,611,357,1575,317,275,899,924,594,464,140,74,409,367,435,140,96,957,1061,151,542,343,194,231,80,742,13399,166,117]","trial_type":"two-door-navigation","trial_index":34,"time_elapsed":2664980,"internal_node_id":"0.0-2.0-32.0"},{"group":"dicyclic group of order 12","room_assignment":["ivory","olive","cyan","brown","purple","pink","green","yellow","orange","grey","red","blue"],"door_color_assignment":["white","black"],"door_generator_assignment":[0,1],"goal":9,"start":11,"action_noise":0.15,"location_history":"[11,4,8,5,10,7,8,0,1,2,3,0,4,8,5,9]","action_history":"[0,1,1,0,0,0,1,0,0,0,0,1,0,0,1]","door_history":"[0,1,1,0,0,0,1,0,0,0,0,1,0,0,1]","location_rts":"[742,627,355,379,401,814,500,66,210,474,480,1061,1514,640,701]","trial_type":"two-door-navigation","trial_index":35,"time_elapsed":2692740,"internal_node_id":"0.0-2.0-33.0"},{"group":"dicyclic group of order 12","room_assignment":["ivory","olive","cyan","brown","purple","pink","green","yellow","orange","grey","red","blue"],"door_color_assignment":["white","black"],"door_generator_assignment":[0,1],"goal":5,"start":9,"action_noise":0.15,"location_history":"[9,6,11,4,8,0,4,8,5]","action_history":"[0,0,0,1,1,1,1,0]","door_history":"[0,0,0,1,1,1,1,0]","location_rts":"[987,2,509,381,316,508,505,576]","trial_type":"two-door-navigation","trial_index":36,"time_elapsed":2708192,"internal_node_id":"0.0-2.0-34.0"},{"view_history":"[{\"page_index\":0,\"viewing_time\":2256}]","rt":2257,"trial_type":"instructions","trial_index":37,"time_elapsed":2711449,"internal_node_id":"0.0-3.0"},{"view_history":"[{\"page_index\":0,\"viewing_time\":1336},{\"page_index\":1,\"viewing_time\":1502076}]","rt":1503412,"trial_type":"instructions","trial_index":38,"time_elapsed":4215860,"internal_node_id":"0.0-4.0"},{"group":"dihedral group of order 12","fractal_assignment":["../images/ylw_slt.png","../images/grn_red.png","../images/org_blu.png","../images/wht_red.png","../images/grn_prp.png","../images/gry_blk.png","../images/grn_blu.png","../images/blu_wht.png","../images/ylw_pnk.png","../images/pnk_blu.png","../images/cyn_red.png","../images/red_prp.png"],"mutagen_generator_assignment":[0,1],"goal":7,"start":11,"action_noise":0.15,"location_history":"[11,10,4,10,4,5,0,6,0,1,2,3,9,3,4,10,9,3,4,5,11,5,11,10,9,8,7]","action_history":"[0,1,1,1,0,0,1,1,0,0,0,1,1,0,1,1,1,0,0,1,1,1,0,0,0,0]","mutagen_history":"[0,1,1,1,0,0,1,1,0,0,0,1,1,0,1,1,1,0,0,1,1,1,0,0,0,0]","location_rts":"[4380,825,807,799,611,117,766,665,631,743,683,4873,681,642,706,171,100,136,152,1365,594,1197,601,387,471,426]","trial_type":"fractal-mutation","trial_index":39,"time_elapsed":4269758,"internal_node_id":"0.0-5.0-0.0"},{"group":"dihedral group of order 12","fractal_assignment":["../images/ylw_slt.png","../images/grn_red.png","../images/org_blu.png","../images/wht_red.png","../images/grn_prp.png","../images/gry_blk.png","../images/grn_blu.png","../images/blu_wht.png","../images/ylw_pnk.png","../images/pnk_blu.png","../images/cyn_red.png","../images/red_prp.png"],"mutagen_generator_assignment":[0,1],"goal":8,"start":7,"action_noise":0.15,"location_history":"[7,1,2,8]","action_history":"[1,0,1]","mutagen_history":"[1,0,1]","location_rts":"[1350,618,431]","trial_type":"fractal-mutation","trial_index":40,"time_elapsed":4278771,"internal_node_id":"0.0-5.0-1.0"},{"group":"dihedral group of order 12","fractal_assignment":["../images/ylw_slt.png","../images/grn_red.png","../images/org_blu.png","../images/wht_red.png","../images/grn_prp.png","../images/gry_blk.png","../images/grn_blu.png","../images/blu_wht.png","../images/ylw_pnk.png","../images/pnk_blu.png","../images/cyn_red.png","../images/red_prp.png"],"mutagen_generator_assignment":[0,1],"goal":4,"start":8,"action_noise":0.15,"location_history":"[8,2,8,7,6,11,5,0,6,0,1,2,3,4]","action_history":"[1,1,0,0,0,1,0,1,1,1,0,0,0]","mutagen_history":"[1,1,0,0,0,1,0,1,1,1,0,0,0]","location_rts":"[991,432,503,497,183,426,440,481,113,113,287,152,607]","trial_type":"fractal-mutation","trial_index":41,"time_elapsed":4300928,"internal_node_id":"0.0-5.0-2.0"},{"group":"dihedral group of order 12","fractal_assignment":["../images/ylw_slt.png","../images/grn_red.png","../images/org_blu.png","../images/wht_red.png","../images/grn_prp.png","../images/gry_blk.png","../images/grn_blu.png","../images/blu_wht.png","../images/ylw_pnk.png","../images/pnk_blu.png","../images/cyn_red.png","../images/red_prp.png"],"mutagen_generator_assignment":[0,1],"goal":5,"start":4,"action_noise":0.15,"location_history":"[4,10,4,5]","action_history":"[1,1,0]","mutagen_history":"[1,1,0]","location_rts":"[989,395,616]","trial_type":"fractal-mutation","trial_index":42,"time_elapsed":4309531,"internal_node_id":"0.0-5.0-3.0"},{"group":"dihedral group of order 12","fractal_assignment":["../images/ylw_slt.png","../images/grn_red.png","../images/org_blu.png","../images/wht_red.png","../images/grn_prp.png","../images/gry_blk.png","../images/grn_blu.png","../images/blu_wht.png","../images/ylw_pnk.png","../images/pnk_blu.png","../images/cyn_red.png","../images/red_prp.png"],"mutagen_generator_assignment":[0,1],"goal":10,"start":5,"action_noise":0.15,"location_history":"[5,0,1,2,8,2,3,9,8,7,6,11,5,11,5,0,1,2,3,9,3,4,10]","action_history":"[1,1,0,1,1,0,1,0,0,0,1,1,1,1,0,0,0,0,1,1,0,0]","mutagen_history":"[1,1,0,1,1,0,1,0,0,0,1,1,1,1,0,0,0,0,1,1,0,0]","location_rts":"[917,740,819,474,708,504,651,455,698,969,566,475,591,691,310,139,388,164,129,438,381,1335]","trial_type":"fractal-mutation","trial_index":43,"time_elapsed":4348165,"internal_node_id":"0.0-5.0-4.0"},{"group":"dihedral group of order 12","fractal_assignment":["../images/ylw_slt.png","../images/grn_red.png","../images/org_blu.png","../images/wht_red.png","../images/grn_prp.png","../images/gry_blk.png","../images/grn_blu.png","../images/blu_wht.png","../images/ylw_pnk.png","../images/pnk_blu.png","../images/cyn_red.png","../images/red_prp.png"],"mutagen_generator_assignment":[0,1],"goal":1,"start":10,"action_noise":0.15,"location_history":"[10,4,5,0,1]","action_history":"[1,0,0,0]","mutagen_history":"[1,0,0,0]","location_rts":"[1206,171,124,438]","trial_type":"fractal-mutation","trial_index":44,"time_elapsed":4357695,"internal_node_id":"0.0-5.0-5.0"},{"group":"dihedral group of order 12","fractal_assignment":["../images/ylw_slt.png","../images/grn_red.png","../images/org_blu.png","../images/wht_red.png","../images/grn_prp.png","../images/gry_blk.png","../images/grn_blu.png","../images/blu_wht.png","../images/ylw_pnk.png","../images/pnk_blu.png","../images/cyn_red.png","../images/red_prp.png"],"mutagen_generator_assignment":[0,1],"goal":6,"start":1,"action_noise":0.15,"location_history":"[1,2,8,7,1,7,1,2,8,2,3,9,3,4,10,9,3,4,10,4,5,11,5,0,1,7,1,2,3,9,3,4,10,4,10,4,5,11,5,11,10,4,10,9,8,7,6]","action_history":"[1,1,0,1,1,1,0,1,1,0,1,1,0,1,1,1,0,1,1,0,1,1,0,0,1,1,0,0,1,1,0,1,1,0,1,0,1,0,1,1,1,1,0,0,0,0]","mutagen_history":"[1,1,0,1,1,1,0,1,1,0,1,1,0,1,1,1,0,1,1,0,1,1,0,0,1,1,0,0,1,1,0,1,1,0,1,0,1,0,1,1,1,1,0,0,0,0]","location_rts":"[699,124,386,440,161,707,88,74,693,740,715,698,564,690,676,1132,624,1260,1027,794,693,882,463,469,191,583,429,156,382,466,107,338,58,76,434,182,180,451,54,30,523,720,819,838,1117,1006]","trial_type":"fractal-mutation","trial_index":45,"time_elapsed":4432592,"internal_node_id":"0.0-5.0-6.0"},{"group":"dihedral group of order 12","fractal_assignment":["../images/ylw_slt.png","../images/grn_red.png","../images/org_blu.png","../images/wht_red.png","../images/grn_prp.png","../images/gry_blk.png","../images/grn_blu.png","../images/blu_wht.png","../images/ylw_pnk.png","../images/pnk_blu.png","../images/cyn_red.png","../images/red_prp.png"],"mutagen_generator_assignment":[0,1],"goal":9,"start":6,"action_noise":0.15,"location_history":"[6,11,10,4,10,4,10,9]","action_history":"[0,1,1,1,1,1,0]","mutagen_history":"[0,1,1,1,1,1,0]","location_rts":"[1267,631,803,293,989,6843,827]","trial_type":"fractal-mutation","trial_index":46,"time_elapsed":4454964,"internal_node_id":"0.0-5.0-7.0"},{"group":"dihedral group of order 12","fractal_assignment":["../images/ylw_slt.png","../images/grn_red.png","../images/org_blu.png","../images/wht_red.png","../images/grn_prp.png","../images/gry_blk.png","../images/grn_blu.png","../images/blu_wht.png","../images/ylw_pnk.png","../images/pnk_blu.png","../images/cyn_red.png","../images/red_prp.png"],"mutagen_generator_assignment":[0,1],"goal":2,"start":9,"action_noise":0.15,"location_history":"[9,3,4,10,4,5,11,5,11,5,11,5,0,6,0,6,11,10,4,10,9,8,7,1,7,1,2]","action_history":"[1,0,1,1,0,1,1,0,1,1,1,0,0,1,1,0,1,1,1,0,0,0,1,1,1,0]","mutagen_history":"[1,0,1,1,0,1,1,0,1,1,1,0,0,1,1,0,1,1,1,0,0,0,1,1,1,0]","location_rts":"[2332,652,1686,118,444,377,195,386,280,67,585,448,2529,838,781,738,2254,230,711,717,361,753,504,411,776,1218]","trial_type":"fractal-mutation","trial_index":47,"time_elapsed":4505659,"internal_node_id":"0.0-5.0-8.0"},{"group":"dihedral group of order 12","fractal_assignment":["../images/ylw_slt.png","../images/grn_red.png","../images/org_blu.png","../images/wht_red.png","../images/grn_prp.png","../images/gry_blk.png","../images/grn_blu.png","../images/blu_wht.png","../images/ylw_pnk.png","../images/pnk_blu.png","../images/cyn_red.png","../images/red_prp.png"],"mutagen_generator_assignment":[0,1],"goal":0,"start":2,"action_noise":0.15,"location_history":"[2,8,7,6,11,10,4,10,9,3,4,10,4,10,4,10,9,3,9,8,7,1,2,3,4,10,9,3,4,5,0]","action_history":"[1,0,0,0,1,1,1,0,1,0,1,1,1,0,1,0,1,1,0,0,1,1,0,0,1,0,0,0,0,1]","mutagen_history":"[1,0,0,0,1,1,1,0,1,0,1,1,1,0,1,0,1,1,0,0,1,1,0,0,1,0,0,0,0,1]","location_rts":"[1136,713,757,701,453,292,157,129,1371,325,211,21,361,769,442,313,299,759,885,510,622,435,886,1034,764,782,109,841,1040,832]","trial_type":"fractal-mutation","trial_index":48,"time_elapsed":4558027,"internal_node_id":"0.0-5.0-9.0"},{"group":"dihedral group of order 12","fractal_assignment":["../images/ylw_slt.png","../images/grn_red.png","../images/org_blu.png","../images/wht_red.png","../images/grn_prp.png","../images/gry_blk.png","../images/grn_blu.png","../images/blu_wht.png","../images/ylw_pnk.png","../images/pnk_blu.png","../images/cyn_red.png","../images/red_prp.png"],"mutagen_generator_assignment":[0,1],"goal":3,"start":0,"action_noise":0.15,"location_history":"[0,6,11,5,0,6,0,6,0,1,2,8,7,6,0,6,11,5,11,5,0,1,7,6,11,5,0,1,7,6,0,6,0,1,2,3]","action_history":"[1,0,1,0,0,1,1,1,0,0,1,1,0,1,1,0,1,1,1,0,0,1,0,0,1,0,0,0,0,1,1,1,0,1,1]","mutagen_history":"[1,0,1,0,0,1,1,1,0,0,1,1,0,1,1,0,1,1,1,0,0,1,0,0,1,0,0,0,0,1,1,1,0,1,1]","location_rts":"[1191,879,624,1122,1129,636,666,531,548,4891,860,928,825,431,90,182,12,37,379,583,97,636,595,806,604,149,139,974,932,941,779,124,801,1426,1354]","trial_type":"fractal-mutation","trial_index":49,"time_elapsed":4624526,"internal_node_id":"0.0-5.0-10.0"},{"group":"dihedral group of order 12","fractal_assignment":["../images/ylw_slt.png","../images/grn_red.png","../images/org_blu.png","../images/wht_red.png","../images/grn_prp.png","../images/gry_blk.png","../images/grn_blu.png","../images/blu_wht.png","../images/ylw_pnk.png","../images/pnk_blu.png","../images/cyn_red.png","../images/red_prp.png"],"mutagen_generator_assignment":[0,1],"goal":10,"start":3,"action_noise":0.15,"location_history":"[3,9,3,9,8,2,8,7,1,2,3,4,10]","action_history":"[1,1,0,0,0,0,1,1,0,0,0,1]","mutagen_history":"[1,1,0,0,0,0,1,1,0,0,0,1]","location_rts":"[1085,72,607,679,734,955,35,849,529,141,548,1105]","trial_type":"fractal-mutation","trial_index":50,"time_elapsed":4647731,"internal_node_id":"0.0-5.0-11.0"},{"group":"dihedral group of order 12","fractal_assignment":["../images/ylw_slt.png","../images/grn_red.png","../images/org_blu.png","../images/wht_red.png","../images/grn_prp.png","../images/gry_blk.png","../images/grn_blu.png","../images/blu_wht.png","../images/ylw_pnk.png","../images/pnk_blu.png","../images/cyn_red.png","../images/red_prp.png"],"mutagen_generator_assignment":[0,1],"goal":8,"start":10,"action_noise":0.15,"location_history":"[10,4,5,11,10,4,10,4,5,0,1,7,6,0,6,11,5,0,6,0,6,11,10,4,10,9,8]","action_history":"[0,0,1,0,1,1,1,0,0,0,1,0,1,1,0,1,0,1,1,0,0,0,1,1,1,0]","mutagen_history":"[0,0,1,0,1,1,1,0,0,0,1,0,1,1,0,1,0,1,1,0,0,0,1,1,1,0]","location_rts":"[167,297,399,495,713,216,352,60,46,506,548,415,409,743,264,347,79,162,2909,97,27,13,444,97,43,54]","trial_type":"fractal-mutation","trial_index":51,"time_elapsed":4687957,"internal_node_id":"0.0-5.0-12.0"},{"group":"dihedral group of order 12","fractal_assignment":["../images/ylw_slt.png","../images/grn_red.png","../images/org_blu.png","../images/wht_red.png","../images/grn_prp.png","../images/gry_blk.png","../images/grn_blu.png","../images/blu_wht.png","../images/ylw_pnk.png","../images/pnk_blu.png","../images/cyn_red.png","../images/red_prp.png"],"mutagen_generator_assignment":[0,1],"goal":4,"start":8,"action_noise":0.15,"location_history":"[8,2,8,7,1,2,3,9,8,2,3,9,8,2,8,2,8,2,8,7,6,0,1,2,8,2,3,9,8,7,6,11,5,11,10,9,3,4]","action_history":"[0,1,0,0,0,1,1,0,1,1,1,0,1,1,1,1,1,0,0,1,1,0,0,1,1,0,0,0,0,0,0,1,1,0,0,1,0]","mutagen_history":"[0,1,0,0,0,1,1,0,1,1,1,0,1,1,1,1,1,0,0,1,1,0,0,1,1,0,0,0,0,0,0,1,1,0,0,1,0]","location_rts":"[285,156,167,108,384,897,778,258,179,45,66,28,431,102,79,1243,727,157,801,1076,800,483,658,584,105,577,541,935,636,170,952,1143,882,816,240,1388,198]","trial_type":"fractal-mutation","trial_index":52,"time_elapsed":4748683,"internal_node_id":"0.0-5.0-13.0"},{"group":"dihedral group of order 12","fractal_assignment":["../images/ylw_slt.png","../images/grn_red.png","../images/org_blu.png","../images/wht_red.png","../images/grn_prp.png","../images/gry_blk.png","../images/grn_blu.png","../images/blu_wht.png","../images/ylw_pnk.png","../images/pnk_blu.png","../images/cyn_red.png","../images/red_prp.png"],"mutagen_generator_assignment":[0,1],"goal":0,"start":4,"action_noise":0.15,"location_history":"[4,10,4,10,9,8,7,1,7,6,11,5,11,5,0]","action_history":"[0,1,1,0,0,0,1,1,0,0,1,1,1,0]","mutagen_history":"[0,1,1,0,0,0,1,1,0,0,1,1,1,0]","location_rts":"[120,68,48,953,131,543,84,778,812,469,86,136,21,38]","trial_type":"fractal-mutation","trial_index":53,"time_elapsed":4770901,"internal_node_id":"0.0-5.0-14.0"},{"group":"dihedral group of order 12","fractal_assignment":["../images/ylw_slt.png","../images/grn_red.png","../images/org_blu.png","../images/wht_red.png","../images/grn_prp.png","../images/gry_blk.png","../images/grn_blu.png","../images/blu_wht.png","../images/ylw_pnk.png","../images/pnk_blu.png","../images/cyn_red.png","../images/red_prp.png"],"mutagen_generator_assignment":[0,1],"goal":11,"start":0,"action_noise":0.15,"location_history":"[0,6,11]","action_history":"[1,0]","mutagen_history":"[1,0]","location_rts":"[598,383]","trial_type":"fractal-mutation","trial_index":54,"time_elapsed":4777445,"internal_node_id":"0.0-5.0-15.0"},{"group":"dihedral group of order 12","fractal_assignment":["../images/ylw_slt.png","../images/grn_red.png","../images/org_blu.png","../images/wht_red.png","../images/grn_prp.png","../images/gry_blk.png","../images/grn_blu.png","../images/blu_wht.png","../images/ylw_pnk.png","../images/pnk_blu.png","../images/cyn_red.png","../images/red_prp.png"],"mutagen_generator_assignment":[0,1],"goal":2,"start":11,"action_noise":0.15,"location_history":"[11,5,11,5,0,1,2]","action_history":"[0,1,1,1,0,0]","mutagen_history":"[0,1,1,1,0,0]","location_rts":"[54,394,702,928,756,1082]","trial_type":"fractal-mutation","trial_index":55,"time_elapsed":4791059,"internal_node_id":"0.0-5.0-16.0"},{"group":"dihedral group of order 12","fractal_assignment":["../images/ylw_slt.png","../images/grn_red.png","../images/org_blu.png","../images/wht_red.png","../images/grn_prp.png","../images/gry_blk.png","../images/grn_blu.png","../images/blu_wht.png","../images/ylw_pnk.png","../images/pnk_blu.png","../images/cyn_red.png","../images/red_prp.png"],"mutagen_generator_assignment":[0,1],"goal":7,"start":2,"action_noise":0.15,"location_history":"[2,3,9,8,2,8,2,8,7]","action_history":"[0,1,0,1,1,1,0,0]","mutagen_history":"[0,1,0,1,1,1,0,0]","location_rts":"[222,130,433,164,316,21,374,53]","trial_type":"fractal-mutation","trial_index":56,"time_elapsed":4804523,"internal_node_id":"0.0-5.0-17.0"},{"group":"dihedral group of order 12","fractal_assignment":["../images/ylw_slt.png","../images/grn_red.png","../images/org_blu.png","../images/wht_red.png","../images/grn_prp.png","../images/gry_blk.png","../images/grn_blu.png","../images/blu_wht.png","../images/ylw_pnk.png","../images/pnk_blu.png","../images/cyn_red.png","../images/red_prp.png"],"mutagen_generator_assignment":[0,1],"goal":5,"start":7,"action_noise":0.15,"location_history":"[7,1,2,8,7,6,0,6,0,6,11,10,4,10,9,8,2,3,9,3,4,5]","action_history":"[1,0,1,0,0,1,0,1,1,0,0,1,1,0,0,1,0,1,1,0,0]","mutagen_history":"[1,0,1,0,0,1,0,1,1,0,0,1,1,0,0,1,0,1,1,0,0]","location_rts":"[199,41,342,128,47,717,145,792,71,941,93,315,532,647,965,78,387,66,42,687,599]","trial_type":"fractal-mutation","trial_index":57,"time_elapsed":4837505,"internal_node_id":"0.0-5.0-18.0"},{"group":"dihedral group of order 12","fractal_assignment":["../images/ylw_slt.png","../images/grn_red.png","../images/org_blu.png","../images/wht_red.png","../images/grn_prp.png","../images/gry_blk.png","../images/grn_blu.png","../images/blu_wht.png","../images/ylw_pnk.png","../images/pnk_blu.png","../images/cyn_red.png","../images/red_prp.png"],"mutagen_generator_assignment":[0,1],"goal":6,"start":5,"action_noise":0.15,"location_history":"[5,0,6]","action_history":"[0,1]","mutagen_history":"[0,1]","location_rts":"[395,55]","trial_type":"fractal-mutation","trial_index":58,"time_elapsed":4843518,"internal_node_id":"0.0-5.0-19.0"},{"group":"dihedral group of order 12","fractal_assignment":["../images/ylw_slt.png","../images/grn_red.png","../images/org_blu.png","../images/wht_red.png","../images/grn_prp.png","../images/gry_blk.png","../images/grn_blu.png","../images/blu_wht.png","../images/ylw_pnk.png","../images/pnk_blu.png","../images/cyn_red.png","../images/red_prp.png"],"mutagen_generator_assignment":[0,1],"goal":3,"start":6,"action_noise":0.15,"location_history":"[6,0,1,2,3]","action_history":"[1,0,0,1]","mutagen_history":"[1,0,0,1]","location_rts":"[310,167,415,734]","trial_type":"fractal-mutation","trial_index":59,"time_elapsed":4852761,"internal_node_id":"0.0-5.0-20.0"},{"group":"dihedral group of order 12","fractal_assignment":["../images/ylw_slt.png","../images/grn_red.png","../images/org_blu.png","../images/wht_red.png","../images/grn_prp.png","../images/gry_blk.png","../images/grn_blu.png","../images/blu_wht.png","../images/ylw_pnk.png","../images/pnk_blu.png","../images/cyn_red.png","../images/red_prp.png"],"mutagen_generator_assignment":[0,1],"goal":1,"start":3,"action_noise":0.15,"location_history":"[3,4,10,4,5,0,1]","action_history":"[0,1,1,0,0,1]","mutagen_history":"[0,1,1,0,0,1]","location_rts":"[203,84,307,99,629,481]","trial_type":"fractal-mutation","trial_index":60,"time_elapsed":4864251,"internal_node_id":"0.0-5.0-21.0"},{"group":"dihedral group of order 12","fractal_assignment":["../images/ylw_slt.png","../images/grn_red.png","../images/org_blu.png","../images/wht_red.png","../images/grn_prp.png","../images/gry_blk.png","../images/grn_blu.png","../images/blu_wht.png","../images/ylw_pnk.png","../images/pnk_blu.png","../images/cyn_red.png","../images/red_prp.png"],"mutagen_generator_assignment":[0,1],"goal":9,"start":1,"action_noise":0.15,"location_history":"[1,2,3,9]","action_history":"[0,1,1]","mutagen_history":"[0,1,1]","location_rts":"[1810,203,366]","trial_type":"fractal-mutation","trial_index":61,"time_elapsed":4873232,"internal_node_id":"0.0-5.0-22.0"},{"group":"dihedral group of order 12","fractal_assignment":["../images/ylw_slt.png","../images/grn_red.png","../images/org_blu.png","../images/wht_red.png","../images/grn_prp.png","../images/gry_blk.png","../images/grn_blu.png","../images/blu_wht.png","../images/ylw_pnk.png","../images/pnk_blu.png","../images/cyn_red.png","../images/red_prp.png"],"mutagen_generator_assignment":[0,1],"goal":3,"start":9,"action_noise":0.15,"location_history":"[9,8,2,3]","action_history":"[0,1,0]","mutagen_history":"[0,1,0]","location_rts":"[1030,60,37]","trial_type":"fractal-mutation","trial_index":62,"time_elapsed":4880952,"internal_node_id":"0.0-5.0-23.0"},{"group":"dihedral group of order 12","fractal_assignment":["../images/ylw_slt.png","../images/grn_red.png","../images/org_blu.png","../images/wht_red.png","../images/grn_prp.png","../images/gry_blk.png","../images/grn_blu.png","../images/blu_wht.png","../images/ylw_pnk.png","../images/pnk_blu.png","../images/cyn_red.png","../images/red_prp.png"],"mutagen_generator_assignment":[0,1],"goal":4,"start":3,"action_noise":0.15,"location_history":"[3,4]","action_history":"[0]","mutagen_history":"[0]","location_rts":"[492]","trial_type":"fractal-mutation","trial_index":63,"time_elapsed":4885974,"internal_node_id":"0.0-5.0-24.0"},{"group":"dihedral group of order 12","fractal_assignment":["../images/ylw_slt.png","../images/grn_red.png","../images/org_blu.png","../images/wht_red.png","../images/grn_prp.png","../images/gry_blk.png","../images/grn_blu.png","../images/blu_wht.png","../images/ylw_pnk.png","../images/pnk_blu.png","../images/cyn_red.png","../images/red_prp.png"],"mutagen_generator_assignment":[0,1],"goal":2,"start":4,"action_noise":0.15,"location_history":"[4,5,11,10,4,10,4,5,0,6,0,1,2]","action_history":"[0,1,0,1,1,1,0,0,1,0,0,0]","mutagen_history":"[0,1,0,1,1,1,0,0,1,0,0,0]","location_rts":"[400,89,422,110,66,373,118,623,700,629,675,721]","trial_type":"fractal-mutation","trial_index":64,"time_elapsed":4906780,"internal_node_id":"0.0-5.0-25.0"},{"group":"dihedral group of order 12","fractal_assignment":["../images/ylw_slt.png","../images/grn_red.png","../images/org_blu.png","../images/wht_red.png","../images/grn_prp.png","../images/gry_blk.png","../images/grn_blu.png","../images/blu_wht.png","../images/ylw_pnk.png","../images/pnk_blu.png","../images/cyn_red.png","../images/red_prp.png"],"mutagen_generator_assignment":[0,1],"goal":1,"start":2,"action_noise":0.15,"location_history":"[2,8,7,1]","action_history":"[1,0,1]","mutagen_history":"[1,0,1]","location_rts":"[1018,999,466]","trial_type":"fractal-mutation","trial_index":65,"time_elapsed":4915856,"internal_node_id":"0.0-5.0-26.0"},{"group":"dihedral group of order 12","fractal_assignment":["../images/ylw_slt.png","../images/grn_red.png","../images/org_blu.png","../images/wht_red.png","../images/grn_prp.png","../images/gry_blk.png","../images/grn_blu.png","../images/blu_wht.png","../images/ylw_pnk.png","../images/pnk_blu.png","../images/cyn_red.png","../images/red_prp.png"],"mutagen_generator_assignment":[0,1],"goal":8,"start":1,"action_noise":0.15,"location_history":"[1,2,8]","action_history":"[0,1]","mutagen_history":"[0,1]","location_rts":"[787,421]","trial_type":"fractal-mutation","trial_index":66,"time_elapsed":4922626,"internal_node_id":"0.0-5.0-27.0"},{"group":"dihedral group of order 12","fractal_assignment":["../images/ylw_slt.png","../images/grn_red.png","../images/org_blu.png","../images/wht_red.png","../images/grn_prp.png","../images/gry_blk.png","../images/grn_blu.png","../images/blu_wht.png","../images/ylw_pnk.png","../images/pnk_blu.png","../images/cyn_red.png","../images/red_prp.png"],"mutagen_generator_assignment":[0,1],"goal":10,"start":8,"action_noise":0.15,"location_history":"[8,7,6,0,6,11,10]","action_history":"[0,0,1,1,0,0]","mutagen_history":"[0,0,1,1,0,0]","location_rts":"[105,102,454,763,77,4]","trial_type":"fractal-mutation","trial_index":67,"time_elapsed":4933806,"internal_node_id":"0.0-5.0-28.0"},{"group":"dihedral group of order 12","fractal_assignment":["../images/ylw_slt.png","../images/grn_red.png","../images/org_blu.png","../images/wht_red.png","../images/grn_prp.png","../images/gry_blk.png","../images/grn_blu.png","../images/blu_wht.png","../images/ylw_pnk.png","../images/pnk_blu.png","../images/cyn_red.png","../images/red_prp.png"],"mutagen_generator_assignment":[0,1],"goal":7,"start":10,"action_noise":0.15,"location_history":"[10,9,8,2,8,7]","action_history":"[1,0,0,1,0]","mutagen_history":"[1,0,0,1,0]","location_rts":"[188,100,98,359,93]","trial_type":"fractal-mutation","trial_index":68,"time_elapsed":4943310,"internal_node_id":"0.0-5.0-29.0"},{"group":"dihedral group of order 12","fractal_assignment":["../images/ylw_slt.png","../images/grn_red.png","../images/org_blu.png","../images/wht_red.png","../images/grn_prp.png","../images/gry_blk.png","../images/grn_blu.png","../images/blu_wht.png","../images/ylw_pnk.png","../images/pnk_blu.png","../images/cyn_red.png","../images/red_prp.png"],"mutagen_generator_assignment":[0,1],"goal":6,"start":7,"action_noise":0.15,"location_history":"[7,1,2,3,9,3,4,5,11,5,11,10,9,8,2,3,9,3,4,5,11,5,11,10,9,3,9,3,9,3,4,10,9,3,4,10,4,5,11,10,9,3,4,5,0,6]","action_history":"[1,0,0,1,1,0,0,1,1,1,0,1,0,1,0,1,1,0,0,1,1,1,0,0,1,1,1,0,0,0,1,1,0,0,1,1,0,1,0,0,1,0,0,0,1]","mutagen_history":"[1,0,0,1,1,0,0,1,1,1,0,1,0,1,0,1,1,0,0,1,1,1,0,0,1,1,1,0,0,0,1,1,0,0,1,1,0,1,0,0,1,0,0,0,1]","location_rts":"[213,43,282,13,618,601,180,557,659,972,1578,839,117,80,52,399,175,25,14,767,197,377,42,97,1028,2284,1011,50,773,879,998,1404,1189,140,465,869,443,1710,662,1110,710,683,106,123,1005]","trial_type":"fractal-mutation","trial_index":69,"time_elapsed":5019776,"internal_node_id":"0.0-5.0-30.0"},{"group":"dihedral group of order 12","fractal_assignment":["../images/ylw_slt.png","../images/grn_red.png","../images/org_blu.png","../images/wht_red.png","../images/grn_prp.png","../images/gry_blk.png","../images/grn_blu.png","../images/blu_wht.png","../images/ylw_pnk.png","../images/pnk_blu.png","../images/cyn_red.png","../images/red_prp.png"],"mutagen_generator_assignment":[0,1],"goal":0,"start":6,"action_noise":0.15,"location_history":"[6,0]","action_history":"[0]","mutagen_history":"[0]","location_rts":"[862]","trial_type":"fractal-mutation","trial_index":70,"time_elapsed":5025171,"internal_node_id":"0.0-5.0-31.0"},{"group":"dihedral group of order 12","fractal_assignment":["../images/ylw_slt.png","../images/grn_red.png","../images/org_blu.png","../images/wht_red.png","../images/grn_prp.png","../images/gry_blk.png","../images/grn_blu.png","../images/blu_wht.png","../images/ylw_pnk.png","../images/pnk_blu.png","../images/cyn_red.png","../images/red_prp.png"],"mutagen_generator_assignment":[0,1],"goal":11,"start":0,"action_noise":0.15,"location_history":"[0,6,0,1,2,8,2,3,9,3,9,3,4,5,11]","action_history":"[1,1,0,0,1,1,0,0,1,1,0,0,0,1]","mutagen_history":"[1,1,0,0,1,1,0,0,1,1,0,0,0,1]","location_rts":"[610,491,150,69,80,355,15,38,526,369,73,24,123,619]","trial_type":"fractal-mutation","trial_index":71,"time_elapsed":5046657,"internal_node_id":"0.0-5.0-32.0"},{"group":"dihedral group of order 12","fractal_assignment":["../images/ylw_slt.png","../images/grn_red.png","../images/org_blu.png","../images/wht_red.png","../images/grn_prp.png","../images/gry_blk.png","../images/grn_blu.png","../images/blu_wht.png","../images/ylw_pnk.png","../images/pnk_blu.png","../images/cyn_red.png","../images/red_prp.png"],"mutagen_generator_assignment":[0,1],"goal":9,"start":11,"action_noise":0.15,"location_history":"[11,10,4,10,4,5,0,6,11,5,11,10,9]","action_history":"[0,1,1,1,0,0,1,1,1,1,0,0]","mutagen_history":"[0,1,1,1,0,0,1,1,1,1,0,0]","location_rts":"[245,75,91,597,602,439,728,115,675,136,941,71]","trial_type":"fractal-mutation","trial_index":72,"time_elapsed":5067242,"internal_node_id":"0.0-5.0-33.0"},{"group":"dihedral group of order 12","fractal_assignment":["../images/ylw_slt.png","../images/grn_red.png","../images/org_blu.png","../images/wht_red.png","../images/grn_prp.png","../images/gry_blk.png","../images/grn_blu.png","../images/blu_wht.png","../images/ylw_pnk.png","../images/pnk_blu.png","../images/cyn_red.png","../images/red_prp.png"],"mutagen_generator_assignment":[0,1],"goal":5,"start":9,"action_noise":0.15,"location_history":"[9,8,7,6,0,6,11,10,4,5]","action_history":"[0,0,0,1,1,1,1,1,0]","mutagen_history":"[0,0,0,1,1,1,1,1,0]","location_rts":"[258,94,42,55,299,183,22,31,48]","trial_type":"fractal-mutation","trial_index":73,"time_elapsed":5081062,"internal_node_id":"0.0-5.0-34.0"},{"view_history":"[{\"page_index\":0,\"viewing_time\":4047}]","rt":4047,"trial_type":"instructions","trial_index":74,"time_elapsed":5086110,"internal_node_id":"0.0-6.0"},{"rt":9973,"responses":"{\"Q0\":\"None, works great. Starting to get the patterns.\"}","trial_type":"survey-text","trial_index":75,"time_elapsed":5097088,"internal_node_id":"0.0-7.0"}]