[{"view_history":"[{\"page_index\":0,\"viewing_time\":1946},{\"page_index\":1,\"viewing_time\":11835}]","rt":13782,"trial_type":"instructions","trial_index":0,"time_elapsed":13782,"internal_node_id":"0.0-0.0"},{"view_history":"[{\"page_index\":0,\"viewing_time\":3548},{\"page_index\":1,\"viewing_time\":15794}]","rt":19342,"trial_type":"instructions","trial_index":1,"time_elapsed":34126,"internal_node_id":"0.0-1.0"},{"group":"dicyclic group of order 12","room_assignment":["ivory","grey","yellow","orange","blue","purple","brown","cyan","green","red","olive","pink"],"door_color_assignment":["white","black"],"door_generator_assignment":[1,0],"goal":7,"start":11,"action_noise":0.15,"location_history":"[11,4,8,0,1,2,6,10,2,3,7]","action_history":"[0,0,0,0,1,1,1,1,0,1]","door_history":"[1,1,1,1,0,0,0,0,1,0]","location_rts":"[6226,2767,662,1905,1109,458,569,558,915,962]","trial_type":"two-door-navigation","trial_index":2,"time_elapsed":64389,"internal_node_id":"0.0-2.0-0.0"},{"group":"dicyclic group of order 12","room_assignment":["ivory","grey","yellow","orange","blue","purple","brown","cyan","green","red","olive","pink"],"door_color_assignment":["white","black"],"door_generator_assignment":[1,0],"goal":8,"start":7,"action_noise":0.15,"location_history":"[7,8]","action_history":"[0]","door_history":"[1]","location_rts":"[2570]","trial_type":"two-door-navigation","trial_index":3,"time_elapsed":71538,"internal_node_id":"0.0-2.0-1.0"},{"group":"dicyclic group of order 12","room_assignment":["ivory","grey","yellow","orange","blue","purple","brown","cyan","green","red","olive","pink"],"door_color_assignment":["white","black"],"door_generator_assignment":[1,0],"goal":4,"start":8,"action_noise":0.15,"location_history":"[8,5,10,7,11,3,0,4]","action_history":"[0,0,0,1,1,1,1]","door_history":"[1,1,1,0,0,0,0]","location_rts":"[4455,541,580,1491,921,472,636]","trial_type":"two-door-navigation","trial_index":4,"time_elapsed":91549,"internal_node_id":"0.0-2.0-2.0"},{"group":"dicyclic group of order 12","room_assignment":["ivory","grey","yellow","orange","blue","purple","brown","cyan","green","red","olive","pink"],"door_color_assignment":["white","black"],"door_generator_assignment":[1,0],"goal":5,"start":4,"action_noise":0.15,"location_history":"[4,9,6,11,4,8,0,4,9,1,5]","action_history":"[0,0,0,0,1,1,1,0,1,1]","door_history":"[1,1,1,1,0,0,0,1,0,0]","location_rts":"[1695,628,542,495,851,569,1649,517,539,497]","trial_type":"two-door-navigation","trial_index":5,"time_elapsed":113635,"internal_node_id":"0.0-2.0-3.0"},{"group":"dicyclic group of order 12","room_assignment":["ivory","grey","yellow","orange","blue","purple","brown","cyan","green","red","olive","pink"],"door_color_assignment":["white","black"],"door_generator_assignment":[1,0],"goal":10,"start":5,"action_noise":0.15,"location_history":"[5,10]","action_history":"[0]","door_history":"[1]","location_rts":"[1736]","trial_type":"two-door-navigation","trial_index":6,"time_elapsed":119941,"internal_node_id":"0.0-2.0-4.0"},{"group":"dicyclic group of order 12","room_assignment":["ivory","grey","yellow","orange","blue","purple","brown","cyan","green","red","olive","pink"],"door_color_assignment":["white","black"],"door_generator_assignment":[1,0],"goal":1,"start":10,"action_noise":0.15,"location_history":"[10,7,11,3,7,11,4,9,6,11,4,8,5,9,1]","action_history":"[0,1,1,1,0,0,0,0,0,0,1,1,1,1]","door_history":"[1,0,0,0,1,1,1,1,1,1,0,0,0,0]","location_rts":"[1518,1175,920,427,355,52,774,404,667,618,544,244,401,407]","trial_type":"two-door-navigation","trial_index":7,"time_elapsed":146774,"internal_node_id":"0.0-2.0-5.0"},{"group":"dicyclic group of order 12","room_assignment":["ivory","grey","yellow","orange","blue","purple","brown","cyan","green","red","olive","pink"],"door_color_assignment":["white","black"],"door_generator_assignment":[1,0],"goal":6,"start":1,"action_noise":0.15,"location_history":"[1,2,3,0,1,2,6]","action_history":"[0,0,0,0,0,1]","door_history":"[1,1,1,1,1,0]","location_rts":"[1760,495,605,582,656,579]","trial_type":"two-door-navigation","trial_index":8,"time_elapsed":161320,"internal_node_id":"0.0-2.0-6.0"},{"group":"dicyclic group of order 12","room_assignment":["ivory","grey","yellow","orange","blue","purple","brown","cyan","green","red","olive","pink"],"door_color_assignment":["white","black"],"door_generator_assignment":[1,0],"goal":9,"start":6,"action_noise":0.15,"location_history":"[6,11,3,0,1,5,9]","action_history":"[0,0,0,0,1,1]","door_history":"[1,1,1,1,0,0]","location_rts":"[1798,502,452,508,579,485]","trial_type":"two-door-navigation","trial_index":9,"time_elapsed":175503,"internal_node_id":"0.0-2.0-7.0"},{"group":"dicyclic group of order 12","room_assignment":["ivory","grey","yellow","orange","blue","purple","brown","cyan","green","red","olive","pink"],"door_color_assignment":["white","black"],"door_generator_assignment":[1,0],"goal":2,"start":9,"action_noise":0.15,"location_history":"[9,1,5,9,6,11,4,9,1,5,10,7,11,3,0,4,9,6,11,4,8,5,9,6,10,7,8,5,10,7,11,3,7,11,3,0,4,8,0,4,9,1,2]","action_history":"[1,1,1,0,0,0,0,1,0,0,0,1,1,1,0,0,0,1,0,0,1,1,0,0,0,0,0,0,0,1,1,1,1,1,0,1,1,1,1,0,0,0]","door_history":"[0,0,0,1,1,1,1,0,1,1,1,0,0,0,1,1,1,0,1,1,0,0,1,1,1,1,1,1,1,0,0,0,0,0,1,0,0,0,0,1,1,1]","location_rts":"[2069,469,531,437,435,429,574,1218,609,539,507,1306,490,650,961,520,724,799,1097,2340,570,490,675,644,364,481,4366,934,1263,974,585,478,397,832,694,679,548,2096,3224,876,671,353]","trial_type":"two-door-navigation","trial_index":10,"time_elapsed":262274,"internal_node_id":"0.0-2.0-8.0"},{"group":"dicyclic group of order 12","room_assignment":["ivory","grey","yellow","orange","blue","purple","brown","cyan","green","red","olive","pink"],"door_color_assignment":["white","black"],"door_generator_assignment":[1,0],"goal":0,"start":2,"action_noise":0.15,"location_history":"[2,6,11,4,9,1,5,9,1,5,9,1,5,10,7,11,3,0]","action_history":"[0,0,0,1,1,1,1,0,1,1,1,1,0,0,1,1,1]","door_history":"[1,1,1,0,0,0,0,1,0,0,0,0,1,1,0,0,0]","location_rts":"[1811,574,557,1457,428,465,983,1521,325,815,544,573,1004,2711,1019,865,507]","trial_type":"two-door-navigation","trial_index":11,"time_elapsed":299929,"internal_node_id":"0.0-2.0-9.0"},{"group":"dicyclic group of order 12","room_assignment":["ivory","grey","yellow","orange","blue","purple","brown","cyan","green","red","olive","pink"],"door_color_assignment":["white","black"],"door_generator_assignment":[1,0],"goal":3,"start":0,"action_noise":0.15,"location_history":"[0,1,5,9,1,5,10,7,11,3]","action_history":"[1,1,1,1,1,0,0,1,1]","door_history":"[0,0,0,0,0,1,1,0,0]","location_rts":"[1904,413,405,437,674,387,415,854,1355]","trial_type":"two-door-navigation","trial_index":12,"time_elapsed":319781,"internal_node_id":"0.0-2.0-10.0"},{"group":"dicyclic group of order 12","room_assignment":["ivory","grey","yellow","orange","blue","purple","brown","cyan","green","red","olive","pink"],"door_color_assignment":["white","black"],"door_generator_assignment":[1,0],"goal":10,"start":3,"action_noise":0.15,"location_history":"[3,0,1,5,10]","action_history":"[0,0,0,0]","door_history":"[1,1,1,1]","location_rts":"[2471,909,670,832]","trial_type":"two-door-navigation","trial_index":13,"time_elapsed":332361,"internal_node_id":"0.0-2.0-11.0"},{"group":"dicyclic group of order 12","room_assignment":["ivory","grey","yellow","orange","blue","purple","brown","cyan","green","red","olive","pink"],"door_color_assignment":["white","black"],"door_generator_assignment":[1,0],"goal":8,"start":10,"action_noise":0.15,"location_history":"[10,2,6,10,2,3,0,4,9,6,10,2,6,11,4,9,1,2,6,11,4,9,6,11,3,7,11,3,7,8]","action_history":"[1,1,1,1,0,0,0,0,0,1,1,0,0,0,0,1,1,1,0,0,0,0,0,0,1,1,1,0,0]","door_history":"[0,0,0,0,1,1,1,1,1,0,0,1,1,1,1,0,0,0,1,1,1,1,1,1,0,0,0,1,1]","location_rts":"[2476,406,596,1638,468,664,681,509,806,1298,3852,490,1855,2108,1824,645,594,674,842,135,334,387,436,375,990,467,532,468,867]","trial_type":"two-door-navigation","trial_index":14,"time_elapsed":393959,"internal_node_id":"0.0-2.0-12.0"},{"group":"dicyclic group of order 12","room_assignment":["ivory","grey","yellow","orange","blue","purple","brown","cyan","green","red","olive","pink"],"door_color_assignment":["white","black"],"door_generator_assignment":[1,0],"goal":4,"start":8,"action_noise":0.15,"location_history":"[8,0,4]","action_history":"[1,1]","door_history":"[0,0]","location_rts":"[2261,879]","trial_type":"two-door-navigation","trial_index":15,"time_elapsed":402725,"internal_node_id":"0.0-2.0-13.0"},{"group":"dicyclic group of order 12","room_assignment":["ivory","grey","yellow","orange","blue","purple","brown","cyan","green","red","olive","pink"],"door_color_assignment":["white","black"],"door_generator_assignment":[1,0],"goal":0,"start":4,"action_noise":0.15,"location_history":"[4,9,1,2,3,0]","action_history":"[1,1,0,0,0]","door_history":"[0,0,1,1,1]","location_rts":"[3934,756,1102,555,541]","trial_type":"two-door-navigation","trial_index":16,"time_elapsed":418423,"internal_node_id":"0.0-2.0-14.0"},{"group":"dicyclic group of order 12","room_assignment":["ivory","grey","yellow","orange","blue","purple","brown","cyan","green","red","olive","pink"],"door_color_assignment":["white","black"],"door_generator_assignment":[1,0],"goal":11,"start":0,"action_noise":0.15,"location_history":"[0,1,5,10,7,8,5,9,1,5,9,1,5,10,2,3,7,11]","action_history":"[0,1,1,0,0,0,1,1,1,0,1,1,1,0,0,1,1]","door_history":"[1,0,0,1,1,1,0,0,0,1,0,0,0,1,1,0,0]","location_rts":"[1528,469,696,801,463,621,826,375,1099,792,495,522,532,857,585,988,494]","trial_type":"two-door-navigation","trial_index":17,"time_elapsed":452023,"internal_node_id":"0.0-2.0-15.0"},{"group":"dicyclic group of order 12","room_assignment":["ivory","grey","yellow","orange","blue","purple","brown","cyan","green","red","olive","pink"],"door_color_assignment":["white","black"],"door_generator_assignment":[1,0],"goal":2,"start":11,"action_noise":0.15,"location_history":"[11,4,8,5,10,7,8,0,4,9,1,2]","action_history":"[1,1,0,0,0,0,1,1,1,1,0]","door_history":"[0,0,1,1,1,1,0,0,0,0,1]","location_rts":"[4033,625,833,503,1104,700,1392,750,596,544,1073]","trial_type":"two-door-navigation","trial_index":18,"time_elapsed":479274,"internal_node_id":"0.0-2.0-16.0"},{"group":"dicyclic group of order 12","room_assignment":["ivory","grey","yellow","orange","blue","purple","brown","cyan","green","red","olive","pink"],"door_color_assignment":["white","black"],"door_generator_assignment":[1,0],"goal":7,"start":2,"action_noise":0.15,"location_history":"[2,6,10,7]","action_history":"[1,1,0]","door_history":"[0,0,1]","location_rts":"[1804,592,870]","trial_type":"two-door-navigation","trial_index":19,"time_elapsed":489220,"internal_node_id":"0.0-2.0-17.0"},{"group":"dicyclic group of order 12","room_assignment":["ivory","grey","yellow","orange","blue","purple","brown","cyan","green","red","olive","pink"],"door_color_assignment":["white","black"],"door_generator_assignment":[1,0],"goal":5,"start":7,"action_noise":0.15,"location_history":"[7,11,3,7,11,4,9,6,11,4,8,5]","action_history":"[1,1,1,1,1,1,0,0,0,1,0]","door_history":"[0,0,0,0,0,0,1,1,1,0,1]","location_rts":"[2279,578,593,548,642,680,1509,599,532,875,950]","trial_type":"two-door-navigation","trial_index":20,"time_elapsed":514181,"internal_node_id":"0.0-2.0-18.0"},{"group":"dicyclic group of order 12","room_assignment":["ivory","grey","yellow","orange","blue","purple","brown","cyan","green","red","olive","pink"],"door_color_assignment":["white","black"],"door_generator_assignment":[1,0],"goal":6,"start":5,"action_noise":0.15,"location_history":"[5,9,1,2,3,0,1,2,6]","action_history":"[1,1,0,0,0,0,0,1]","door_history":"[0,0,1,1,1,1,1,0]","location_rts":"[6011,8423,2436,526,825,770,1369,1283]","trial_type":"two-door-navigation","trial_index":21,"time_elapsed":547936,"internal_node_id":"0.0-2.0-19.0"},{"group":"dicyclic group of order 12","room_assignment":["ivory","grey","yellow","orange","blue","purple","brown","cyan","green","red","olive","pink"],"door_color_assignment":["white","black"],"door_generator_assignment":[1,0],"goal":3,"start":6,"action_noise":0.15,"location_history":"[6,11,3]","action_history":"[0,1]","door_history":"[1,0]","location_rts":"[18967,1123]","trial_type":"two-door-navigation","trial_index":22,"time_elapsed":574645,"internal_node_id":"0.0-2.0-20.0"},{"group":"dicyclic group of order 12","room_assignment":["ivory","grey","yellow","orange","blue","purple","brown","cyan","green","red","olive","pink"],"door_color_assignment":["white","black"],"door_generator_assignment":[1,0],"goal":1,"start":3,"action_noise":0.15,"location_history":"[3,0,1]","action_history":"[0,0]","door_history":"[1,1]","location_rts":"[49629,2572]","trial_type":"two-door-navigation","trial_index":23,"time_elapsed":632481,"internal_node_id":"0.0-2.0-21.0"},{"group":"dicyclic group of order 12","room_assignment":["ivory","grey","yellow","orange","blue","purple","brown","cyan","green","red","olive","pink"],"door_color_assignment":["white","black"],"door_generator_assignment":[1,0],"goal":9,"start":1,"action_noise":0.15,"location_history":"[1,5,10,2,3,7,8,5,10,2,6,10,2,3,0,1,2,3,7,11,3,0,1,2,3,0,4,8,5,9]","action_history":"[1,1,1,1,1,0,0,0,0,1,1,1,0,0,0,0,0,1,1,1,0,0,0,0,0,1,1,0,0]","door_history":"[0,0,0,0,0,1,1,1,1,0,0,0,1,1,1,1,1,0,0,0,1,1,1,1,1,0,0,1,1]","location_rts":"[1322,461,751,498,736,551,555,545,629,805,589,502,779,559,619,548,773,768,248,400,951,311,453,371,488,1774,320,1058,652]","trial_type":"two-door-navigation","trial_index":24,"time_elapsed":685569,"internal_node_id":"0.0-2.0-22.0"},{"group":"dicyclic group of order 12","room_assignment":["ivory","grey","yellow","orange","blue","purple","brown","cyan","green","red","olive","pink"],"door_color_assignment":["white","black"],"door_generator_assignment":[1,0],"goal":3,"start":9,"action_noise":0.15,"location_history":"[9,1,2,3]","action_history":"[1,0,0]","door_history":"[0,1,1]","location_rts":"[2847,821,572]","trial_type":"two-door-navigation","trial_index":25,"time_elapsed":696466,"internal_node_id":"0.0-2.0-23.0"},{"group":"dicyclic group of order 12","room_assignment":["ivory","grey","yellow","orange","blue","purple","brown","cyan","green","red","olive","pink"],"door_color_assignment":["white","black"],"door_generator_assignment":[1,0],"goal":4,"start":3,"action_noise":0.15,"location_history":"[3,7,11,3,0,4]","action_history":"[1,1,1,1,1]","door_history":"[0,0,0,0,0]","location_rts":"[1001,453,491,479,541]","trial_type":"two-door-navigation","trial_index":26,"time_elapsed":708225,"internal_node_id":"0.0-2.0-24.0"},{"group":"dicyclic group of order 12","room_assignment":["ivory","grey","yellow","orange","blue","purple","brown","cyan","green","red","olive","pink"],"door_color_assignment":["white","black"],"door_generator_assignment":[1,0],"goal":2,"start":4,"action_noise":0.15,"location_history":"[4,8,5,10,7,11,3,7,8,0,4,8,5,9,6,10,7,8,5,9,1,5,9,1,5,10,7,8,0,4,8,0,1,5,9,1,2]","action_history":"[1,0,0,0,1,1,1,0,1,1,1,1,1,0,0,0,0,0,1,1,0,0,1,1,0,0,0,1,1,1,1,0,1,1,1,0]","door_history":"[0,1,1,1,0,0,0,1,0,0,0,0,0,1,1,1,1,1,0,0,1,1,0,0,1,1,1,0,0,0,0,1,0,0,0,1]","location_rts":"[2097,989,1158,1202,553,372,492,689,730,1103,781,673,2654,1153,697,542,775,1215,732,522,1216,2157,1564,1211,1249,827,660,1153,806,582,647,1117,3111,604,983,1489]","trial_type":"two-door-navigation","trial_index":27,"time_elapsed":788166,"internal_node_id":"0.0-2.0-25.0"},{"group":"dicyclic group of order 12","room_assignment":["ivory","grey","yellow","orange","blue","purple","brown","cyan","green","red","olive","pink"],"door_color_assignment":["white","black"],"door_generator_assignment":[1,0],"goal":1,"start":2,"action_noise":0.15,"location_history":"[2,6,11,4,8,0,4,9,1]","action_history":"[1,0,0,1,1,1,0,0]","door_history":"[0,1,1,0,0,0,1,1]","location_rts":"[2332,1195,549,919,482,947,959,1028]","trial_type":"two-door-navigation","trial_index":28,"time_elapsed":808534,"internal_node_id":"0.0-2.0-26.0"},{"group":"dicyclic group of order 12","room_assignment":["ivory","grey","yellow","orange","blue","purple","brown","cyan","green","red","olive","pink"],"door_color_assignment":["white","black"],"door_generator_assignment":[1,0],"goal":8,"start":1,"action_noise":0.15,"location_history":"[1,5,9,1,2,6,10,7,8]","action_history":"[1,1,1,0,0,1,0,0]","door_history":"[0,0,0,1,1,0,1,1]","location_rts":"[2110,619,785,1109,738,689,1212,471]","trial_type":"two-door-navigation","trial_index":29,"time_elapsed":828207,"internal_node_id":"0.0-2.0-27.0"},{"group":"dicyclic group of order 12","room_assignment":["ivory","grey","yellow","orange","blue","purple","brown","cyan","green","red","olive","pink"],"door_color_assignment":["white","black"],"door_generator_assignment":[1,0],"goal":10,"start":8,"action_noise":0.15,"location_history":"[8,0,4,8,0,1,2,6,10]","action_history":"[1,1,0,0,0,0,1,0]","door_history":"[0,0,1,1,1,1,0,1]","location_rts":"[3320,582,1289,1284,587,890,1901,888]","trial_type":"two-door-navigation","trial_index":30,"time_elapsed":850891,"internal_node_id":"0.0-2.0-28.0"},{"group":"dicyclic group of order 12","room_assignment":["ivory","grey","yellow","orange","blue","purple","brown","cyan","green","red","olive","pink"],"door_color_assignment":["white","black"],"door_generator_assignment":[1,0],"goal":7,"start":10,"action_noise":0.15,"location_history":"[10,2,6,10,7]","action_history":"[1,1,0,0]","door_history":"[0,0,1,1]","location_rts":"[1674,985,742,496]","trial_type":"two-door-navigation","trial_index":31,"time_elapsed":862516,"internal_node_id":"0.0-2.0-29.0"},{"group":"dicyclic group of order 12","room_assignment":["ivory","grey","yellow","orange","blue","purple","brown","cyan","green","red","olive","pink"],"door_color_assignment":["white","black"],"door_generator_assignment":[1,0],"goal":6,"start":7,"action_noise":0.15,"location_history":"[7,11,4,9,1,2,3,7,11,3,0,4,8,5,9,1,5,9,1,2,6]","action_history":"[1,1,0,0,1,1,1,1,0,0,1,1,0,0,1,1,1,1,0,1]","door_history":"[0,0,1,1,0,0,0,0,1,1,0,0,1,1,0,0,0,0,1,0]","location_rts":"[1841,598,755,542,1043,500,833,555,498,703,1100,529,1866,987,754,510,351,606,968,1085]","trial_type":"two-door-navigation","trial_index":32,"time_elapsed":903776,"internal_node_id":"0.0-2.0-30.0"},{"group":"dicyclic group of order 12","room_assignment":["ivory","grey","yellow","orange","blue","purple","brown","cyan","green","red","olive","pink"],"door_color_assignment":["white","black"],"door_generator_assignment":[1,0],"goal":0,"start":6,"action_noise":0.15,"location_history":"[6,11,4,9,1,5,9,6,11,3,0]","action_history":"[0,0,0,1,1,0,0,0,0,0]","door_history":"[1,1,1,0,0,1,1,1,1,1]","location_rts":"[2249,712,599,989,787,678,501,785,456,453]","trial_type":"two-door-navigation","trial_index":33,"time_elapsed":926035,"internal_node_id":"0.0-2.0-31.0"},{"group":"dicyclic group of order 12","room_assignment":["ivory","grey","yellow","orange","blue","purple","brown","cyan","green","red","olive","pink"],"door_color_assignment":["white","black"],"door_generator_assignment":[1,0],"goal":11,"start":0,"action_noise":0.15,"location_history":"[0,1,5,10,7,11]","action_history":"[0,1,0,0,1]","door_history":"[1,0,1,1,0]","location_rts":"[1661,1091,1183,542,917]","trial_type":"two-door-navigation","trial_index":34,"time_elapsed":940195,"internal_node_id":"0.0-2.0-32.0"},{"group":"dicyclic group of order 12","room_assignment":["ivory","grey","yellow","orange","blue","purple","brown","cyan","green","red","olive","pink"],"door_color_assignment":["white","black"],"door_generator_assignment":[1,0],"goal":9,"start":11,"action_noise":0.15,"location_history":"[11,3,7,11,3,0,4,8,5,10,2,6,10,7,8,5,10,7,11,3,0,1,5,9]","action_history":"[1,1,1,0,0,1,1,0,0,1,1,1,0,0,0,0,0,1,1,0,0,1,1]","door_history":"[0,0,0,1,1,0,0,1,1,0,0,0,1,1,1,1,1,0,0,1,1,0,0]","location_rts":"[2094,541,521,577,557,1323,1046,1055,5033,978,700,696,544,538,870,595,1007,928,862,1935,1297,1686,1235]","trial_type":"two-door-navigation","trial_index":35,"time_elapsed":994572,"internal_node_id":"0.0-2.0-33.0"},{"group":"dicyclic group of order 12","room_assignment":["ivory","grey","yellow","orange","blue","purple","brown","cyan","green","red","olive","pink"],"door_color_assignment":["white","black"],"door_generator_assignment":[1,0],"goal":5,"start":9,"action_noise":0.15,"location_history":"[9,1,2,6,11,4,8,0,1,2,3,7,8,0,4,8,0,4,9,6,11,4,9,1,2,6,11,4,9,1,5]","action_history":"[1,0,0,0,0,1,1,0,0,0,0,0,1,1,1,1,1,0,0,0,0,0,1,1,1,0,0,0,1,1]","door_history":"[0,1,1,1,1,0,0,1,1,1,1,1,0,0,0,0,0,1,1,1,1,1,0,0,0,1,1,1,0,0]","location_rts":"[2397,929,402,668,1336,1894,2386,1095,450,546,874,458,519,462,541,706,530,268,691,711,507,377,749,494,396,705,650,699,512,103]","trial_type":"two-door-navigation","trial_index":36,"time_elapsed":1052750,"internal_node_id":"0.0-2.0-34.0"},{"view_history":"[{\"page_index\":0,\"viewing_time\":3325}]","rt":3326,"trial_type":"instructions","trial_index":37,"time_elapsed":1057079,"internal_node_id":"0.0-3.0"},{"view_history":"[{\"page_index\":0,\"viewing_time\":3128},{\"page_index\":1,\"viewing_time\":4884}]","rt":8013,"trial_type":"instructions","trial_index":38,"time_elapsed":1066095,"internal_node_id":"0.0-4.0"},{"group":"dihedral group of order 12","fractal_assignment":["../images/pnk_blu.png","../images/grn_prp.png","../images/cyn_red.png","../images/red_prp.png","../images/grn_red.png","../images/ylw_slt.png","../images/wht_red.png","../images/org_blu.png","../images/ylw_pnk.png","../images/grn_blu.png","../images/gry_blk.png","../images/blu_wht.png"],"mutagen_generator_assignment":[1,0],"goal":7,"start":11,"action_noise":0.15,"location_history":"[11,10,9,8,2,8,2,8,7]","action_history":"[0,0,0,1,1,0,1,0]","mutagen_history":"[1,1,1,0,0,1,0,1]","location_rts":"[5372,467,554,459,447,535,884,1133]","trial_type":"fractal-mutation","trial_index":39,"time_elapsed":1089716,"internal_node_id":"0.0-5.0-0.0"},{"group":"dihedral group of order 12","fractal_assignment":["../images/pnk_blu.png","../images/grn_prp.png","../images/cyn_red.png","../images/red_prp.png","../images/grn_red.png","../images/ylw_slt.png","../images/wht_red.png","../images/org_blu.png","../images/ylw_pnk.png","../images/grn_blu.png","../images/gry_blk.png","../images/blu_wht.png"],"mutagen_generator_assignment":[1,0],"goal":8,"start":7,"action_noise":0.15,"location_history":"[7,6,11,10,4,5,0,1,7,1,2,8]","action_history":"[0,0,1,1,0,0,1,1,0,0,1]","mutagen_history":"[1,1,0,0,1,1,0,0,1,1,0]","location_rts":"[1772,863,971,536,1059,405,341,525,722,414,391]","trial_type":"fractal-mutation","trial_index":40,"time_elapsed":1115222,"internal_node_id":"0.0-5.0-1.0"},{"group":"dihedral group of order 12","fractal_assignment":["../images/pnk_blu.png","../images/grn_prp.png","../images/cyn_red.png","../images/red_prp.png","../images/grn_red.png","../images/ylw_slt.png","../images/wht_red.png","../images/org_blu.png","../images/ylw_pnk.png","../images/grn_blu.png","../images/gry_blk.png","../images/blu_wht.png"],"mutagen_generator_assignment":[1,0],"goal":4,"start":8,"action_noise":0.15,"location_history":"[8,2,3,9,3,4]","action_history":"[1,0,0,1,0]","mutagen_history":"[0,1,1,0,1]","location_rts":"[2951,1224,520,1397,451]","trial_type":"fractal-mutation","trial_index":41,"time_elapsed":1131477,"internal_node_id":"0.0-5.0-2.0"},{"group":"dihedral group of order 12","fractal_assignment":["../images/pnk_blu.png","../images/grn_prp.png","../images/cyn_red.png","../images/red_prp.png","../images/grn_red.png","../images/ylw_slt.png","../images/wht_red.png","../images/org_blu.png","../images/ylw_pnk.png","../images/grn_blu.png","../images/gry_blk.png","../images/blu_wht.png"],"mutagen_generator_assignment":[1,0],"goal":5,"start":4,"action_noise":0.15,"location_history":"[4,10,9,3,4,5]","action_history":"[1,1,1,0,0]","mutagen_history":"[0,0,0,1,1]","location_rts":"[2095,821,1340,342,715]","trial_type":"fractal-mutation","trial_index":42,"time_elapsed":1146157,"internal_node_id":"0.0-5.0-3.0"},{"group":"dihedral group of order 12","fractal_assignment":["../images/pnk_blu.png","../images/grn_prp.png","../images/cyn_red.png","../images/red_prp.png","../images/grn_red.png","../images/ylw_slt.png","../images/wht_red.png","../images/org_blu.png","../images/ylw_pnk.png","../images/grn_blu.png","../images/gry_blk.png","../images/blu_wht.png"],"mutagen_generator_assignment":[1,0],"goal":10,"start":5,"action_noise":0.15,"location_history":"[5,0,6,0,6,11,5,11,10]","action_history":"[0,1,1,1,0,1,1,0]","mutagen_history":"[1,0,0,0,1,0,0,1]","location_rts":"[1933,587,393,680,365,613,640,598]","trial_type":"fractal-mutation","trial_index":43,"time_elapsed":1165343,"internal_node_id":"0.0-5.0-4.0"},{"group":"dihedral group of order 12","fractal_assignment":["../images/pnk_blu.png","../images/grn_prp.png","../images/cyn_red.png","../images/red_prp.png","../images/grn_red.png","../images/ylw_slt.png","../images/wht_red.png","../images/org_blu.png","../images/ylw_pnk.png","../images/grn_blu.png","../images/gry_blk.png","../images/blu_wht.png"],"mutagen_generator_assignment":[1,0],"goal":1,"start":10,"action_noise":0.15,"location_history":"[10,9,3,4,5,0,1]","action_history":"[0,1,1,0,0,1]","mutagen_history":"[1,0,0,1,1,0]","location_rts":"[1836,935,652,523,581,6702]","trial_type":"fractal-mutation","trial_index":44,"time_elapsed":1187615,"internal_node_id":"0.0-5.0-5.0"},{"group":"dihedral group of order 12","fractal_assignment":["../images/pnk_blu.png","../images/grn_prp.png","../images/cyn_red.png","../images/red_prp.png","../images/grn_red.png","../images/ylw_slt.png","../images/wht_red.png","../images/org_blu.png","../images/ylw_pnk.png","../images/grn_blu.png","../images/gry_blk.png","../images/blu_wht.png"],"mutagen_generator_assignment":[1,0],"goal":6,"start":1,"action_noise":0.15,"location_history":"[1,2,8,2,8,2,3,9,3,4,10,4,5,11,5,0,6]","action_history":"[0,1,1,1,1,0,1,1,0,1,1,0,1,1,0,1]","mutagen_history":"[1,0,0,0,0,1,0,0,1,0,0,1,0,0,1,0]","location_rts":"[896,475,475,387,913,738,447,397,462,408,376,556,396,434,716,382]","trial_type":"fractal-mutation","trial_index":45,"time_elapsed":1219141,"internal_node_id":"0.0-5.0-6.0"},{"group":"dihedral group of order 12","fractal_assignment":["../images/pnk_blu.png","../images/grn_prp.png","../images/cyn_red.png","../images/red_prp.png","../images/grn_red.png","../images/ylw_slt.png","../images/wht_red.png","../images/org_blu.png","../images/ylw_pnk.png","../images/grn_blu.png","../images/gry_blk.png","../images/blu_wht.png"],"mutagen_generator_assignment":[1,0],"goal":9,"start":6,"action_noise":0.15,"location_history":"[6,11,5,0,6,0,6,0,1,7,1,2,8,7,6,0,6,11,5,0,1,7,1,2,8,2,3,4,10,9]","action_history":"[0,1,1,1,0,1,1,0,1,1,0,1,1,0,1,1,0,1,1,0,1,1,0,1,1,0,0,1,1]","mutagen_history":"[1,0,0,0,1,0,0,1,0,0,1,0,0,1,0,0,1,0,0,1,0,0,1,0,0,1,1,0,0]","location_rts":"[1741,1047,577,1457,666,508,387,131,471,319,523,212,399,428,404,276,749,443,175,262,711,1473,476,1285,359,469,305,389,480]","trial_type":"fractal-mutation","trial_index":46,"time_elapsed":1275560,"internal_node_id":"0.0-5.0-7.0"},{"group":"dihedral group of order 12","fractal_assignment":["../images/pnk_blu.png","../images/grn_prp.png","../images/cyn_red.png","../images/red_prp.png","../images/grn_red.png","../images/ylw_slt.png","../images/wht_red.png","../images/org_blu.png","../images/ylw_pnk.png","../images/grn_blu.png","../images/gry_blk.png","../images/blu_wht.png"],"mutagen_generator_assignment":[1,0],"goal":2,"start":9,"action_noise":0.15,"location_history":"[9,8,2]","action_history":"[0,1]","mutagen_history":"[1,0]","location_rts":"[2355,684]","trial_type":"fractal-mutation","trial_index":47,"time_elapsed":1284600,"internal_node_id":"0.0-5.0-8.0"},{"group":"dihedral group of order 12","fractal_assignment":["../images/pnk_blu.png","../images/grn_prp.png","../images/cyn_red.png","../images/red_prp.png","../images/grn_red.png","../images/ylw_slt.png","../images/wht_red.png","../images/org_blu.png","../images/ylw_pnk.png","../images/grn_blu.png","../images/gry_blk.png","../images/blu_wht.png"],"mutagen_generator_assignment":[1,0],"goal":0,"start":2,"action_noise":0.15,"location_history":"[2,3,9,8,7,6,0]","action_history":"[0,1,1,0,0,1]","mutagen_history":"[1,0,0,1,1,0]","location_rts":"[811,314,511,668,669,266]","trial_type":"fractal-mutation","trial_index":48,"time_elapsed":1298804,"internal_node_id":"0.0-5.0-9.0"},{"group":"dihedral group of order 12","fractal_assignment":["../images/pnk_blu.png","../images/grn_prp.png","../images/cyn_red.png","../images/red_prp.png","../images/grn_red.png","../images/ylw_slt.png","../images/wht_red.png","../images/org_blu.png","../images/ylw_pnk.png","../images/grn_blu.png","../images/gry_blk.png","../images/blu_wht.png"],"mutagen_generator_assignment":[1,0],"goal":3,"start":0,"action_noise":0.15,"location_history":"[0,1,7,1,2,8,2,8,7,6,11,5,0,1,7,6,11,5,0,6,11,10,4,5,11,5,0,6,11,10,9,3]","action_history":"[0,1,1,0,1,1,0,0,1,0,1,1,0,1,0,0,1,0,1,1,0,0,0,1,1,0,1,0,0,0,1]","mutagen_history":"[1,0,0,1,0,0,1,1,0,1,0,0,1,0,1,1,0,1,0,0,1,1,1,0,0,1,0,1,1,1,0]","location_rts":"[922,511,635,443,680,409,576,958,495,1254,637,536,441,483,805,431,419,738,807,541,498,334,589,431,623,739,1128,403,341,624,831]","trial_type":"fractal-mutation","trial_index":49,"time_elapsed":1360418,"internal_node_id":"0.0-5.0-10.0"},{"group":"dihedral group of order 12","fractal_assignment":["../images/pnk_blu.png","../images/grn_prp.png","../images/cyn_red.png","../images/red_prp.png","../images/grn_red.png","../images/ylw_slt.png","../images/wht_red.png","../images/org_blu.png","../images/ylw_pnk.png","../images/grn_blu.png","../images/gry_blk.png","../images/blu_wht.png"],"mutagen_generator_assignment":[1,0],"goal":10,"start":3,"action_noise":0.15,"location_history":"[3,9,3,9,3,4,5,11,10]","action_history":"[1,1,0,1,0,0,1,0]","mutagen_history":"[0,0,1,0,1,1,0,1]","location_rts":"[1441,396,677,414,464,267,340,861]","trial_type":"fractal-mutation","trial_index":50,"time_elapsed":1378558,"internal_node_id":"0.0-5.0-11.0"},{"group":"dihedral group of order 12","fractal_assignment":["../images/pnk_blu.png","../images/grn_prp.png","../images/cyn_red.png","../images/red_prp.png","../images/grn_red.png","../images/ylw_slt.png","../images/wht_red.png","../images/org_blu.png","../images/ylw_pnk.png","../images/grn_blu.png","../images/gry_blk.png","../images/blu_wht.png"],"mutagen_generator_assignment":[1,0],"goal":8,"start":10,"action_noise":0.15,"location_history":"[10,4,10,4,5,0,6,0,1,2,8]","action_history":"[0,1,1,0,0,1,1,0,0,1]","mutagen_history":"[1,0,0,1,1,0,0,1,1,0]","location_rts":"[2881,790,541,185,417,332,647,450,393,241]","trial_type":"fractal-mutation","trial_index":51,"time_elapsed":1401455,"internal_node_id":"0.0-5.0-12.0"},{"group":"dihedral group of order 12","fractal_assignment":["../images/pnk_blu.png","../images/grn_prp.png","../images/cyn_red.png","../images/red_prp.png","../images/grn_red.png","../images/ylw_slt.png","../images/wht_red.png","../images/org_blu.png","../images/ylw_pnk.png","../images/grn_blu.png","../images/gry_blk.png","../images/blu_wht.png"],"mutagen_generator_assignment":[1,0],"goal":4,"start":8,"action_noise":0.15,"location_history":"[8,2,8,2,8,7,1,7,6,11,5,11,5,0,6,11,10,9,8,7,1,7,1,2,8,7,6,0,6,0,1,7,1,2,3,9,3,4]","action_history":"[1,1,0,1,0,1,1,0,0,1,1,0,0,1,0,0,1,0,0,1,1,0,0,1,0,0,1,1,1,0,1,1,0,0,1,1,0]","mutagen_history":"[0,0,1,0,1,0,0,1,1,0,0,1,1,0,1,1,0,1,1,0,0,1,1,0,1,1,0,0,0,1,0,0,1,1,0,0,1]","location_rts":"[1802,529,258,551,500,1032,701,418,325,615,567,427,970,1524,534,819,948,538,810,3884,481,448,3378,686,311,428,207,246,516,497,451,362,723,402,313,447,583]","trial_type":"fractal-mutation","trial_index":52,"time_elapsed":1479211,"internal_node_id":"0.0-5.0-13.0"},{"group":"dihedral group of order 12","fractal_assignment":["../images/pnk_blu.png","../images/grn_prp.png","../images/cyn_red.png","../images/red_prp.png","../images/grn_red.png","../images/ylw_slt.png","../images/wht_red.png","../images/org_blu.png","../images/ylw_pnk.png","../images/grn_blu.png","../images/gry_blk.png","../images/blu_wht.png"],"mutagen_generator_assignment":[1,0],"goal":0,"start":4,"action_noise":0.15,"location_history":"[4,10,9,8,2,8,2,3,4,5,11,5,11,10,4,5,11,10,9,3,4,10,4,10,9,3,9,8,7,6,11,5,0]","action_history":"[1,0,0,1,0,0,0,1,0,1,1,0,0,1,1,0,0,0,1,1,1,1,1,0,1,1,0,0,0,1,1,0]","mutagen_history":"[0,1,1,0,1,1,1,0,1,0,0,1,1,0,0,1,1,1,0,0,0,0,0,1,0,0,1,1,1,0,0,1]","location_rts":"[1775,467,392,594,560,801,777,1133,337,507,582,236,686,944,648,599,565,2973,318,495,778,1105,617,756,881,557,295,679,319,460,408,631]","trial_type":"fractal-mutation","trial_index":53,"time_elapsed":1545522,"internal_node_id":"0.0-5.0-14.0"},{"group":"dihedral group of order 12","fractal_assignment":["../images/pnk_blu.png","../images/grn_prp.png","../images/cyn_red.png","../images/red_prp.png","../images/grn_red.png","../images/ylw_slt.png","../images/wht_red.png","../images/org_blu.png","../images/ylw_pnk.png","../images/grn_blu.png","../images/gry_blk.png","../images/blu_wht.png"],"mutagen_generator_assignment":[1,0],"goal":11,"start":0,"action_noise":0.15,"location_history":"[0,6,0,6,0,1,2,8,7,1,2,8,2,8,2,3,9,8,2,3,4,10,9,3,9,3,4,10,9,3,9,8,2,3,9,8,7,1,7,6,0,6,11]","action_history":"[1,1,0,1,0,0,1,0,1,0,0,1,1,0,0,1,0,0,0,0,1,0,1,1,1,0,1,0,1,1,0,1,1,0,0,0,1,1,0,1,1,0]","mutagen_history":"[0,0,1,0,1,1,0,1,0,1,1,0,0,1,1,0,1,1,1,1,0,1,0,0,0,1,0,1,0,0,1,0,0,1,1,1,0,0,1,0,0,1]","location_rts":"[2545,545,426,1568,43332,421,576,443,776,349,803,971,505,343,418,843,423,644,892,809,988,502,552,521,447,3625,1936,15558,239,415,458,428,1594,819,435,475,636,620,1151,452,540,475]","trial_type":"fractal-mutation","trial_index":54,"time_elapsed":1691735,"internal_node_id":"0.0-5.0-15.0"},{"group":"dihedral group of order 12","fractal_assignment":["../images/pnk_blu.png","../images/grn_prp.png","../images/cyn_red.png","../images/red_prp.png","../images/grn_red.png","../images/ylw_slt.png","../images/wht_red.png","../images/org_blu.png","../images/ylw_pnk.png","../images/grn_blu.png","../images/gry_blk.png","../images/blu_wht.png"],"mutagen_generator_assignment":[1,0],"goal":2,"start":11,"action_noise":0.15,"location_history":"[11,10,4,5,0,1,2]","action_history":"[0,1,0,0,0,0]","mutagen_history":"[1,0,1,1,1,1]","location_rts":"[668,2106,760,466,734,509]","trial_type":"fractal-mutation","trial_index":55,"time_elapsed":1708259,"internal_node_id":"0.0-5.0-16.0"},{"group":"dihedral group of order 12","fractal_assignment":["../images/pnk_blu.png","../images/grn_prp.png","../images/cyn_red.png","../images/red_prp.png","../images/grn_red.png","../images/ylw_slt.png","../images/wht_red.png","../images/org_blu.png","../images/ylw_pnk.png","../images/grn_blu.png","../images/gry_blk.png","../images/blu_wht.png"],"mutagen_generator_assignment":[1,0],"goal":7,"start":2,"action_noise":0.15,"location_history":"[2,8,2,8,7]","action_history":"[1,1,0,0]","mutagen_history":"[0,0,1,1]","location_rts":"[1890,428,776,1233]","trial_type":"fractal-mutation","trial_index":56,"time_elapsed":1720820,"internal_node_id":"0.0-5.0-17.0"},{"group":"dihedral group of order 12","fractal_assignment":["../images/pnk_blu.png","../images/grn_prp.png","../images/cyn_red.png","../images/red_prp.png","../images/grn_red.png","../images/ylw_slt.png","../images/wht_red.png","../images/org_blu.png","../images/ylw_pnk.png","../images/grn_blu.png","../images/gry_blk.png","../images/blu_wht.png"],"mutagen_generator_assignment":[1,0],"goal":5,"start":7,"action_noise":0.15,"location_history":"[7,6,0,1,7,6,11,10,4,10,9,8,2,3,9,3,9,8,7,1,7,6,0,1,7,1,7,1,2,3,9,8,7,6,0,6,11,10,9,3,4,10,9,8,2,3,9,3,9,3,4,5]","action_history":"[0,1,0,1,0,0,1,1,1,0,0,0,0,1,1,1,0,0,1,1,0,1,0,0,1,1,1,0,0,1,0,0,0,1,1,1,0,0,1,1,0,0,0,1,0,1,0,1,1,0,0]","mutagen_history":"[1,0,1,0,1,1,0,0,0,1,1,1,1,0,0,0,1,1,0,0,1,0,1,1,0,0,0,1,1,0,1,1,1,0,0,0,1,1,0,0,1,1,1,0,1,0,1,0,0,1,1]","location_rts":"[2320,311,868,672,606,410,1261,739,1053,646,985,606,918,774,559,410,532,372,677,1049,302,404,381,255,800,345,414,406,586,7993,2690,539,607,1065,446,434,1515,493,745,573,458,494,499,454,831,400,692,426,543,361,566]","trial_type":"fractal-mutation","trial_index":57,"time_elapsed":1830979,"internal_node_id":"0.0-5.0-18.0"},{"group":"dihedral group of order 12","fractal_assignment":["../images/pnk_blu.png","../images/grn_prp.png","../images/cyn_red.png","../images/red_prp.png","../images/grn_red.png","../images/ylw_slt.png","../images/wht_red.png","../images/org_blu.png","../images/ylw_pnk.png","../images/grn_blu.png","../images/gry_blk.png","../images/blu_wht.png"],"mutagen_generator_assignment":[1,0],"goal":6,"start":5,"action_noise":0.15,"location_history":"[5,11,10,9,3,4,5,0,6]","action_history":"[1,0,1,1,1,0,0,1]","mutagen_history":"[0,1,0,0,0,1,1,0]","location_rts":"[43438,1568,11573,1170,1707,349,251,345]","trial_type":"fractal-mutation","trial_index":58,"time_elapsed":1904692,"internal_node_id":"0.0-5.0-19.0"},{"group":"dihedral group of order 12","fractal_assignment":["../images/pnk_blu.png","../images/grn_prp.png","../images/cyn_red.png","../images/red_prp.png","../images/grn_red.png","../images/ylw_slt.png","../images/wht_red.png","../images/org_blu.png","../images/ylw_pnk.png","../images/grn_blu.png","../images/gry_blk.png","../images/blu_wht.png"],"mutagen_generator_assignment":[1,0],"goal":3,"start":6,"action_noise":0.15,"location_history":"[6,11,10,9,8,2,8,2,8,2,3]","action_history":"[0,0,0,1,0,0,1,1,1,0]","mutagen_history":"[1,1,1,0,1,1,0,0,0,1]","location_rts":"[813,379,560,575,305,402,1458,792,540,472]","trial_type":"fractal-mutation","trial_index":59,"time_elapsed":1927063,"internal_node_id":"0.0-5.0-20.0"},{"group":"dihedral group of order 12","fractal_assignment":["../images/pnk_blu.png","../images/grn_prp.png","../images/cyn_red.png","../images/red_prp.png","../images/grn_red.png","../images/ylw_slt.png","../images/wht_red.png","../images/org_blu.png","../images/ylw_pnk.png","../images/grn_blu.png","../images/gry_blk.png","../images/blu_wht.png"],"mutagen_generator_assignment":[1,0],"goal":1,"start":3,"action_noise":0.15,"location_history":"[3,9,3,4,5,11,10,4,5,0,6,0,6,11,10,4,10,9,3,9,3,9,3,4,5,0,1]","action_history":"[1,0,0,0,1,0,0,1,0,1,1,1,0,0,1,1,0,0,1,1,1,0,0,0,0,1]","mutagen_history":"[0,1,1,1,0,1,1,0,1,0,0,0,1,1,0,0,1,1,0,0,0,1,1,1,1,0]","location_rts":"[4082,1096,393,867,653,422,1105,647,412,280,502,1005,398,669,452,552,449,314,334,466,559,460,244,728,580,403]","trial_type":"fractal-mutation","trial_index":60,"time_elapsed":1981385,"internal_node_id":"0.0-5.0-21.0"},{"group":"dihedral group of order 12","fractal_assignment":["../images/pnk_blu.png","../images/grn_prp.png","../images/cyn_red.png","../images/red_prp.png","../images/grn_red.png","../images/ylw_slt.png","../images/wht_red.png","../images/org_blu.png","../images/ylw_pnk.png","../images/grn_blu.png","../images/gry_blk.png","../images/blu_wht.png"],"mutagen_generator_assignment":[1,0],"goal":9,"start":1,"action_noise":0.15,"location_history":"[1,7,1,7,6,11,5,11,10,4,10,9]","action_history":"[0,1,1,0,0,1,0,0,1,1,0]","mutagen_history":"[1,0,0,1,1,0,1,1,0,0,1]","location_rts":"[895,789,504,564,803,326,679,511,401,394,418]","trial_type":"fractal-mutation","trial_index":61,"time_elapsed":2004986,"internal_node_id":"0.0-5.0-22.0"},{"group":"dihedral group of order 12","fractal_assignment":["../images/pnk_blu.png","../images/grn_prp.png","../images/cyn_red.png","../images/red_prp.png","../images/grn_red.png","../images/ylw_slt.png","../images/wht_red.png","../images/org_blu.png","../images/ylw_pnk.png","../images/grn_blu.png","../images/gry_blk.png","../images/blu_wht.png"],"mutagen_generator_assignment":[1,0],"goal":3,"start":9,"action_noise":0.15,"location_history":"[9,8,2,8,2,3]","action_history":"[1,0,0,1,0]","mutagen_history":"[0,1,1,0,1]","location_rts":"[1534,612,372,1395,492]","trial_type":"fractal-mutation","trial_index":62,"time_elapsed":2019142,"internal_node_id":"0.0-5.0-23.0"},{"group":"dihedral group of order 12","fractal_assignment":["../images/pnk_blu.png","../images/grn_prp.png","../images/cyn_red.png","../images/red_prp.png","../images/grn_red.png","../images/ylw_slt.png","../images/wht_red.png","../images/org_blu.png","../images/ylw_pnk.png","../images/grn_blu.png","../images/gry_blk.png","../images/blu_wht.png"],"mutagen_generator_assignment":[1,0],"goal":4,"start":3,"action_noise":0.15,"location_history":"[3,4]","action_history":"[0]","mutagen_history":"[1]","location_rts":"[1959]","trial_type":"fractal-mutation","trial_index":63,"time_elapsed":2025901,"internal_node_id":"0.0-5.0-24.0"},{"group":"dihedral group of order 12","fractal_assignment":["../images/pnk_blu.png","../images/grn_prp.png","../images/cyn_red.png","../images/red_prp.png","../images/grn_red.png","../images/ylw_slt.png","../images/wht_red.png","../images/org_blu.png","../images/ylw_pnk.png","../images/grn_blu.png","../images/gry_blk.png","../images/blu_wht.png"],"mutagen_generator_assignment":[1,0],"goal":2,"start":4,"action_noise":0.15,"location_history":"[4,10,9,3,4,5,0,1,2]","action_history":"[1,0,1,0,0,1,0,0]","mutagen_history":"[0,1,0,1,1,0,1,1]","location_rts":"[1843,462,958,440,264,799,340,125]","trial_type":"fractal-mutation","trial_index":64,"time_elapsed":2044221,"internal_node_id":"0.0-5.0-25.0"},{"group":"dihedral group of order 12","fractal_assignment":["../images/pnk_blu.png","../images/grn_prp.png","../images/cyn_red.png","../images/red_prp.png","../images/grn_red.png","../images/ylw_slt.png","../images/wht_red.png","../images/org_blu.png","../images/ylw_pnk.png","../images/grn_blu.png","../images/gry_blk.png","../images/blu_wht.png"],"mutagen_generator_assignment":[1,0],"goal":1,"start":2,"action_noise":0.15,"location_history":"[2,3,4,5,11,10,9,3,9,3,4,5,0,6,0,1]","action_history":"[1,0,0,1,0,0,0,0,0,0,1,0,1,1,0]","mutagen_history":"[0,1,1,0,1,1,1,1,1,1,0,1,0,0,1]","location_rts":"[1764,701,769,781,413,432,299,1236,676,743,1491,606,602,255,542]","trial_type":"fractal-mutation","trial_index":65,"time_elapsed":2077169,"internal_node_id":"0.0-5.0-26.0"},{"group":"dihedral group of order 12","fractal_assignment":["../images/pnk_blu.png","../images/grn_prp.png","../images/cyn_red.png","../images/red_prp.png","../images/grn_red.png","../images/ylw_slt.png","../images/wht_red.png","../images/org_blu.png","../images/ylw_pnk.png","../images/grn_blu.png","../images/gry_blk.png","../images/blu_wht.png"],"mutagen_generator_assignment":[1,0],"goal":8,"start":1,"action_noise":0.15,"location_history":"[1,7,1,2,3,4,10,4,10,4,5,0,1,2,3,9,3,4,5,11,5,0,6,0,1,7,1,7,6,0,1,7,6,0,6,11,10,4,5,0,1,7,1,7,6,0,1,2,8]","action_history":"[0,1,0,0,0,1,1,1,1,0,0,0,0,0,1,1,0,0,1,0,0,1,1,0,0,1,1,0,0,0,0,0,1,0,0,0,1,0,0,0,1,1,1,0,0,0,1,1]","mutagen_history":"[1,0,1,1,1,0,0,0,0,1,1,1,1,1,0,0,1,1,0,1,1,0,0,1,1,0,0,1,1,1,1,1,0,1,1,1,0,1,1,1,0,0,0,1,1,1,0,0]","location_rts":"[1104,914,643,444,400,742,456,578,435,452,250,418,424,564,471,340,338,293,225,575,732,386,491,672,1400,536,439,309,421,444,805,2132,787,852,665,574,804,580,504,524,221,369,413,394,298,717,1273,402]","trial_type":"fractal-mutation","trial_index":66,"time_elapsed":2168742,"internal_node_id":"0.0-5.0-27.0"},{"group":"dihedral group of order 12","fractal_assignment":["../images/pnk_blu.png","../images/grn_prp.png","../images/cyn_red.png","../images/red_prp.png","../images/grn_red.png","../images/ylw_slt.png","../images/wht_red.png","../images/org_blu.png","../images/ylw_pnk.png","../images/grn_blu.png","../images/gry_blk.png","../images/blu_wht.png"],"mutagen_generator_assignment":[1,0],"goal":10,"start":8,"action_noise":0.15,"location_history":"[8,7,1,2,3,9,3,4,5,11,5,11,10]","action_history":"[0,1,1,0,1,1,0,0,1,1,1,0]","mutagen_history":"[1,0,0,1,0,0,1,1,0,0,0,1]","location_rts":"[18999,1852,1078,476,696,666,584,785,387,983,752,386]","trial_type":"fractal-mutation","trial_index":67,"time_elapsed":2214727,"internal_node_id":"0.0-5.0-28.0"},{"group":"dihedral group of order 12","fractal_assignment":["../images/pnk_blu.png","../images/grn_prp.png","../images/cyn_red.png","../images/red_prp.png","../images/grn_red.png","../images/ylw_slt.png","../images/wht_red.png","../images/org_blu.png","../images/ylw_pnk.png","../images/grn_blu.png","../images/gry_blk.png","../images/blu_wht.png"],"mutagen_generator_assignment":[1,0],"goal":7,"start":10,"action_noise":0.15,"location_history":"[10,9,3,9,8,2,3,4,10,4,5,0,1,7]","action_history":"[0,1,1,0,1,1,0,0,1,0,0,0,1]","mutagen_history":"[1,0,0,1,0,0,1,1,0,1,1,1,0]","location_rts":"[1364,645,757,324,365,560,191,420,318,642,737,938,717]","trial_type":"fractal-mutation","trial_index":68,"time_elapsed":2242504,"internal_node_id":"0.0-5.0-29.0"},{"group":"dihedral group of order 12","fractal_assignment":["../images/pnk_blu.png","../images/grn_prp.png","../images/cyn_red.png","../images/red_prp.png","../images/grn_red.png","../images/ylw_slt.png","../images/wht_red.png","../images/org_blu.png","../images/ylw_pnk.png","../images/grn_blu.png","../images/gry_blk.png","../images/blu_wht.png"],"mutagen_generator_assignment":[1,0],"goal":6,"start":7,"action_noise":0.15,"location_history":"[7,6]","action_history":"[0]","mutagen_history":"[1]","location_rts":"[1224]","trial_type":"fractal-mutation","trial_index":69,"time_elapsed":2248532,"internal_node_id":"0.0-5.0-30.0"},{"group":"dihedral group of order 12","fractal_assignment":["../images/pnk_blu.png","../images/grn_prp.png","../images/cyn_red.png","../images/red_prp.png","../images/grn_red.png","../images/ylw_slt.png","../images/wht_red.png","../images/org_blu.png","../images/ylw_pnk.png","../images/grn_blu.png","../images/gry_blk.png","../images/blu_wht.png"],"mutagen_generator_assignment":[1,0],"goal":0,"start":6,"action_noise":0.15,"location_history":"[6,11,10,9,8,7,1,7,1,7,1,7,6,11,10,4,10,9,8,7,1,2,8,2,3,4,5,11,5,11,10,4,10,9,8,2,8,2,3,9,3,4,10,4,5,0]","action_history":"[0,0,0,0,0,1,1,1,0,1,1,0,0,1,1,0,0,0,0,0,1,1,0,0,0,0,1,1,1,0,1,1,0,1,1,0,0,0,1,1,1,1,1,1,0]","mutagen_history":"[1,1,1,1,1,0,0,0,1,0,0,1,1,0,0,1,1,1,1,1,0,0,1,1,1,1,0,0,0,1,0,0,1,0,0,1,1,1,0,0,0,0,0,0,1]","location_rts":"[1186,456,463,535,629,784,426,596,358,668,412,403,431,673,377,370,488,1076,623,850,1469,348,387,308,429,630,245,477,492,214,276,375,716,460,808,611,530,515,740,496,734,987,699,569,434]","trial_type":"fractal-mutation","trial_index":70,"time_elapsed":2334304,"internal_node_id":"0.0-5.0-31.0"},{"group":"dihedral group of order 12","fractal_assignment":["../images/pnk_blu.png","../images/grn_prp.png","../images/cyn_red.png","../images/red_prp.png","../images/grn_red.png","../images/ylw_slt.png","../images/wht_red.png","../images/org_blu.png","../images/ylw_pnk.png","../images/grn_blu.png","../images/gry_blk.png","../images/blu_wht.png"],"mutagen_generator_assignment":[1,0],"goal":11,"start":0,"action_noise":0.15,"location_history":"[0,6,0,1,2,8,2,3,4,10,4,10,9,8,7,1,7,6,0,6,0,1,2,3,4,10,4,10,9,3,9,3,4,10,9,8,2,8,7,1,7,1,2,8,7,6,0,6,11]","action_history":"[1,1,0,0,1,1,0,0,1,1,1,0,0,0,1,1,0,1,1,1,1,0,0,0,1,1,1,0,1,1,0,0,1,0,0,0,0,0,1,1,1,0,0,0,0,1,1,0]","mutagen_history":"[0,0,1,1,0,0,1,1,0,0,0,1,1,1,0,0,1,0,0,0,0,1,1,1,0,0,0,1,0,0,1,1,0,1,1,1,1,1,0,0,0,1,1,1,1,0,0,1]","location_rts":"[81480,181,671,295,1862,366,386,388,215,254,468,354,343,514,415,134,241,109,196,138,265,278,489,1249,1463,948,463,445,679,558,596,677,423,249,373,725,2888,427,241,336,2178,618,413,279,352,169,496,326]","trial_type":"fractal-mutation","trial_index":71,"time_elapsed":2505339,"internal_node_id":"0.0-5.0-32.0"},{"group":"dihedral group of order 12","fractal_assignment":["../images/pnk_blu.png","../images/grn_prp.png","../images/cyn_red.png","../images/red_prp.png","../images/grn_red.png","../images/ylw_slt.png","../images/wht_red.png","../images/org_blu.png","../images/ylw_pnk.png","../images/grn_blu.png","../images/gry_blk.png","../images/blu_wht.png"],"mutagen_generator_assignment":[1,0],"goal":9,"start":11,"action_noise":0.15,"location_history":"[11,5,0,1,7,6,11,10,9]","action_history":"[0,0,0,1,0,0,0,1]","mutagen_history":"[1,1,1,0,1,1,1,0]","location_rts":"[854,1088,977,1975,499,743,437,676]","trial_type":"fractal-mutation","trial_index":72,"time_elapsed":2526240,"internal_node_id":"0.0-5.0-33.0"},{"group":"dihedral group of order 12","fractal_assignment":["../images/pnk_blu.png","../images/grn_prp.png","../images/cyn_red.png","../images/red_prp.png","../images/grn_red.png","../images/ylw_slt.png","../images/wht_red.png","../images/org_blu.png","../images/ylw_pnk.png","../images/grn_blu.png","../images/gry_blk.png","../images/blu_wht.png"],"mutagen_generator_assignment":[1,0],"goal":5,"start":9,"action_noise":0.15,"location_history":"[9,3,9,8,7,6,11,10,9,3,9,3,9,8,2,8,7,6,11,10,9,8,7,1,7,6,0,6,0,6,11,10,4,5]","action_history":"[1,1,0,0,0,0,0,0,1,1,0,0,0,1,1,0,0,0,0,0,0,0,1,1,1,1,1,1,1,0,0,1,1]","mutagen_history":"[0,0,1,1,1,1,1,1,0,0,1,1,1,0,0,1,1,1,1,1,1,1,0,0,0,0,0,0,0,1,1,0,0]","location_rts":"[1201,398,769,90,1968,375,379,484,112,305,945,729,1171,4077,472,389,270,348,213,372,1658,559,409,366,349,401,265,208,169,339,676,477,381]","trial_type":"fractal-mutation","trial_index":73,"time_elapsed":2592340,"internal_node_id":"0.0-5.0-34.0"},{"view_history":"[{\"page_index\":0,\"viewing_time\":6394}]","rt":6394,"trial_type":"instructions","trial_index":74,"time_elapsed":2599738,"internal_node_id":"0.0-6.0"},{"rt":4014,"responses":"{\"Q0\":\"\"}","trial_type":"survey-text","trial_index":75,"time_elapsed":2604759,"internal_node_id":"0.0-7.0"}]