[{"view_history":"[{\"page_index\":0,\"viewing_time\":150180},{\"page_index\":1,\"viewing_time\":24531}]","rt":174713,"trial_type":"instructions","trial_index":0,"time_elapsed":174716,"internal_node_id":"0.0-0.0"},{"view_history":"[{\"page_index\":0,\"viewing_time\":1342},{\"page_index\":1,\"viewing_time\":6733}]","rt":8076,"trial_type":"instructions","trial_index":1,"time_elapsed":183794,"internal_node_id":"0.0-1.0"},{"group":"dihedral group of order 12","room_assignment":["grey","pink","blue","red","yellow","olive","cyan","green","purple","brown","ivory","orange"],"door_color_assignment":["white","black"],"door_generator_assignment":[0,1],"goal":7,"start":11,"action_noise":0.15,"location_history":"[11,10,4,10,4,5,11,10,4,5,11,5,11,10,4,5,11,10,4,10,9,3,4,5,11,5,0,1,2,8,7]","action_history":"[0,1,1,1,0,0,1,1,1,1,1,1,0,1,0,1,0,1,1,0,1,0,1,1,0,1,0,0,0,0]","door_history":"[0,1,1,1,0,0,1,1,1,1,1,1,0,1,0,1,0,1,1,0,1,0,1,1,0,1,0,0,0,0]","location_rts":"[5067,2093,1052,680,927,645,456,369,1191,655,933,694,850,454,649,440,765,490,1383,375,593,3300,1211,566,417,639,408,1529,1971,1038]","trial_type":"two-door-navigation","trial_index":2,"time_elapsed":249670,"internal_node_id":"0.0-2.0-0.0"},{"group":"dihedral group of order 12","room_assignment":["grey","pink","blue","red","yellow","olive","cyan","green","purple","brown","ivory","orange"],"door_color_assignment":["white","black"],"door_generator_assignment":[0,1],"goal":8,"start":7,"action_noise":0.15,"location_history":"[7,6,11,10,4,5,0,1,2,3,4,5,0,1,2,8]","action_history":"[0,0,0,0,0,0,0,0,0,0,0,0,0,0,1]","door_history":"[0,0,0,0,0,0,0,0,0,0,0,0,0,0,1]","location_rts":"[8135,783,350,363,337,320,398,1481,618,698,503,710,303,248,846]","trial_type":"two-door-navigation","trial_index":3,"time_elapsed":284542,"internal_node_id":"0.0-2.0-1.0"},{"group":"dihedral group of order 12","room_assignment":["grey","pink","blue","red","yellow","olive","cyan","green","purple","brown","ivory","orange"],"door_color_assignment":["white","black"],"door_generator_assignment":[0,1],"goal":4,"start":8,"action_noise":0.15,"location_history":"[8,7,6,11,10,9,8,7,6,11,10,9,8,7,1,7,1,2,8,2,3,9,3,9,8,2,8,2,3,4]","action_history":"[0,0,0,0,0,0,0,0,0,0,0,0,1,1,1,1,0,1,1,1,1,1,0,0,1,1,0,0,0]","door_history":"[0,0,0,0,0,0,0,0,0,0,0,0,1,1,1,1,0,1,1,1,1,1,0,0,1,1,0,0,0]","location_rts":"[2795,1974,326,604,366,432,615,678,416,409,538,630,953,900,800,638,1175,1070,545,527,1048,862,837,614,825,776,1496,663,656]","trial_type":"two-door-navigation","trial_index":4,"time_elapsed":341696,"internal_node_id":"0.0-2.0-2.0"},{"group":"dihedral group of order 12","room_assignment":["grey","pink","blue","red","yellow","olive","cyan","green","purple","brown","ivory","orange"],"door_color_assignment":["white","black"],"door_generator_assignment":[0,1],"goal":5,"start":4,"action_noise":0.15,"location_history":"[4,5]","action_history":"[0]","door_history":"[0]","location_rts":"[1552]","trial_type":"two-door-navigation","trial_index":5,"time_elapsed":347771,"internal_node_id":"0.0-2.0-3.0"},{"group":"dihedral group of order 12","room_assignment":["grey","pink","blue","red","yellow","olive","cyan","green","purple","brown","ivory","orange"],"door_color_assignment":["white","black"],"door_generator_assignment":[0,1],"goal":10,"start":5,"action_noise":0.15,"location_history":"[5,11,10]","action_history":"[0,0]","door_history":"[0,0]","location_rts":"[1306,2839]","trial_type":"two-door-navigation","trial_index":6,"time_elapsed":357447,"internal_node_id":"0.0-2.0-4.0"},{"group":"dihedral group of order 12","room_assignment":["grey","pink","blue","red","yellow","olive","cyan","green","purple","brown","ivory","orange"],"door_color_assignment":["white","black"],"door_generator_assignment":[0,1],"goal":1,"start":10,"action_noise":0.15,"location_history":"[10,4,5,11,5,11,10,4,5,11,5,11,10,4,10,9,8,2,8,7,1]","action_history":"[1,1,1,1,1,0,1,0,1,1,1,0,0,1,0,0,0,1,0,0]","door_history":"[1,1,1,1,1,0,1,0,1,1,1,0,0,1,0,0,0,1,0,0]","location_rts":"[1555,2661,458,734,512,483,645,732,483,974,508,1212,477,1482,914,1195,1195,1338,884,487]","trial_type":"two-door-navigation","trial_index":7,"time_elapsed":400194,"internal_node_id":"0.0-2.0-5.0"},{"group":"dihedral group of order 12","room_assignment":["grey","pink","blue","red","yellow","olive","cyan","green","purple","brown","ivory","orange"],"door_color_assignment":["white","black"],"door_generator_assignment":[0,1],"goal":6,"start":1,"action_noise":0.15,"location_history":"[1,7,1,2,8,7,1,2,3,4,10,9,8,2,3,4,5,11,5,11,10,4,5,11,10,4,5,0,1,7,1,2,8,2,8,7,1,2,3,4,10,4,5,0,1,7,1,7,1,2,3,9,3,9,3,9,8,7,6]","action_history":"[0,1,0,1,0,1,0,0,0,1,1,0,1,0,0,0,1,1,1,0,1,0,1,0,1,0,0,0,1,0,1,1,1,1,0,1,1,0,0,0,0,0,0,0,0,0,1,1,0,1,1,1,1,1,1,0,0,0]","door_history":"[0,1,0,1,0,1,0,0,0,1,1,0,1,0,0,0,1,1,1,0,1,0,1,0,1,0,0,0,1,0,1,1,1,1,0,1,1,0,0,0,0,0,0,0,0,0,1,1,0,1,1,1,1,1,1,0,0,0]","location_rts":"[2042,7601,31741,1700,625,675,743,520,351,793,759,820,979,1739,1329,1855,632,385,408,491,892,620,596,386,569,593,389,1122,1332,787,601,400,1012,1008,932,1256,1619,1238,787,778,510,478,1289,510,575,336,1041,412,1612,968,342,483,449,465,367,608,1686,445]","trial_type":"two-door-navigation","trial_index":8,"time_elapsed":548199,"internal_node_id":"0.0-2.0-6.0"},{"group":"dihedral group of order 12","room_assignment":["grey","pink","blue","red","yellow","olive","cyan","green","purple","brown","ivory","orange"],"door_color_assignment":["white","black"],"door_generator_assignment":[0,1],"goal":9,"start":6,"action_noise":0.15,"location_history":"[6,11,5,11,10,4,10,4,10,9]","action_history":"[1,1,1,0,1,1,1,1,0]","door_history":"[1,1,1,0,1,1,1,1,0]","location_rts":"[1814,645,597,928,541,637,407,362,491]","trial_type":"two-door-navigation","trial_index":9,"time_elapsed":567247,"internal_node_id":"0.0-2.0-7.0"},{"group":"dihedral group of order 12","room_assignment":["grey","pink","blue","red","yellow","olive","cyan","green","purple","brown","ivory","orange"],"door_color_assignment":["white","black"],"door_generator_assignment":[0,1],"goal":2,"start":9,"action_noise":0.15,"location_history":"[9,3,4,5,11,5,11,10,4,5,11,10,9,8,2]","action_history":"[1,1,1,1,1,1,1,1,0,1,0,0,0,0]","door_history":"[1,1,1,1,1,1,1,1,0,1,0,0,0,0]","location_rts":"[3175,913,625,474,665,1017,1025,728,684,1808,682,307,513,1078]","trial_type":"two-door-navigation","trial_index":10,"time_elapsed":598656,"internal_node_id":"0.0-2.0-8.0"},{"group":"dihedral group of order 12","room_assignment":["grey","pink","blue","red","yellow","olive","cyan","green","purple","brown","ivory","orange"],"door_color_assignment":["white","black"],"door_generator_assignment":[0,1],"goal":0,"start":2,"action_noise":0.15,"location_history":"[2,8,2,3,9,8,7,6,0]","action_history":"[1,1,1,1,1,0,0,1]","door_history":"[1,1,1,1,1,0,0,1]","location_rts":"[2234,684,1416,3528,920,1960,715,1148]","trial_type":"two-door-navigation","trial_index":11,"time_elapsed":622874,"internal_node_id":"0.0-2.0-9.0"},{"group":"dihedral group of order 12","room_assignment":["grey","pink","blue","red","yellow","olive","cyan","green","purple","brown","ivory","orange"],"door_color_assignment":["white","black"],"door_generator_assignment":[0,1],"goal":3,"start":0,"action_noise":0.15,"location_history":"[0,1,2,8,2,3]","action_history":"[0,0,1,1,1]","door_history":"[0,0,1,1,1]","location_rts":"[1182,937,1385,617,494]","trial_type":"two-door-navigation","trial_index":12,"time_elapsed":636079,"internal_node_id":"0.0-2.0-10.0"},{"group":"dihedral group of order 12","room_assignment":["grey","pink","blue","red","yellow","olive","cyan","green","purple","brown","ivory","orange"],"door_color_assignment":["white","black"],"door_generator_assignment":[0,1],"goal":10,"start":3,"action_noise":0.15,"location_history":"[3,4,5,11,5,11,10]","action_history":"[0,0,1,1,1,0]","door_history":"[0,0,1,1,1,0]","location_rts":"[1460,793,1165,494,919,905]","trial_type":"two-door-navigation","trial_index":13,"time_elapsed":651403,"internal_node_id":"0.0-2.0-11.0"},{"group":"dihedral group of order 12","room_assignment":["grey","pink","blue","red","yellow","olive","cyan","green","purple","brown","ivory","orange"],"door_color_assignment":["white","black"],"door_generator_assignment":[0,1],"goal":8,"start":10,"action_noise":0.15,"location_history":"[10,4,10,4,5,0,1,2,8]","action_history":"[1,1,1,0,0,0,1,1]","door_history":"[1,1,1,0,0,0,1,1]","location_rts":"[1599,3054,623,610,1205,829,1226,877]","trial_type":"two-door-navigation","trial_index":14,"time_elapsed":673034,"internal_node_id":"0.0-2.0-12.0"},{"group":"dihedral group of order 12","room_assignment":["grey","pink","blue","red","yellow","olive","cyan","green","purple","brown","ivory","orange"],"door_color_assignment":["white","black"],"door_generator_assignment":[0,1],"goal":4,"start":8,"action_noise":0.15,"location_history":"[8,7,6,0,1,2,3,4]","action_history":"[0,0,0,0,0,0,0]","door_history":"[0,0,0,0,0,0,0]","location_rts":"[2356,1127,827,977,1289,781,653]","trial_type":"two-door-navigation","trial_index":15,"time_elapsed":691659,"internal_node_id":"0.0-2.0-13.0"},{"group":"dihedral group of order 12","room_assignment":["grey","pink","blue","red","yellow","olive","cyan","green","purple","brown","ivory","orange"],"door_color_assignment":["white","black"],"door_generator_assignment":[0,1],"goal":0,"start":4,"action_noise":0.15,"location_history":"[4,10,9,3,4,5,11,5,11,10,9,8,2,3,4,5,0]","action_history":"[1,0,0,0,0,1,1,1,0,0,0,1,1,0,0,0]","door_history":"[1,0,0,0,0,1,1,1,0,0,0,1,1,0,0,0]","location_rts":"[1878,1588,1218,1165,581,1248,1479,693,730,649,944,1016,725,558,671,585]","trial_type":"two-door-navigation","trial_index":16,"time_elapsed":727111,"internal_node_id":"0.0-2.0-14.0"},{"group":"dihedral group of order 12","room_assignment":["grey","pink","blue","red","yellow","olive","cyan","green","purple","brown","ivory","orange"],"door_color_assignment":["white","black"],"door_generator_assignment":[0,1],"goal":11,"start":0,"action_noise":0.15,"location_history":"[0,6,0,6,11]","action_history":"[1,1,1,0]","door_history":"[1,1,1,0]","location_rts":"[3639,921,823,948]","trial_type":"two-door-navigation","trial_index":17,"time_elapsed":740990,"internal_node_id":"0.0-2.0-15.0"},{"group":"dihedral group of order 12","room_assignment":["grey","pink","blue","red","yellow","olive","cyan","green","purple","brown","ivory","orange"],"door_color_assignment":["white","black"],"door_generator_assignment":[0,1],"goal":2,"start":11,"action_noise":0.15,"location_history":"[11,5,11,5,0,1,7,1,2]","action_history":"[1,1,0,0,0,1,1,1]","door_history":"[1,1,0,0,0,1,1,1]","location_rts":"[12516,570,830,1161,1080,972,645,965]","trial_type":"two-door-navigation","trial_index":18,"time_elapsed":771336,"internal_node_id":"0.0-2.0-16.0"},{"group":"dihedral group of order 12","room_assignment":["grey","pink","blue","red","yellow","olive","cyan","green","purple","brown","ivory","orange"],"door_color_assignment":["white","black"],"door_generator_assignment":[0,1],"goal":7,"start":2,"action_noise":0.15,"location_history":"[2,3,9,3,9,3,4,5,0,1,2,3,4,10,9,3,4,5,11,5,11,5,0,6,0,6,11,5,11,10,4,5,11,5,0,6,11,10,9,8,2,8,7]","action_history":"[0,0,1,1,1,0,0,0,0,0,0,0,1,0,1,1,0,1,1,1,1,0,1,1,1,0,1,1,0,0,0,1,1,0,0,0,0,0,0,1,1,0]","door_history":"[0,0,1,1,1,0,0,0,0,0,0,0,1,0,1,1,0,1,1,1,1,0,1,1,1,0,1,1,0,0,0,1,1,0,0,0,0,0,0,1,1,0]","location_rts":"[2539,2233,965,419,1323,1300,1392,441,398,455,498,1814,861,845,480,663,1481,1812,792,464,379,458,520,934,421,1089,515,487,713,440,660,869,3362,792,431,320,695,365,528,2661,858,1606]","trial_type":"two-door-navigation","trial_index":19,"time_elapsed":857713,"internal_node_id":"0.0-2.0-17.0"},{"group":"dihedral group of order 12","room_assignment":["grey","pink","blue","red","yellow","olive","cyan","green","purple","brown","ivory","orange"],"door_color_assignment":["white","black"],"door_generator_assignment":[0,1],"goal":5,"start":7,"action_noise":0.15,"location_history":"[7,6,11,5]","action_history":"[0,0,1]","door_history":"[0,0,1]","location_rts":"[1007,1124,748]","trial_type":"two-door-navigation","trial_index":20,"time_elapsed":867137,"internal_node_id":"0.0-2.0-18.0"},{"group":"dihedral group of order 12","room_assignment":["grey","pink","blue","red","yellow","olive","cyan","green","purple","brown","ivory","orange"],"door_color_assignment":["white","black"],"door_generator_assignment":[0,1],"goal":6,"start":5,"action_noise":0.15,"location_history":"[5,11,5,11,5,0,1,2,3,9,8,7,1,2,8,7,1,2,8,2,8,7,6]","action_history":"[0,1,1,1,0,1,1,0,1,0,0,0,0,0,0,1,1,0,1,1,0,0]","door_history":"[0,1,1,1,0,1,1,0,1,0,0,0,0,0,0,1,1,0,1,1,0,0]","location_rts":"[1146,707,668,577,815,1172,1008,858,580,597,345,379,390,650,1361,705,1540,977,717,890,1038,713]","trial_type":"two-door-navigation","trial_index":21,"time_elapsed":910810,"internal_node_id":"0.0-2.0-19.0"},{"group":"dihedral group of order 12","room_assignment":["grey","pink","blue","red","yellow","olive","cyan","green","purple","brown","ivory","orange"],"door_color_assignment":["white","black"],"door_generator_assignment":[0,1],"goal":3,"start":6,"action_noise":0.15,"location_history":"[6,0,6,11,5,11,5,0,1,2,8,7,1,7,6,0,1,2,3]","action_history":"[1,1,0,1,1,1,0,0,0,1,0,1,0,0,0,0,0,0]","door_history":"[1,1,0,1,1,1,0,0,0,1,0,1,0,0,0,0,0,0]","location_rts":"[2016,550,1118,1149,397,600,9399,3524,798,1836,710,1443,821,454,576,433,602,673]","trial_type":"two-door-navigation","trial_index":22,"time_elapsed":959677,"internal_node_id":"0.0-2.0-20.0"},{"group":"dihedral group of order 12","room_assignment":["grey","pink","blue","red","yellow","olive","cyan","green","purple","brown","ivory","orange"],"door_color_assignment":["white","black"],"door_generator_assignment":[0,1],"goal":1,"start":3,"action_noise":0.15,"location_history":"[3,9,3,4,10,4,5,0,1]","action_history":"[1,1,0,1,0,0,0,0]","door_history":"[1,1,0,1,0,0,0,0]","location_rts":"[2276,511,1286,999,794,739,571,576]","trial_type":"two-door-navigation","trial_index":23,"time_elapsed":979037,"internal_node_id":"0.0-2.0-21.0"},{"group":"dihedral group of order 12","room_assignment":["grey","pink","blue","red","yellow","olive","cyan","green","purple","brown","ivory","orange"],"door_color_assignment":["white","black"],"door_generator_assignment":[0,1],"goal":9,"start":1,"action_noise":0.15,"location_history":"[1,7,1,2,8,2,3,4,10,9]","action_history":"[1,1,0,1,1,0,0,1,0]","door_history":"[1,1,0,1,1,0,0,1,0]","location_rts":"[1398,329,1284,708,874,1215,712,990,643]","trial_type":"two-door-navigation","trial_index":24,"time_elapsed":999810,"internal_node_id":"0.0-2.0-22.0"},{"group":"dihedral group of order 12","room_assignment":["grey","pink","blue","red","yellow","olive","cyan","green","purple","brown","ivory","orange"],"door_color_assignment":["white","black"],"door_generator_assignment":[0,1],"goal":3,"start":9,"action_noise":0.15,"location_history":"[9,8,2,8,7,1,2,8,7,6,11,10,9,3]","action_history":"[0,1,1,1,1,0,0,0,0,0,0,0,1]","door_history":"[0,1,1,1,1,0,0,0,0,0,0,0,1]","location_rts":"[1333,2153,678,2119,858,1121,443,490,383,508,486,662,1050]","trial_type":"two-door-navigation","trial_index":25,"time_elapsed":1028805,"internal_node_id":"0.0-2.0-23.0"},{"group":"dihedral group of order 12","room_assignment":["grey","pink","blue","red","yellow","olive","cyan","green","purple","brown","ivory","orange"],"door_color_assignment":["white","black"],"door_generator_assignment":[0,1],"goal":4,"start":3,"action_noise":0.15,"location_history":"[3,9,8,2,8,7,1,2,8,2,3,4]","action_history":"[1,1,1,1,0,0,1,1,1,0,0]","door_history":"[1,1,1,1,0,0,1,1,1,0,0]","location_rts":"[4429,394,281,299,1946,258,647,355,355,814,1301]","trial_type":"two-door-navigation","trial_index":26,"time_elapsed":1054542,"internal_node_id":"0.0-2.0-24.0"},{"group":"dihedral group of order 12","room_assignment":["grey","pink","blue","red","yellow","olive","cyan","green","purple","brown","ivory","orange"],"door_color_assignment":["white","black"],"door_generator_assignment":[0,1],"goal":2,"start":4,"action_noise":0.15,"location_history":"[4,5,11,5,11,5,11,10,4,5,11,10,4,5,0,6,0,1,7,6,0,6,11,5,11,10,9,8,7,6,0,1,2]","action_history":"[0,1,1,1,1,1,0,0,1,1,0,0,0,0,1,1,0,1,1,1,1,0,0,0,0,0,0,1,1,1,1,0]","door_history":"[0,1,1,1,1,1,0,0,1,1,0,0,0,0,1,1,0,1,1,1,1,0,0,0,0,0,0,1,1,1,1,0]","location_rts":"[2147,1627,506,435,548,421,861,1689,1184,519,490,439,513,487,256,1852,1251,1278,788,700,547,836,577,462,310,368,435,1340,710,544,491,835]","trial_type":"two-door-navigation","trial_index":27,"time_elapsed":1115944,"internal_node_id":"0.0-2.0-25.0"},{"group":"dihedral group of order 12","room_assignment":["grey","pink","blue","red","yellow","olive","cyan","green","purple","brown","ivory","orange"],"door_color_assignment":["white","black"],"door_generator_assignment":[0,1],"goal":1,"start":2,"action_noise":0.15,"location_history":"[2,8,7,1]","action_history":"[1,0,1]","door_history":"[1,0,1]","location_rts":"[1588,779,1046]","trial_type":"two-door-navigation","trial_index":28,"time_elapsed":1125910,"internal_node_id":"0.0-2.0-26.0"},{"group":"dihedral group of order 12","room_assignment":["grey","pink","blue","red","yellow","olive","cyan","green","purple","brown","ivory","orange"],"door_color_assignment":["white","black"],"door_generator_assignment":[0,1],"goal":8,"start":1,"action_noise":0.15,"location_history":"[1,7,1,2,8]","action_history":"[1,1,0,1]","door_history":"[1,1,0,1]","location_rts":"[1527,819,2334,766]","trial_type":"two-door-navigation","trial_index":29,"time_elapsed":1138946,"internal_node_id":"0.0-2.0-27.0"},{"group":"dihedral group of order 12","room_assignment":["grey","pink","blue","red","yellow","olive","cyan","green","purple","brown","ivory","orange"],"door_color_assignment":["white","black"],"door_generator_assignment":[0,1],"goal":10,"start":8,"action_noise":0.15,"location_history":"[8,7,6,0,1,7,1,7,6,11,10]","action_history":"[0,0,0,0,1,1,1,0,0,0]","door_history":"[0,0,0,0,1,1,1,0,0,0]","location_rts":"[1737,1048,2234,1466,1150,603,594,7654,1402,410]","trial_type":"two-door-navigation","trial_index":30,"time_elapsed":1170878,"internal_node_id":"0.0-2.0-28.0"},{"group":"dihedral group of order 12","room_assignment":["grey","pink","blue","red","yellow","olive","cyan","green","purple","brown","ivory","orange"],"door_color_assignment":["white","black"],"door_generator_assignment":[0,1],"goal":7,"start":10,"action_noise":0.15,"location_history":"[10,4,10,4,5,0,1,2,8,2,8,2,3,9,8,7]","action_history":"[1,1,1,0,1,0,0,1,1,1,1,0,1,0,0]","door_history":"[1,1,1,0,1,0,0,1,1,1,1,0,1,0,0]","location_rts":"[1898,782,720,1139,2696,726,397,880,494,373,2043,380,1022,855,668]","trial_type":"two-door-navigation","trial_index":31,"time_elapsed":1204658,"internal_node_id":"0.0-2.0-29.0"},{"group":"dihedral group of order 12","room_assignment":["grey","pink","blue","red","yellow","olive","cyan","green","purple","brown","ivory","orange"],"door_color_assignment":["white","black"],"door_generator_assignment":[0,1],"goal":6,"start":7,"action_noise":0.15,"location_history":"[7,6]","action_history":"[0]","door_history":"[0]","location_rts":"[1664]","trial_type":"two-door-navigation","trial_index":32,"time_elapsed":1210842,"internal_node_id":"0.0-2.0-30.0"},{"group":"dihedral group of order 12","room_assignment":["grey","pink","blue","red","yellow","olive","cyan","green","purple","brown","ivory","orange"],"door_color_assignment":["white","black"],"door_generator_assignment":[0,1],"goal":0,"start":6,"action_noise":0.15,"location_history":"[6,11,10,4,5,11,5,11,10,9,8,7,6,0]","action_history":"[0,0,0,1,1,1,1,0,0,0,0,0,1]","door_history":"[0,0,0,1,1,1,1,0,0,0,0,0,1]","location_rts":"[864,626,1005,1490,643,475,1272,992,696,529,431,602,1195]","trial_type":"two-door-navigation","trial_index":33,"time_elapsed":1238348,"internal_node_id":"0.0-2.0-31.0"},{"group":"dihedral group of order 12","room_assignment":["grey","pink","blue","red","yellow","olive","cyan","green","purple","brown","ivory","orange"],"door_color_assignment":["white","black"],"door_generator_assignment":[0,1],"goal":11,"start":0,"action_noise":0.15,"location_history":"[0,6,0,6,0,1,2,3,4,5,0,6,11]","action_history":"[1,1,1,1,0,0,0,0,0,1,1,1]","door_history":"[1,1,1,1,0,0,0,0,0,1,1,1]","location_rts":"[1565,632,648,885,321,1862,857,2053,580,1355,902,995]","trial_type":"two-door-navigation","trial_index":34,"time_elapsed":1266676,"internal_node_id":"0.0-2.0-32.0"},{"group":"dihedral group of order 12","room_assignment":["grey","pink","blue","red","yellow","olive","cyan","green","purple","brown","ivory","orange"],"door_color_assignment":["white","black"],"door_generator_assignment":[0,1],"goal":9,"start":11,"action_noise":0.15,"location_history":"[11,10,9]","action_history":"[1,1]","door_history":"[1,1]","location_rts":"[2711,411]","trial_type":"two-door-navigation","trial_index":35,"time_elapsed":1275337,"internal_node_id":"0.0-2.0-33.0"},{"group":"dihedral group of order 12","room_assignment":["grey","pink","blue","red","yellow","olive","cyan","green","purple","brown","ivory","orange"],"door_color_assignment":["white","black"],"door_generator_assignment":[0,1],"goal":5,"start":9,"action_noise":0.15,"location_history":"[9,8,7,6,0,1,7,1,2,3,4,10,4,5]","action_history":"[0,0,0,1,1,1,1,0,0,0,1,1,0]","door_history":"[0,0,0,1,1,1,1,0,0,0,1,1,0]","location_rts":"[1486,338,557,1075,815,416,1557,781,435,337,19504,1167,1045]","trial_type":"two-door-navigation","trial_index":36,"time_elapsed":1321539,"internal_node_id":"0.0-2.0-34.0"},{"view_history":"[{\"page_index\":0,\"viewing_time\":1813}]","rt":1815,"trial_type":"instructions","trial_index":37,"time_elapsed":1324355,"internal_node_id":"0.0-3.0"},{"view_history":"[{\"page_index\":0,\"viewing_time\":2022},{\"page_index\":1,\"viewing_time\":2686}]","rt":4709,"trial_type":"instructions","trial_index":38,"time_elapsed":1330065,"internal_node_id":"0.0-4.0"},{"group":"dihedral group of order 12","fractal_assignment":["../images/cyn_red.png","../images/grn_prp.png","../images/org_blu.png","../images/grn_blu.png","../images/pnk_blu.png","../images/ylw_pnk.png","../images/grn_red.png","../images/red_prp.png","../images/gry_blk.png","../images/wht_red.png","../images/ylw_slt.png","../images/blu_wht.png"],"mutagen_generator_assignment":[0,1],"goal":7,"start":11,"action_noise":0.15,"location_history":"[11,5,11,10,9,8,7]","action_history":"[1,1,0,0,0,0]","mutagen_history":"[1,1,0,0,0,0]","location_rts":"[6102,3541,2519,1023,1065,911]","trial_type":"fractal-mutation","trial_index":39,"time_elapsed":1355003,"internal_node_id":"0.0-5.0-0.0"},{"group":"dihedral group of order 12","fractal_assignment":["../images/cyn_red.png","../images/grn_prp.png","../images/org_blu.png","../images/grn_blu.png","../images/pnk_blu.png","../images/ylw_pnk.png","../images/grn_red.png","../images/red_prp.png","../images/gry_blk.png","../images/wht_red.png","../images/ylw_slt.png","../images/blu_wht.png"],"mutagen_generator_assignment":[0,1],"goal":8,"start":7,"action_noise":0.15,"location_history":"[7,1,2,8]","action_history":"[1,1,1]","mutagen_history":"[1,1,1]","location_rts":"[3395,755,715]","trial_type":"fractal-mutation","trial_index":40,"time_elapsed":1366520,"internal_node_id":"0.0-5.0-1.0"},{"group":"dihedral group of order 12","fractal_assignment":["../images/cyn_red.png","../images/grn_prp.png","../images/org_blu.png","../images/grn_blu.png","../images/pnk_blu.png","../images/ylw_pnk.png","../images/grn_red.png","../images/red_prp.png","../images/gry_blk.png","../images/wht_red.png","../images/ylw_slt.png","../images/blu_wht.png"],"mutagen_generator_assignment":[0,1],"goal":4,"start":8,"action_noise":0.15,"location_history":"[8,2,3,9,3,4]","action_history":"[1,1,1,1,1]","mutagen_history":"[1,1,1,1,1]","location_rts":"[1462,675,670,520,543]","trial_type":"fractal-mutation","trial_index":41,"time_elapsed":1379112,"internal_node_id":"0.0-5.0-2.0"},{"group":"dihedral group of order 12","fractal_assignment":["../images/cyn_red.png","../images/grn_prp.png","../images/org_blu.png","../images/grn_blu.png","../images/pnk_blu.png","../images/ylw_pnk.png","../images/grn_red.png","../images/red_prp.png","../images/gry_blk.png","../images/wht_red.png","../images/ylw_slt.png","../images/blu_wht.png"],"mutagen_generator_assignment":[0,1],"goal":5,"start":4,"action_noise":0.15,"location_history":"[4,5]","action_history":"[0]","mutagen_history":"[0]","location_rts":"[2786]","trial_type":"fractal-mutation","trial_index":42,"time_elapsed":1386435,"internal_node_id":"0.0-5.0-3.0"},{"group":"dihedral group of order 12","fractal_assignment":["../images/cyn_red.png","../images/grn_prp.png","../images/org_blu.png","../images/grn_blu.png","../images/pnk_blu.png","../images/ylw_pnk.png","../images/grn_red.png","../images/red_prp.png","../images/gry_blk.png","../images/wht_red.png","../images/ylw_slt.png","../images/blu_wht.png"],"mutagen_generator_assignment":[0,1],"goal":10,"start":5,"action_noise":0.15,"location_history":"[5,0,1,2,8,7,6,11,10]","action_history":"[0,0,0,0,0,0,0,0]","mutagen_history":"[0,0,0,0,0,0,0,0]","location_rts":"[2097,1097,637,578,1453,620,629,1354]","trial_type":"fractal-mutation","trial_index":43,"time_elapsed":1406672,"internal_node_id":"0.0-5.0-4.0"},{"group":"dihedral group of order 12","fractal_assignment":["../images/cyn_red.png","../images/grn_prp.png","../images/org_blu.png","../images/grn_blu.png","../images/pnk_blu.png","../images/ylw_pnk.png","../images/grn_red.png","../images/red_prp.png","../images/gry_blk.png","../images/wht_red.png","../images/ylw_slt.png","../images/blu_wht.png"],"mutagen_generator_assignment":[0,1],"goal":1,"start":10,"action_noise":0.15,"location_history":"[10,9,8,7,6,11,5,11,5,0,1]","action_history":"[0,0,0,0,0,1,1,1,0,0]","mutagen_history":"[0,0,0,0,0,1,1,1,0,0]","location_rts":"[6909,596,543,586,537,1511,1500,833,485,1286]","trial_type":"fractal-mutation","trial_index":44,"time_elapsed":1435333,"internal_node_id":"0.0-5.0-5.0"},{"group":"dihedral group of order 12","fractal_assignment":["../images/cyn_red.png","../images/grn_prp.png","../images/org_blu.png","../images/grn_blu.png","../images/pnk_blu.png","../images/ylw_pnk.png","../images/grn_red.png","../images/red_prp.png","../images/gry_blk.png","../images/wht_red.png","../images/ylw_slt.png","../images/blu_wht.png"],"mutagen_generator_assignment":[0,1],"goal":6,"start":1,"action_noise":0.15,"location_history":"[1,7,6]","action_history":"[1,0]","mutagen_history":"[1,0]","location_rts":"[2576,2975]","trial_type":"fractal-mutation","trial_index":45,"time_elapsed":1446468,"internal_node_id":"0.0-5.0-6.0"},{"group":"dihedral group of order 12","fractal_assignment":["../images/cyn_red.png","../images/grn_prp.png","../images/org_blu.png","../images/grn_blu.png","../images/pnk_blu.png","../images/ylw_pnk.png","../images/grn_red.png","../images/red_prp.png","../images/gry_blk.png","../images/wht_red.png","../images/ylw_slt.png","../images/blu_wht.png"],"mutagen_generator_assignment":[0,1],"goal":9,"start":6,"action_noise":0.15,"location_history":"[6,11,10,9]","action_history":"[0,0,0]","mutagen_history":"[0,0,0]","location_rts":"[2655,469,376]","trial_type":"fractal-mutation","trial_index":46,"time_elapsed":1456568,"internal_node_id":"0.0-5.0-7.0"},{"group":"dihedral group of order 12","fractal_assignment":["../images/cyn_red.png","../images/grn_prp.png","../images/org_blu.png","../images/grn_blu.png","../images/pnk_blu.png","../images/ylw_pnk.png","../images/grn_red.png","../images/red_prp.png","../images/gry_blk.png","../images/wht_red.png","../images/ylw_slt.png","../images/blu_wht.png"],"mutagen_generator_assignment":[0,1],"goal":2,"start":9,"action_noise":0.15,"location_history":"[9,3,9,3,9,3,9,8,2]","action_history":"[1,1,1,1,0,1,0,1]","mutagen_history":"[1,1,1,1,0,1,0,1]","location_rts":"[1302,453,711,444,1364,549,1105,733]","trial_type":"fractal-mutation","trial_index":47,"time_elapsed":1475052,"internal_node_id":"0.0-5.0-8.0"},{"group":"dihedral group of order 12","fractal_assignment":["../images/cyn_red.png","../images/grn_prp.png","../images/org_blu.png","../images/grn_blu.png","../images/pnk_blu.png","../images/ylw_pnk.png","../images/grn_red.png","../images/red_prp.png","../images/gry_blk.png","../images/wht_red.png","../images/ylw_slt.png","../images/blu_wht.png"],"mutagen_generator_assignment":[0,1],"goal":0,"start":2,"action_noise":0.15,"location_history":"[2,3,4,10,9,8,7,6,11,5,0]","action_history":"[0,0,0,0,0,0,0,0,1,0]","mutagen_history":"[0,0,0,0,0,0,0,0,1,0]","location_rts":"[2621,777,604,562,542,714,664,795,1704,734]","trial_type":"fractal-mutation","trial_index":48,"time_elapsed":1498589,"internal_node_id":"0.0-5.0-9.0"},{"group":"dihedral group of order 12","fractal_assignment":["../images/cyn_red.png","../images/grn_prp.png","../images/org_blu.png","../images/grn_blu.png","../images/pnk_blu.png","../images/ylw_pnk.png","../images/grn_red.png","../images/red_prp.png","../images/gry_blk.png","../images/wht_red.png","../images/ylw_slt.png","../images/blu_wht.png"],"mutagen_generator_assignment":[0,1],"goal":3,"start":0,"action_noise":0.15,"location_history":"[0,1,2,3]","action_history":"[0,0,0]","mutagen_history":"[0,0,0]","location_rts":"[1632,1016,381]","trial_type":"fractal-mutation","trial_index":49,"time_elapsed":1508216,"internal_node_id":"0.0-5.0-10.0"},{"group":"dihedral group of order 12","fractal_assignment":["../images/cyn_red.png","../images/grn_prp.png","../images/org_blu.png","../images/grn_blu.png","../images/pnk_blu.png","../images/ylw_pnk.png","../images/grn_red.png","../images/red_prp.png","../images/gry_blk.png","../images/wht_red.png","../images/ylw_slt.png","../images/blu_wht.png"],"mutagen_generator_assignment":[0,1],"goal":10,"start":3,"action_noise":0.15,"location_history":"[3,4,5,0,1,7,6,11,10]","action_history":"[0,0,0,0,1,0,0,0]","mutagen_history":"[0,0,0,0,1,0,0,0]","location_rts":"[3946,602,494,515,1046,546,451,370]","trial_type":"fractal-mutation","trial_index":50,"time_elapsed":1527936,"internal_node_id":"0.0-5.0-11.0"},{"group":"dihedral group of order 12","fractal_assignment":["../images/cyn_red.png","../images/grn_prp.png","../images/org_blu.png","../images/grn_blu.png","../images/pnk_blu.png","../images/ylw_pnk.png","../images/grn_red.png","../images/red_prp.png","../images/gry_blk.png","../images/wht_red.png","../images/ylw_slt.png","../images/blu_wht.png"],"mutagen_generator_assignment":[0,1],"goal":8,"start":10,"action_noise":0.15,"location_history":"[10,4,5,0,1,2,8]","action_history":"[1,0,0,0,0,0]","mutagen_history":"[1,0,0,0,0,0]","location_rts":"[2334,897,392,565,426,884]","trial_type":"fractal-mutation","trial_index":51,"time_elapsed":1543124,"internal_node_id":"0.0-5.0-12.0"},{"group":"dihedral group of order 12","fractal_assignment":["../images/cyn_red.png","../images/grn_prp.png","../images/org_blu.png","../images/grn_blu.png","../images/pnk_blu.png","../images/ylw_pnk.png","../images/grn_red.png","../images/red_prp.png","../images/gry_blk.png","../images/wht_red.png","../images/ylw_slt.png","../images/blu_wht.png"],"mutagen_generator_assignment":[0,1],"goal":4,"start":8,"action_noise":0.15,"location_history":"[8,7,6,11,10,4]","action_history":"[0,0,0,0,1]","mutagen_history":"[0,0,0,0,1]","location_rts":"[2623,3379,287,406,883]","trial_type":"fractal-mutation","trial_index":52,"time_elapsed":1559387,"internal_node_id":"0.0-5.0-13.0"},{"group":"dihedral group of order 12","fractal_assignment":["../images/cyn_red.png","../images/grn_prp.png","../images/org_blu.png","../images/grn_blu.png","../images/pnk_blu.png","../images/ylw_pnk.png","../images/grn_red.png","../images/red_prp.png","../images/gry_blk.png","../images/wht_red.png","../images/ylw_slt.png","../images/blu_wht.png"],"mutagen_generator_assignment":[0,1],"goal":0,"start":4,"action_noise":0.15,"location_history":"[4,5,0]","action_history":"[0,0]","mutagen_history":"[0,0]","location_rts":"[1236,600]","trial_type":"fractal-mutation","trial_index":53,"time_elapsed":1566786,"internal_node_id":"0.0-5.0-14.0"},{"group":"dihedral group of order 12","fractal_assignment":["../images/cyn_red.png","../images/grn_prp.png","../images/org_blu.png","../images/grn_blu.png","../images/pnk_blu.png","../images/ylw_pnk.png","../images/grn_red.png","../images/red_prp.png","../images/gry_blk.png","../images/wht_red.png","../images/ylw_slt.png","../images/blu_wht.png"],"mutagen_generator_assignment":[0,1],"goal":11,"start":0,"action_noise":0.15,"location_history":"[0,6,11]","action_history":"[1,0]","mutagen_history":"[1,0]","location_rts":"[3367,1895]","trial_type":"fractal-mutation","trial_index":54,"time_elapsed":1577626,"internal_node_id":"0.0-5.0-15.0"},{"group":"dihedral group of order 12","fractal_assignment":["../images/cyn_red.png","../images/grn_prp.png","../images/org_blu.png","../images/grn_blu.png","../images/pnk_blu.png","../images/ylw_pnk.png","../images/grn_red.png","../images/red_prp.png","../images/gry_blk.png","../images/wht_red.png","../images/ylw_slt.png","../images/blu_wht.png"],"mutagen_generator_assignment":[0,1],"goal":2,"start":11,"action_noise":0.15,"location_history":"[11,5,0,1,7,6,11,5,11,5,0,1,2]","action_history":"[1,0,0,0,0,0,1,1,1,0,0,0]","mutagen_history":"[1,0,0,0,0,0,1,1,1,0,0,0]","location_rts":"[2584,430,635,495,871,514,1328,810,1287,803,900,733]","trial_type":"fractal-mutation","trial_index":55,"time_elapsed":1604913,"internal_node_id":"0.0-5.0-16.0"},{"group":"dihedral group of order 12","fractal_assignment":["../images/cyn_red.png","../images/grn_prp.png","../images/org_blu.png","../images/grn_blu.png","../images/pnk_blu.png","../images/ylw_pnk.png","../images/grn_red.png","../images/red_prp.png","../images/gry_blk.png","../images/wht_red.png","../images/ylw_slt.png","../images/blu_wht.png"],"mutagen_generator_assignment":[0,1],"goal":7,"start":2,"action_noise":0.15,"location_history":"[2,3,4,10,4,10,9,3,4,5,0,1,7]","action_history":"[0,0,1,1,1,0,0,0,0,0,0,0]","mutagen_history":"[0,0,1,1,1,0,0,0,0,0,0,0]","location_rts":"[1300,1817,788,521,419,469,2474,598,500,342,345,681]","trial_type":"fractal-mutation","trial_index":56,"time_elapsed":1631032,"internal_node_id":"0.0-5.0-17.0"},{"group":"dihedral group of order 12","fractal_assignment":["../images/cyn_red.png","../images/grn_prp.png","../images/org_blu.png","../images/grn_blu.png","../images/pnk_blu.png","../images/ylw_pnk.png","../images/grn_red.png","../images/red_prp.png","../images/gry_blk.png","../images/wht_red.png","../images/ylw_slt.png","../images/blu_wht.png"],"mutagen_generator_assignment":[0,1],"goal":5,"start":7,"action_noise":0.15,"location_history":"[7,1,2,3,4,5]","action_history":"[1,0,0,0,0]","mutagen_history":"[1,0,0,0,0]","location_rts":"[5756,509,514,600,388]","trial_type":"fractal-mutation","trial_index":57,"time_elapsed":1647465,"internal_node_id":"0.0-5.0-18.0"},{"group":"dihedral group of order 12","fractal_assignment":["../images/cyn_red.png","../images/grn_prp.png","../images/org_blu.png","../images/grn_blu.png","../images/pnk_blu.png","../images/ylw_pnk.png","../images/grn_red.png","../images/red_prp.png","../images/gry_blk.png","../images/wht_red.png","../images/ylw_slt.png","../images/blu_wht.png"],"mutagen_generator_assignment":[0,1],"goal":6,"start":5,"action_noise":0.15,"location_history":"[5,11,10,9,8,7,6]","action_history":"[0,0,0,0,0,0]","mutagen_history":"[0,0,0,0,0,0]","location_rts":"[2000,358,397,324,343,383]","trial_type":"fractal-mutation","trial_index":58,"time_elapsed":1660972,"internal_node_id":"0.0-5.0-19.0"},{"group":"dihedral group of order 12","fractal_assignment":["../images/cyn_red.png","../images/grn_prp.png","../images/org_blu.png","../images/grn_blu.png","../images/pnk_blu.png","../images/ylw_pnk.png","../images/grn_red.png","../images/red_prp.png","../images/gry_blk.png","../images/wht_red.png","../images/ylw_slt.png","../images/blu_wht.png"],"mutagen_generator_assignment":[0,1],"goal":3,"start":6,"action_noise":0.15,"location_history":"[6,0,6,11,5,11,5,11,10,9,3]","action_history":"[1,1,1,1,1,1,1,0,0,0]","mutagen_history":"[1,1,1,1,1,1,1,0,0,0]","location_rts":"[3004,1206,874,686,364,754,934,1406,470,361]","trial_type":"fractal-mutation","trial_index":59,"time_elapsed":1684898,"internal_node_id":"0.0-5.0-20.0"},{"group":"dihedral group of order 12","fractal_assignment":["../images/cyn_red.png","../images/grn_prp.png","../images/org_blu.png","../images/grn_blu.png","../images/pnk_blu.png","../images/ylw_pnk.png","../images/grn_red.png","../images/red_prp.png","../images/gry_blk.png","../images/wht_red.png","../images/ylw_slt.png","../images/blu_wht.png"],"mutagen_generator_assignment":[0,1],"goal":1,"start":3,"action_noise":0.15,"location_history":"[3,9,8,7,6,11,10,4,5,0,1]","action_history":"[0,0,0,0,0,0,1,0,0,0]","mutagen_history":"[0,0,0,0,0,0,1,0,0,0]","location_rts":"[3126,367,453,325,718,722,741,534,380,355]","trial_type":"fractal-mutation","trial_index":60,"time_elapsed":1706421,"internal_node_id":"0.0-5.0-21.0"},{"group":"dihedral group of order 12","fractal_assignment":["../images/cyn_red.png","../images/grn_prp.png","../images/org_blu.png","../images/grn_blu.png","../images/pnk_blu.png","../images/ylw_pnk.png","../images/grn_red.png","../images/red_prp.png","../images/gry_blk.png","../images/wht_red.png","../images/ylw_slt.png","../images/blu_wht.png"],"mutagen_generator_assignment":[0,1],"goal":9,"start":1,"action_noise":0.15,"location_history":"[1,7,6,11,5,0,1,2,3,4,5,0,6,11,10,9]","action_history":"[1,0,0,1,0,0,0,0,0,0,0,1,0,0,0]","mutagen_history":"[1,0,0,1,0,0,0,0,0,0,0,1,0,0,0]","location_rts":"[2405,406,338,480,429,418,402,1284,449,462,421,581,534,381,371]","trial_type":"fractal-mutation","trial_index":61,"time_elapsed":1734752,"internal_node_id":"0.0-5.0-22.0"},{"group":"dihedral group of order 12","fractal_assignment":["../images/cyn_red.png","../images/grn_prp.png","../images/org_blu.png","../images/grn_blu.png","../images/pnk_blu.png","../images/ylw_pnk.png","../images/grn_red.png","../images/red_prp.png","../images/gry_blk.png","../images/wht_red.png","../images/ylw_slt.png","../images/blu_wht.png"],"mutagen_generator_assignment":[0,1],"goal":3,"start":9,"action_noise":0.15,"location_history":"[9,8,7,6,0,1,2,3]","action_history":"[0,0,0,1,0,0,0]","mutagen_history":"[0,0,0,1,0,0,0]","location_rts":"[2816,543,347,666,507,693,308]","trial_type":"fractal-mutation","trial_index":62,"time_elapsed":1751360,"internal_node_id":"0.0-5.0-23.0"},{"group":"dihedral group of order 12","fractal_assignment":["../images/cyn_red.png","../images/grn_prp.png","../images/org_blu.png","../images/grn_blu.png","../images/pnk_blu.png","../images/ylw_pnk.png","../images/grn_red.png","../images/red_prp.png","../images/gry_blk.png","../images/wht_red.png","../images/ylw_slt.png","../images/blu_wht.png"],"mutagen_generator_assignment":[0,1],"goal":4,"start":3,"action_noise":0.15,"location_history":"[3,4]","action_history":"[0]","mutagen_history":"[0]","location_rts":"[2686]","trial_type":"fractal-mutation","trial_index":63,"time_elapsed":1758579,"internal_node_id":"0.0-5.0-24.0"},{"group":"dihedral group of order 12","fractal_assignment":["../images/cyn_red.png","../images/grn_prp.png","../images/org_blu.png","../images/grn_blu.png","../images/pnk_blu.png","../images/ylw_pnk.png","../images/grn_red.png","../images/red_prp.png","../images/gry_blk.png","../images/wht_red.png","../images/ylw_slt.png","../images/blu_wht.png"],"mutagen_generator_assignment":[0,1],"goal":2,"start":4,"action_noise":0.15,"location_history":"[4,5,0,6,11,10,9,3,9,3,9,3,9,3,9,3,4,5,0,1,2]","action_history":"[0,0,0,0,0,0,1,0,0,0,1,0,1,1,1,0,0,0,0,0]","mutagen_history":"[0,0,0,0,0,0,1,0,0,0,1,0,1,1,1,0,0,0,0,0]","location_rts":"[8447,468,478,931,645,518,1004,558,874,332,763,512,1497,296,1106,1502,2954,473,405,369]","trial_type":"fractal-mutation","trial_index":64,"time_elapsed":1806866,"internal_node_id":"0.0-5.0-25.0"},{"group":"dihedral group of order 12","fractal_assignment":["../images/cyn_red.png","../images/grn_prp.png","../images/org_blu.png","../images/grn_blu.png","../images/pnk_blu.png","../images/ylw_pnk.png","../images/grn_red.png","../images/red_prp.png","../images/gry_blk.png","../images/wht_red.png","../images/ylw_slt.png","../images/blu_wht.png"],"mutagen_generator_assignment":[0,1],"goal":1,"start":2,"action_noise":0.15,"location_history":"[2,3,9,8,7,6,11,10,4,5,0,1]","action_history":"[0,1,0,0,0,0,0,1,0,0,0]","mutagen_history":"[0,1,0,0,0,0,0,1,0,0,0]","location_rts":"[1545,1760,547,437,444,618,504,816,557,392,367]","trial_type":"fractal-mutation","trial_index":65,"time_elapsed":1829696,"internal_node_id":"0.0-5.0-26.0"},{"group":"dihedral group of order 12","fractal_assignment":["../images/cyn_red.png","../images/grn_prp.png","../images/org_blu.png","../images/grn_blu.png","../images/pnk_blu.png","../images/ylw_pnk.png","../images/grn_red.png","../images/red_prp.png","../images/gry_blk.png","../images/wht_red.png","../images/ylw_slt.png","../images/blu_wht.png"],"mutagen_generator_assignment":[0,1],"goal":8,"start":1,"action_noise":0.15,"location_history":"[1,2,3,4,10,4,10,9,8]","action_history":"[0,0,0,1,0,0,1,0]","mutagen_history":"[0,0,0,1,0,0,1,0]","location_rts":"[3081,351,631,612,548,507,981,592]","trial_type":"fractal-mutation","trial_index":66,"time_elapsed":1848764,"internal_node_id":"0.0-5.0-27.0"},{"group":"dihedral group of order 12","fractal_assignment":["../images/cyn_red.png","../images/grn_prp.png","../images/org_blu.png","../images/grn_blu.png","../images/pnk_blu.png","../images/ylw_pnk.png","../images/grn_red.png","../images/red_prp.png","../images/gry_blk.png","../images/wht_red.png","../images/ylw_slt.png","../images/blu_wht.png"],"mutagen_generator_assignment":[0,1],"goal":10,"start":8,"action_noise":0.15,"location_history":"[8,7,6,11,10]","action_history":"[0,0,0,0]","mutagen_history":"[0,0,0,0]","location_rts":"[5640,804,780,1274]","trial_type":"fractal-mutation","trial_index":67,"time_elapsed":1864877,"internal_node_id":"0.0-5.0-28.0"},{"group":"dihedral group of order 12","fractal_assignment":["../images/cyn_red.png","../images/grn_prp.png","../images/org_blu.png","../images/grn_blu.png","../images/pnk_blu.png","../images/ylw_pnk.png","../images/grn_red.png","../images/red_prp.png","../images/gry_blk.png","../images/wht_red.png","../images/ylw_slt.png","../images/blu_wht.png"],"mutagen_generator_assignment":[0,1],"goal":7,"start":10,"action_noise":0.15,"location_history":"[10,9,8,2,3,4,10,9,8,2,3,4,5,0,6,0,1,2,8,2,3,9,3,9,3,4,10,9,3,4,5,0,1,7]","action_history":"[0,0,1,0,0,0,0,1,0,0,0,0,0,0,1,0,0,1,1,0,1,0,1,1,0,1,0,1,1,0,0,0,1]","mutagen_history":"[0,0,1,0,0,0,0,1,0,0,0,0,0,0,1,0,0,1,1,0,1,0,1,1,0,1,0,1,1,0,0,0,1]","location_rts":"[3117,880,1951,717,474,678,2782,1187,914,587,399,609,1006,1019,1087,634,828,1311,1069,645,919,1236,949,447,990,1038,860,968,983,610,1093,519,1064]","trial_type":"fractal-mutation","trial_index":68,"time_elapsed":1936083,"internal_node_id":"0.0-5.0-29.0"},{"group":"dihedral group of order 12","fractal_assignment":["../images/cyn_red.png","../images/grn_prp.png","../images/org_blu.png","../images/grn_blu.png","../images/pnk_blu.png","../images/ylw_pnk.png","../images/grn_red.png","../images/red_prp.png","../images/gry_blk.png","../images/wht_red.png","../images/ylw_slt.png","../images/blu_wht.png"],"mutagen_generator_assignment":[0,1],"goal":6,"start":7,"action_noise":0.15,"location_history":"[7,6]","action_history":"[0]","mutagen_history":"[0]","location_rts":"[1957]","trial_type":"fractal-mutation","trial_index":69,"time_elapsed":1942577,"internal_node_id":"0.0-5.0-30.0"},{"group":"dihedral group of order 12","fractal_assignment":["../images/cyn_red.png","../images/grn_prp.png","../images/org_blu.png","../images/grn_blu.png","../images/pnk_blu.png","../images/ylw_pnk.png","../images/grn_red.png","../images/red_prp.png","../images/gry_blk.png","../images/wht_red.png","../images/ylw_slt.png","../images/blu_wht.png"],"mutagen_generator_assignment":[0,1],"goal":0,"start":6,"action_noise":0.15,"location_history":"[6,11,10,4,10,9,8,7,1,7,6,11,5,11,5,0]","action_history":"[0,0,0,1,0,0,0,0,1,0,0,1,1,1,0]","mutagen_history":"[0,0,0,1,0,0,0,0,1,0,0,1,1,1,0]","location_rts":"[1498,429,585,670,725,428,468,1266,657,1253,802,1417,1178,887,1067]","trial_type":"fractal-mutation","trial_index":70,"time_elapsed":1974900,"internal_node_id":"0.0-5.0-31.0"},{"group":"dihedral group of order 12","fractal_assignment":["../images/cyn_red.png","../images/grn_prp.png","../images/org_blu.png","../images/grn_blu.png","../images/pnk_blu.png","../images/ylw_pnk.png","../images/grn_red.png","../images/red_prp.png","../images/gry_blk.png","../images/wht_red.png","../images/ylw_slt.png","../images/blu_wht.png"],"mutagen_generator_assignment":[0,1],"goal":11,"start":0,"action_noise":0.15,"location_history":"[0,1,7,1,2,3,4,5,0,1,7,6,11]","action_history":"[0,1,0,0,0,0,0,0,0,1,1,1]","mutagen_history":"[0,1,0,0,0,0,0,0,0,1,1,1]","location_rts":"[1851,1838,556,346,682,592,892,861,777,660,608,1426]","trial_type":"fractal-mutation","trial_index":71,"time_elapsed":2001883,"internal_node_id":"0.0-5.0-32.0"},{"group":"dihedral group of order 12","fractal_assignment":["../images/cyn_red.png","../images/grn_prp.png","../images/org_blu.png","../images/grn_blu.png","../images/pnk_blu.png","../images/ylw_pnk.png","../images/grn_red.png","../images/red_prp.png","../images/gry_blk.png","../images/wht_red.png","../images/ylw_slt.png","../images/blu_wht.png"],"mutagen_generator_assignment":[0,1],"goal":9,"start":11,"action_noise":0.15,"location_history":"[11,10,9]","action_history":"[0,0]","mutagen_history":"[0,0]","location_rts":"[1326,1118]","trial_type":"fractal-mutation","trial_index":72,"time_elapsed":2009888,"internal_node_id":"0.0-5.0-33.0"},{"group":"dihedral group of order 12","fractal_assignment":["../images/cyn_red.png","../images/grn_prp.png","../images/org_blu.png","../images/grn_blu.png","../images/pnk_blu.png","../images/ylw_pnk.png","../images/grn_red.png","../images/red_prp.png","../images/gry_blk.png","../images/wht_red.png","../images/ylw_slt.png","../images/blu_wht.png"],"mutagen_generator_assignment":[0,1],"goal":5,"start":9,"action_noise":0.15,"location_history":"[9,8,7,1,2,3,9,8,2,3,4,5]","action_history":"[1,0,1,0,0,1,0,0,0,0,0]","mutagen_history":"[1,0,1,0,0,1,0,0,0,0,0]","location_rts":"[1895,8430,813,650,1420,1735,759,556,894,857,544]","trial_type":"fractal-mutation","trial_index":73,"time_elapsed":2043327,"internal_node_id":"0.0-5.0-34.0"},{"view_history":"[{\"page_index\":0,\"viewing_time\":5430}]","rt":5430,"trial_type":"instructions","trial_index":74,"time_elapsed":2049759,"internal_node_id":"0.0-6.0"},{"rt":8895,"responses":"{\"Q0\":\"\"}","trial_type":"survey-text","trial_index":75,"time_elapsed":2059671,"internal_node_id":"0.0-7.0"}]