[{"view_history":"[{\"page_index\":0,\"viewing_time\":169106},{\"page_index\":1,\"viewing_time\":10185}]","rt":179292,"trial_type":"instructions","trial_index":0,"time_elapsed":179293,"internal_node_id":"0.0-0.0"},{"view_history":"[{\"page_index\":0,\"viewing_time\":5645},{\"page_index\":1,\"viewing_time\":401201}]","rt":406847,"trial_type":"instructions","trial_index":1,"time_elapsed":587141,"internal_node_id":"0.0-1.0"},{"group":"dicyclic group of order 12","room_assignment":["cyan","olive","pink","green","brown","orange","yellow","purple","red","blue","grey","ivory"],"door_color_assignment":["white","black"],"door_generator_assignment":[1,0],"goal":7,"start":11,"action_noise":0.15,"location_history":"[11,4,9,1,2,6,10,2,3,7]","action_history":"[0,0,1,0,1,1,1,1,1]","door_history":"[1,1,0,1,0,0,0,0,0]","location_rts":"[3124,421,77,61,251,80,86,93,93]","trial_type":"two-door-navigation","trial_index":2,"time_elapsed":604236,"internal_node_id":"0.0-2.0-0.0"},{"group":"dicyclic group of order 12","room_assignment":["cyan","olive","pink","green","brown","orange","yellow","purple","red","blue","grey","ivory"],"door_color_assignment":["white","black"],"door_generator_assignment":[1,0],"goal":8,"start":7,"action_noise":0.15,"location_history":"[7,8]","action_history":"[0]","door_history":"[1]","location_rts":"[1140]","trial_type":"two-door-navigation","trial_index":3,"time_elapsed":609906,"internal_node_id":"0.0-2.0-1.0"},{"group":"dicyclic group of order 12","room_assignment":["cyan","olive","pink","green","brown","orange","yellow","purple","red","blue","grey","ivory"],"door_color_assignment":["white","black"],"door_generator_assignment":[1,0],"goal":4,"start":8,"action_noise":0.15,"location_history":"[8,0,1,2,6,10,7,8,5,10,2,6,11,3,7,11,3,0,4]","action_history":"[1,1,0,0,1,1,0,0,0,1,1,0,1,1,1,1,1,1]","door_history":"[0,0,1,1,0,0,1,1,1,0,0,1,0,0,0,0,0,0]","location_rts":"[2174,281,1408,330,131,429,59,328,358,232,250,66014,304,305,339,497,335,336]","trial_type":"two-door-navigation","trial_index":4,"time_elapsed":706221,"internal_node_id":"0.0-2.0-2.0"},{"group":"dicyclic group of order 12","room_assignment":["cyan","olive","pink","green","brown","orange","yellow","purple","red","blue","grey","ivory"],"door_color_assignment":["white","black"],"door_generator_assignment":[1,0],"goal":5,"start":4,"action_noise":0.15,"location_history":"[4,9,1,2,3,0,1,5]","action_history":"[0,0,0,0,0,1,1]","door_history":"[1,1,1,1,1,0,0]","location_rts":"[1232,178,245,327,308,327,300]","trial_type":"two-door-navigation","trial_index":5,"time_elapsed":719984,"internal_node_id":"0.0-2.0-3.0"},{"group":"dicyclic group of order 12","room_assignment":["cyan","olive","pink","green","brown","orange","yellow","purple","red","blue","grey","ivory"],"door_color_assignment":["white","black"],"door_generator_assignment":[1,0],"goal":10,"start":5,"action_noise":0.15,"location_history":"[5,10]","action_history":"[1]","door_history":"[0]","location_rts":"[860]","trial_type":"two-door-navigation","trial_index":6,"time_elapsed":725413,"internal_node_id":"0.0-2.0-4.0"},{"group":"dicyclic group of order 12","room_assignment":["cyan","olive","pink","green","brown","orange","yellow","purple","red","blue","grey","ivory"],"door_color_assignment":["white","black"],"door_generator_assignment":[1,0],"goal":1,"start":10,"action_noise":0.15,"location_history":"[10,2,6,11,4,8,0,4,9,6,11,3,7,11,3,7,11,4,9,6,11,4,8,0,4,8,5,10,2,3,0,1]","action_history":"[1,0,0,0,1,1,1,0,0,0,1,1,1,1,1,0,0,0,0,0,0,1,1,1,0,0,1,1,0,0,0]","door_history":"[0,1,1,1,0,0,0,1,1,1,0,0,0,0,0,1,1,1,1,1,1,0,0,0,1,1,0,0,1,1,1]","location_rts":"[339,389,377,336,498,349,393,571,301,145,280,313,123,98,147,452,93,264,292,645,312,1029,367,314,222,315,477,467,607,360,714]","trial_type":"two-door-navigation","trial_index":7,"time_elapsed":772720,"internal_node_id":"0.0-2.0-5.0"},{"group":"dicyclic group of order 12","room_assignment":["cyan","olive","pink","green","brown","orange","yellow","purple","red","blue","grey","ivory"],"door_color_assignment":["white","black"],"door_generator_assignment":[1,0],"goal":6,"start":1,"action_noise":0.15,"location_history":"[1,5,9,6]","action_history":"[1,1,0]","door_history":"[0,0,1]","location_rts":"[867,247,111]","trial_type":"two-door-navigation","trial_index":8,"time_elapsed":780582,"internal_node_id":"0.0-2.0-6.0"},{"group":"dicyclic group of order 12","room_assignment":["cyan","olive","pink","green","brown","orange","yellow","purple","red","blue","grey","ivory"],"door_color_assignment":["white","black"],"door_generator_assignment":[1,0],"goal":9,"start":6,"action_noise":0.15,"location_history":"[6,11,3,7,11,3,7,11,3,0,1,5,10,7,8,0,4,8,0,4,9]","action_history":"[0,1,1,1,1,1,1,0,0,0,0,0,0,0,1,1,1,1,1,0]","door_history":"[1,0,0,0,0,0,0,1,1,1,1,1,1,1,0,0,0,0,0,1]","location_rts":"[569,159,160,256,299,335,314,296,341,348,348,270,305,378,250,210,287,299,499,383]","trial_type":"two-door-navigation","trial_index":9,"time_elapsed":811283,"internal_node_id":"0.0-2.0-7.0"},{"group":"dicyclic group of order 12","room_assignment":["cyan","olive","pink","green","brown","orange","yellow","purple","red","blue","grey","ivory"],"door_color_assignment":["white","black"],"door_generator_assignment":[1,0],"goal":2,"start":9,"action_noise":0.15,"location_history":"[9,1,5,9,6,11,3,7,11,3,7,11,3,0,1,5,9,6,11,3,7,8,5,9,1,2]","action_history":"[1,1,1,0,0,1,1,1,1,1,0,0,0,0,1,1,0,0,1,1,0,0,1,1,0]","door_history":"[0,0,0,1,1,0,0,0,0,0,1,1,1,1,0,0,1,1,0,0,1,1,0,0,1]","location_rts":"[8554,313,355,528,350,277,366,346,374,337,63,318,283,383,245,350,5,401,336,336,324,478,123,400,149]","trial_type":"two-door-navigation","trial_index":10,"time_elapsed":856678,"internal_node_id":"0.0-2.0-8.0"},{"group":"dicyclic group of order 12","room_assignment":["cyan","olive","pink","green","brown","orange","yellow","purple","red","blue","grey","ivory"],"door_color_assignment":["white","black"],"door_generator_assignment":[1,0],"goal":0,"start":2,"action_noise":0.15,"location_history":"[2,6,10,2,6,10,2,6,11,4,8,5,9,1,5,10,7,11,3,0]","action_history":"[0,0,1,1,1,1,0,0,0,0,0,1,1,1,0,0,1,1,0]","door_history":"[1,1,0,0,0,0,1,1,1,1,1,0,0,0,1,1,0,0,1]","location_rts":"[15842,193,268,129,255,188,233,91,87,61,278,355,277,363,40,133,4,331,313]","trial_type":"two-door-navigation","trial_index":11,"time_elapsed":899303,"internal_node_id":"0.0-2.0-9.0"},{"group":"dicyclic group of order 12","room_assignment":["cyan","olive","pink","green","brown","orange","yellow","purple","red","blue","grey","ivory"],"door_color_assignment":["white","black"],"door_generator_assignment":[1,0],"goal":3,"start":0,"action_noise":0.15,"location_history":"[0,4,8,0,4,9,6,11,3]","action_history":"[0,1,1,1,0,0,0,1]","door_history":"[1,0,0,0,1,1,1,0]","location_rts":"[26656,8,283,82,388,33,297,174]","trial_type":"two-door-navigation","trial_index":12,"time_elapsed":939051,"internal_node_id":"0.0-2.0-10.0"},{"group":"dicyclic group of order 12","room_assignment":["cyan","olive","pink","green","brown","orange","yellow","purple","red","blue","grey","ivory"],"door_color_assignment":["white","black"],"door_generator_assignment":[1,0],"goal":10,"start":3,"action_noise":0.15,"location_history":"[3,7,11,3,0,1,2,3,7,11,3,7,11,4,9,6,11,3,0,4,8,5,9,6,10]","action_history":"[1,1,1,0,0,0,0,1,1,1,1,1,0,0,0,0,0,0,0,1,1,1,0,1]","door_history":"[0,0,0,1,1,1,1,0,0,0,0,0,1,1,1,1,1,1,1,0,0,0,1,0]","location_rts":"[3405,177,268,265,90,270,294,199,234,135,218,263,64,217,180,90,723,318,325,43,127,351,487,424]","trial_type":"two-door-navigation","trial_index":13,"time_elapsed":976716,"internal_node_id":"0.0-2.0-11.0"},{"group":"dicyclic group of order 12","room_assignment":["cyan","olive","pink","green","brown","orange","yellow","purple","red","blue","grey","ivory"],"door_color_assignment":["white","black"],"door_generator_assignment":[1,0],"goal":8,"start":10,"action_noise":0.15,"location_history":"[10,2,6,11,4,8]","action_history":"[1,1,0,0,1]","door_history":"[0,0,1,1,0]","location_rts":"[1200,211,36,318,31]","trial_type":"two-door-navigation","trial_index":14,"time_elapsed":987187,"internal_node_id":"0.0-2.0-12.0"},{"group":"dicyclic group of order 12","room_assignment":["cyan","olive","pink","green","brown","orange","yellow","purple","red","blue","grey","ivory"],"door_color_assignment":["white","black"],"door_generator_assignment":[1,0],"goal":4,"start":8,"action_noise":0.15,"location_history":"[8,0,4]","action_history":"[1,1]","door_history":"[0,0]","location_rts":"[417,222]","trial_type":"two-door-navigation","trial_index":15,"time_elapsed":993388,"internal_node_id":"0.0-2.0-13.0"},{"group":"dicyclic group of order 12","room_assignment":["cyan","olive","pink","green","brown","orange","yellow","purple","red","blue","grey","ivory"],"door_color_assignment":["white","black"],"door_generator_assignment":[1,0],"goal":0,"start":4,"action_noise":0.15,"location_history":"[4,9,1,2,3,0]","action_history":"[1,1,0,0,0]","door_history":"[0,0,1,1,1]","location_rts":"[535,103,117,189,365]","trial_type":"two-door-navigation","trial_index":16,"time_elapsed":1003456,"internal_node_id":"0.0-2.0-14.0"},{"group":"dicyclic group of order 12","room_assignment":["cyan","olive","pink","green","brown","orange","yellow","purple","red","blue","grey","ivory"],"door_color_assignment":["white","black"],"door_generator_assignment":[1,0],"goal":11,"start":0,"action_noise":0.15,"location_history":"[0,4,8,5,10,7,11]","action_history":"[1,1,1,0,0,1]","door_history":"[0,0,0,1,1,0]","location_rts":"[800,89,229,833,343,364]","trial_type":"two-door-navigation","trial_index":17,"time_elapsed":1015868,"internal_node_id":"0.0-2.0-15.0"},{"group":"dicyclic group of order 12","room_assignment":["cyan","olive","pink","green","brown","orange","yellow","purple","red","blue","grey","ivory"],"door_color_assignment":["white","black"],"door_generator_assignment":[1,0],"goal":2,"start":11,"action_noise":0.15,"location_history":"[11,4,8,5,10,7,11,3,7,11,4,8,0,1,5,9,1,5,9,6,10,2]","action_history":"[0,0,0,0,0,1,1,1,1,0,1,0,0,0,1,1,1,1,0,1,1]","door_history":"[1,1,1,1,1,0,0,0,0,1,0,1,1,1,0,0,0,0,1,0,0]","location_rts":"[1501,561,464,318,474,314,252,274,264,551,418,760,738,312,308,278,285,799,274,570,327]","trial_type":"two-door-navigation","trial_index":18,"time_elapsed":1051361,"internal_node_id":"0.0-2.0-16.0"},{"group":"dicyclic group of order 12","room_assignment":["cyan","olive","pink","green","brown","orange","yellow","purple","red","blue","grey","ivory"],"door_color_assignment":["white","black"],"door_generator_assignment":[1,0],"goal":7,"start":2,"action_noise":0.15,"location_history":"[2,3,7]","action_history":"[0,1]","door_history":"[1,0]","location_rts":"[26768,390]","trial_type":"two-door-navigation","trial_index":19,"time_elapsed":1084084,"internal_node_id":"0.0-2.0-17.0"},{"group":"dicyclic group of order 12","room_assignment":["cyan","olive","pink","green","brown","orange","yellow","purple","red","blue","grey","ivory"],"door_color_assignment":["white","black"],"door_generator_assignment":[1,0],"goal":5,"start":7,"action_noise":0.15,"location_history":"[7,11,3,0,1,5]","action_history":"[1,1,0,0,1]","door_history":"[0,0,1,1,0]","location_rts":"[137516,39,335,186,458]","trial_type":"two-door-navigation","trial_index":20,"time_elapsed":1231437,"internal_node_id":"0.0-2.0-18.0"},{"group":"dicyclic group of order 12","room_assignment":["cyan","olive","pink","green","brown","orange","yellow","purple","red","blue","grey","ivory"],"door_color_assignment":["white","black"],"door_generator_assignment":[1,0],"goal":6,"start":5,"action_noise":0.15,"location_history":"[5,9,6]","action_history":"[0,0]","door_history":"[1,1]","location_rts":"[343,97]","trial_type":"two-door-navigation","trial_index":21,"time_elapsed":1237472,"internal_node_id":"0.0-2.0-19.0"},{"group":"dicyclic group of order 12","room_assignment":["cyan","olive","pink","green","brown","orange","yellow","purple","red","blue","grey","ivory"],"door_color_assignment":["white","black"],"door_generator_assignment":[1,0],"goal":3,"start":6,"action_noise":0.15,"location_history":"[6,10,2,6,10,7,11,4,9,6,10,2,3]","action_history":"[1,1,0,1,1,1,0,0,0,1,1,0]","door_history":"[0,0,1,0,0,0,1,1,1,0,0,1]","location_rts":"[263,211,47,98,135,28,41,84,287,42,178,524]","trial_type":"two-door-navigation","trial_index":22,"time_elapsed":1255424,"internal_node_id":"0.0-2.0-20.0"},{"group":"dicyclic group of order 12","room_assignment":["cyan","olive","pink","green","brown","orange","yellow","purple","red","blue","grey","ivory"],"door_color_assignment":["white","black"],"door_generator_assignment":[1,0],"goal":1,"start":3,"action_noise":0.15,"location_history":"[3,0,4,8,5,10,2,3,7,11,3,0,4,9,6,11,3,7,11,4,8,5,9,6,11,3,0,4,8,0,1]","action_history":"[1,1,1,0,0,1,0,1,1,1,0,1,0,0,1,1,0,1,0,1,1,1,0,1,1,0,0,1,1,0]","door_history":"[0,0,0,1,1,0,1,0,0,0,1,0,1,1,0,0,1,0,1,0,0,0,1,0,0,1,1,0,0,1]","location_rts":"[1352,125,105,16,111,93,49,494,97,301,37,464,593,75,19,276,450,38,597,523,340,495,62,728,926,849,7,256,342,384]","trial_type":"two-door-navigation","trial_index":23,"time_elapsed":1300637,"internal_node_id":"0.0-2.0-21.0"},{"group":"dicyclic group of order 12","room_assignment":["cyan","olive","pink","green","brown","orange","yellow","purple","red","blue","grey","ivory"],"door_color_assignment":["white","black"],"door_generator_assignment":[1,0],"goal":9,"start":1,"action_noise":0.15,"location_history":"[1,2,6,10,2,3,7,8,5,10,7,11,3,0,1,5,9]","action_history":"[0,1,1,1,0,1,0,0,0,0,1,1,0,0,0,1]","door_history":"[1,0,0,0,1,0,1,1,1,1,0,0,1,1,1,0]","location_rts":"[1028,225,31,48,243,78,130,343,139,283,17,229,131,264,342,485]","trial_type":"two-door-navigation","trial_index":24,"time_elapsed":1324798,"internal_node_id":"0.0-2.0-22.0"},{"group":"dicyclic group of order 12","room_assignment":["cyan","olive","pink","green","brown","orange","yellow","purple","red","blue","grey","ivory"],"door_color_assignment":["white","black"],"door_generator_assignment":[1,0],"goal":3,"start":9,"action_noise":0.15,"location_history":"[9,6,11,4,8,5,9,6,11,3]","action_history":"[0,0,1,1,1,1,0,0,1]","door_history":"[1,1,0,0,0,0,1,1,0]","location_rts":"[30731,257,103,403,201,160,215,83,41]","trial_type":"two-door-navigation","trial_index":25,"time_elapsed":1369859,"internal_node_id":"0.0-2.0-23.0"},{"group":"dicyclic group of order 12","room_assignment":["cyan","olive","pink","green","brown","orange","yellow","purple","red","blue","grey","ivory"],"door_color_assignment":["white","black"],"door_generator_assignment":[1,0],"goal":4,"start":3,"action_noise":0.15,"location_history":"[3,7,11,4]","action_history":"[1,1,0]","door_history":"[0,0,1]","location_rts":"[358,142,60]","trial_type":"two-door-navigation","trial_index":26,"time_elapsed":1377068,"internal_node_id":"0.0-2.0-24.0"},{"group":"dicyclic group of order 12","room_assignment":["cyan","olive","pink","green","brown","orange","yellow","purple","red","blue","grey","ivory"],"door_color_assignment":["white","black"],"door_generator_assignment":[1,0],"goal":2,"start":4,"action_noise":0.15,"location_history":"[4,9,1,2]","action_history":"[0,1,1]","door_history":"[1,0,0]","location_rts":"[636,112,132]","trial_type":"two-door-navigation","trial_index":27,"time_elapsed":1384581,"internal_node_id":"0.0-2.0-25.0"},{"group":"dicyclic group of order 12","room_assignment":["cyan","olive","pink","green","brown","orange","yellow","purple","red","blue","grey","ivory"],"door_color_assignment":["white","black"],"door_generator_assignment":[1,0],"goal":1,"start":2,"action_noise":0.15,"location_history":"[2,6,10,2,3,0,4,8,5,10,7,11,3,0,4,9,1]","action_history":"[1,1,1,0,0,1,1,0,0,0,1,1,0,1,1,0]","door_history":"[0,0,0,1,1,0,0,1,1,1,0,0,1,0,0,1]","location_rts":"[560,388,117,98,123,75,278,136,196,217,26,264,277,258,151,361]","trial_type":"two-door-navigation","trial_index":28,"time_elapsed":1408281,"internal_node_id":"0.0-2.0-26.0"},{"group":"dicyclic group of order 12","room_assignment":["cyan","olive","pink","green","brown","orange","yellow","purple","red","blue","grey","ivory"],"door_color_assignment":["white","black"],"door_generator_assignment":[1,0],"goal":8,"start":1,"action_noise":0.15,"location_history":"[1,2,6,10,2,3,0,4,9,1,2,6,11,4,8]","action_history":"[0,1,1,1,0,0,1,0,1,1,1,0,0,0]","door_history":"[1,0,0,0,1,1,0,1,0,0,0,1,1,1]","location_rts":"[5595,82,195,192,70,141,373,174,291,96,327,5,216,354]","trial_type":"two-door-navigation","trial_index":29,"time_elapsed":1434441,"internal_node_id":"0.0-2.0-27.0"},{"group":"dicyclic group of order 12","room_assignment":["cyan","olive","pink","green","brown","orange","yellow","purple","red","blue","grey","ivory"],"door_color_assignment":["white","black"],"door_generator_assignment":[1,0],"goal":10,"start":8,"action_noise":0.15,"location_history":"[8,0,4,9,1,5,10]","action_history":"[1,1,0,1,1,1]","door_history":"[0,0,1,0,0,0]","location_rts":"[15558,92,277,77,127,495]","trial_type":"two-door-navigation","trial_index":30,"time_elapsed":1460849,"internal_node_id":"0.0-2.0-28.0"},{"group":"dicyclic group of order 12","room_assignment":["cyan","olive","pink","green","brown","orange","yellow","purple","red","blue","grey","ivory"],"door_color_assignment":["white","black"],"door_generator_assignment":[1,0],"goal":7,"start":10,"action_noise":0.15,"location_history":"[10,2,3,0,4,8,0,4,8,5,10,7]","action_history":"[0,0,1,1,1,1,1,1,1,0,0]","door_history":"[1,1,0,0,0,0,0,0,0,1,1]","location_rts":"[18750,79,2,24,435,39,45,46,4,132,24]","trial_type":"two-door-navigation","trial_index":31,"time_elapsed":1495478,"internal_node_id":"0.0-2.0-29.0"},{"group":"dicyclic group of order 12","room_assignment":["cyan","olive","pink","green","brown","orange","yellow","purple","red","blue","grey","ivory"],"door_color_assignment":["white","black"],"door_generator_assignment":[1,0],"goal":6,"start":7,"action_noise":0.15,"location_history":"[7,11,4,8,5,10,7,11,4,9,6]","action_history":"[1,1,1,0,0,1,1,0,0,0]","door_history":"[0,0,0,1,1,0,0,1,1,1]","location_rts":"[510,3873,56,195,97,266,64,79,113,180]","trial_type":"two-door-navigation","trial_index":32,"time_elapsed":1514843,"internal_node_id":"0.0-2.0-30.0"},{"group":"dicyclic group of order 12","room_assignment":["cyan","olive","pink","green","brown","orange","yellow","purple","red","blue","grey","ivory"],"door_color_assignment":["white","black"],"door_generator_assignment":[1,0],"goal":0,"start":6,"action_noise":0.15,"location_history":"[6,10,7,8,5,9,1,2,3,0]","action_history":"[1,1,0,0,1,1,0,0,0]","door_history":"[0,0,1,1,0,0,1,1,1]","location_rts":"[3430,245,5945,88,2,304,528,439,689]","trial_type":"two-door-navigation","trial_index":33,"time_elapsed":1539362,"internal_node_id":"0.0-2.0-31.0"},{"group":"dicyclic group of order 12","room_assignment":["cyan","olive","pink","green","brown","orange","yellow","purple","red","blue","grey","ivory"],"door_color_assignment":["white","black"],"door_generator_assignment":[1,0],"goal":11,"start":0,"action_noise":0.15,"location_history":"[0,1,5,9,6,11]","action_history":"[1,1,0,0,1]","door_history":"[0,0,1,1,0]","location_rts":"[1996,402,660,946,413]","trial_type":"two-door-navigation","trial_index":34,"time_elapsed":1552471,"internal_node_id":"0.0-2.0-32.0"},{"group":"dicyclic group of order 12","room_assignment":["cyan","olive","pink","green","brown","orange","yellow","purple","red","blue","grey","ivory"],"door_color_assignment":["white","black"],"door_generator_assignment":[1,0],"goal":9,"start":11,"action_noise":0.15,"location_history":"[11,3,7,8,5,10,7,11,3,7,11,4,9]","action_history":"[1,1,0,0,0,0,1,1,1,1,0,0]","door_history":"[0,0,1,1,1,1,0,0,0,0,1,1]","location_rts":"[571,373,43,48,58,7,167,418,144,89,162,57]","trial_type":"two-door-navigation","trial_index":35,"time_elapsed":1570670,"internal_node_id":"0.0-2.0-33.0"},{"group":"dicyclic group of order 12","room_assignment":["cyan","olive","pink","green","brown","orange","yellow","purple","red","blue","grey","ivory"],"door_color_assignment":["white","black"],"door_generator_assignment":[1,0],"goal":5,"start":9,"action_noise":0.15,"location_history":"[9,1,5]","action_history":"[1,1]","door_history":"[0,0]","location_rts":"[41768,79]","trial_type":"two-door-navigation","trial_index":36,"time_elapsed":1618118,"internal_node_id":"0.0-2.0-34.0"},{"view_history":"[{\"page_index\":0,\"viewing_time\":2507}]","rt":2508,"trial_type":"instructions","trial_index":37,"time_elapsed":1621626,"internal_node_id":"0.0-3.0"},{"view_history":"[{\"page_index\":0,\"viewing_time\":1373},{\"page_index\":1,\"viewing_time\":4340}]","rt":5715,"trial_type":"instructions","trial_index":38,"time_elapsed":1628341,"internal_node_id":"0.0-4.0"},{"group":"dihedral group of order 12","fractal_assignment":["../images/org_blu.png","../images/grn_red.png","../images/red_prp.png","../images/gry_blk.png","../images/cyn_red.png","../images/grn_prp.png","../images/wht_red.png","../images/grn_blu.png","../images/ylw_pnk.png","../images/blu_wht.png","../images/pnk_blu.png","../images/ylw_slt.png"],"mutagen_generator_assignment":[0,1],"goal":7,"start":11,"action_noise":0.15,"location_history":"[11,10,4,10,9,8,7]","action_history":"[0,1,1,0,0,0]","mutagen_history":"[0,1,1,0,0,0]","location_rts":"[4339,675,9259,411,251,386]","trial_type":"fractal-mutation","trial_index":39,"time_elapsed":1653458,"internal_node_id":"0.0-5.0-0.0"},{"group":"dihedral group of order 12","fractal_assignment":["../images/org_blu.png","../images/grn_red.png","../images/red_prp.png","../images/gry_blk.png","../images/cyn_red.png","../images/grn_prp.png","../images/wht_red.png","../images/grn_blu.png","../images/ylw_pnk.png","../images/blu_wht.png","../images/pnk_blu.png","../images/ylw_slt.png"],"mutagen_generator_assignment":[0,1],"goal":8,"start":7,"action_noise":0.15,"location_history":"[7,6,11,10,9,8]","action_history":"[1,0,0,0,0]","mutagen_history":"[1,0,0,0,0]","location_rts":"[567,163,77,27,456]","trial_type":"fractal-mutation","trial_index":40,"time_elapsed":1663479,"internal_node_id":"0.0-5.0-1.0"},{"group":"dihedral group of order 12","fractal_assignment":["../images/org_blu.png","../images/grn_red.png","../images/red_prp.png","../images/gry_blk.png","../images/cyn_red.png","../images/grn_prp.png","../images/wht_red.png","../images/grn_blu.png","../images/ylw_pnk.png","../images/blu_wht.png","../images/pnk_blu.png","../images/ylw_slt.png"],"mutagen_generator_assignment":[0,1],"goal":4,"start":8,"action_noise":0.15,"location_history":"[8,7,1,7,1,2,3,4]","action_history":"[0,1,1,1,1,0,0]","mutagen_history":"[0,1,1,1,1,0,0]","location_rts":"[2278,164,81,165,303,180,305]","trial_type":"fractal-mutation","trial_index":41,"time_elapsed":1677776,"internal_node_id":"0.0-5.0-2.0"},{"group":"dihedral group of order 12","fractal_assignment":["../images/org_blu.png","../images/grn_red.png","../images/red_prp.png","../images/gry_blk.png","../images/cyn_red.png","../images/grn_prp.png","../images/wht_red.png","../images/grn_blu.png","../images/ylw_pnk.png","../images/blu_wht.png","../images/pnk_blu.png","../images/ylw_slt.png"],"mutagen_generator_assignment":[0,1],"goal":5,"start":4,"action_noise":0.15,"location_history":"[4,5]","action_history":"[0]","mutagen_history":"[0]","location_rts":"[33191]","trial_type":"fractal-mutation","trial_index":42,"time_elapsed":1715529,"internal_node_id":"0.0-5.0-3.0"},{"group":"dihedral group of order 12","fractal_assignment":["../images/org_blu.png","../images/grn_red.png","../images/red_prp.png","../images/gry_blk.png","../images/cyn_red.png","../images/grn_prp.png","../images/wht_red.png","../images/grn_blu.png","../images/ylw_pnk.png","../images/blu_wht.png","../images/pnk_blu.png","../images/ylw_slt.png"],"mutagen_generator_assignment":[0,1],"goal":10,"start":5,"action_noise":0.15,"location_history":"[5,11,10]","action_history":"[1,0]","mutagen_history":"[1,0]","location_rts":"[804,248]","trial_type":"fractal-mutation","trial_index":43,"time_elapsed":1722193,"internal_node_id":"0.0-5.0-4.0"},{"group":"dihedral group of order 12","fractal_assignment":["../images/org_blu.png","../images/grn_red.png","../images/red_prp.png","../images/gry_blk.png","../images/cyn_red.png","../images/grn_prp.png","../images/wht_red.png","../images/grn_blu.png","../images/ylw_pnk.png","../images/blu_wht.png","../images/pnk_blu.png","../images/ylw_slt.png"],"mutagen_generator_assignment":[0,1],"goal":1,"start":10,"action_noise":0.15,"location_history":"[10,9,3,9,3,4,10,4,5,0,1]","action_history":"[0,1,1,0,0,1,1,0,0,0]","mutagen_history":"[0,1,1,0,0,1,1,0,0,0]","location_rts":"[436,268,170,257,84,774,421,561,214,183]","trial_type":"fractal-mutation","trial_index":44,"time_elapsed":1739504,"internal_node_id":"0.0-5.0-5.0"},{"group":"dihedral group of order 12","fractal_assignment":["../images/org_blu.png","../images/grn_red.png","../images/red_prp.png","../images/gry_blk.png","../images/cyn_red.png","../images/grn_prp.png","../images/wht_red.png","../images/grn_blu.png","../images/ylw_pnk.png","../images/blu_wht.png","../images/pnk_blu.png","../images/ylw_slt.png"],"mutagen_generator_assignment":[0,1],"goal":6,"start":1,"action_noise":0.15,"location_history":"[1,7,1,2,3,9,8,7,1,7,1,7,6]","action_history":"[0,1,1,1,1,0,1,1,1,1,0,0]","mutagen_history":"[0,1,1,1,1,0,1,1,1,1,0,0]","location_rts":"[2757,71,9864,10127,268,218,219,381,219,466,120,244]","trial_type":"fractal-mutation","trial_index":45,"time_elapsed":1780798,"internal_node_id":"0.0-5.0-6.0"},{"group":"dihedral group of order 12","fractal_assignment":["../images/org_blu.png","../images/grn_red.png","../images/red_prp.png","../images/gry_blk.png","../images/cyn_red.png","../images/grn_prp.png","../images/wht_red.png","../images/grn_blu.png","../images/ylw_pnk.png","../images/blu_wht.png","../images/pnk_blu.png","../images/ylw_slt.png"],"mutagen_generator_assignment":[0,1],"goal":9,"start":6,"action_noise":0.15,"location_history":"[6,11,5,11,10,4,10,9]","action_history":"[0,0,0,0,1,1,0]","mutagen_history":"[0,0,0,0,1,1,0]","location_rts":"[8961,256,2622,297,64,124,134]","trial_type":"fractal-mutation","trial_index":46,"time_elapsed":1804070,"internal_node_id":"0.0-5.0-7.0"},{"group":"dihedral group of order 12","fractal_assignment":["../images/org_blu.png","../images/grn_red.png","../images/red_prp.png","../images/gry_blk.png","../images/cyn_red.png","../images/grn_prp.png","../images/wht_red.png","../images/grn_blu.png","../images/ylw_pnk.png","../images/blu_wht.png","../images/pnk_blu.png","../images/ylw_slt.png"],"mutagen_generator_assignment":[0,1],"goal":2,"start":9,"action_noise":0.15,"location_history":"[9,8,2]","action_history":"[0,1]","mutagen_history":"[0,1]","location_rts":"[522,275]","trial_type":"fractal-mutation","trial_index":47,"time_elapsed":1810480,"internal_node_id":"0.0-5.0-8.0"},{"group":"dihedral group of order 12","fractal_assignment":["../images/org_blu.png","../images/grn_red.png","../images/red_prp.png","../images/gry_blk.png","../images/cyn_red.png","../images/grn_prp.png","../images/wht_red.png","../images/grn_blu.png","../images/ylw_pnk.png","../images/blu_wht.png","../images/pnk_blu.png","../images/ylw_slt.png"],"mutagen_generator_assignment":[0,1],"goal":0,"start":2,"action_noise":0.15,"location_history":"[2,3,9,3,9,3,4,10,4,5,0]","action_history":"[0,1,1,1,1,0,1,1,1,0]","mutagen_history":"[0,1,1,1,1,0,1,1,1,0]","location_rts":"[18283,348,328,270,139,319,240,276,436,268]","trial_type":"fractal-mutation","trial_index":48,"time_elapsed":1845489,"internal_node_id":"0.0-5.0-9.0"},{"group":"dihedral group of order 12","fractal_assignment":["../images/org_blu.png","../images/grn_red.png","../images/red_prp.png","../images/gry_blk.png","../images/cyn_red.png","../images/grn_prp.png","../images/wht_red.png","../images/grn_blu.png","../images/ylw_pnk.png","../images/blu_wht.png","../images/pnk_blu.png","../images/ylw_slt.png"],"mutagen_generator_assignment":[0,1],"goal":3,"start":0,"action_noise":0.15,"location_history":"[0,1,2,3]","action_history":"[0,0,0]","mutagen_history":"[0,0,0]","location_rts":"[1480,240,347]","trial_type":"fractal-mutation","trial_index":49,"time_elapsed":1854179,"internal_node_id":"0.0-5.0-10.0"},{"group":"dihedral group of order 12","fractal_assignment":["../images/org_blu.png","../images/grn_red.png","../images/red_prp.png","../images/gry_blk.png","../images/cyn_red.png","../images/grn_prp.png","../images/wht_red.png","../images/grn_blu.png","../images/ylw_pnk.png","../images/blu_wht.png","../images/pnk_blu.png","../images/ylw_slt.png"],"mutagen_generator_assignment":[0,1],"goal":10,"start":3,"action_noise":0.15,"location_history":"[3,9,3,9,3,4,10]","action_history":"[1,1,1,1,0,1]","mutagen_history":"[1,1,1,1,0,1]","location_rts":"[934,195,384,450,433,292]","trial_type":"fractal-mutation","trial_index":50,"time_elapsed":1866760,"internal_node_id":"0.0-5.0-11.0"},{"group":"dihedral group of order 12","fractal_assignment":["../images/org_blu.png","../images/grn_red.png","../images/red_prp.png","../images/gry_blk.png","../images/cyn_red.png","../images/grn_prp.png","../images/wht_red.png","../images/grn_blu.png","../images/ylw_pnk.png","../images/blu_wht.png","../images/pnk_blu.png","../images/ylw_slt.png"],"mutagen_generator_assignment":[0,1],"goal":8,"start":10,"action_noise":0.15,"location_history":"[10,9,8]","action_history":"[0,0]","mutagen_history":"[0,0]","location_rts":"[22863,205]","trial_type":"fractal-mutation","trial_index":51,"time_elapsed":1895428,"internal_node_id":"0.0-5.0-12.0"},{"group":"dihedral group of order 12","fractal_assignment":["../images/org_blu.png","../images/grn_red.png","../images/red_prp.png","../images/gry_blk.png","../images/cyn_red.png","../images/grn_prp.png","../images/wht_red.png","../images/grn_blu.png","../images/ylw_pnk.png","../images/blu_wht.png","../images/pnk_blu.png","../images/ylw_slt.png"],"mutagen_generator_assignment":[0,1],"goal":4,"start":8,"action_noise":0.15,"location_history":"[8,7,1,7,1,2,8,2,3,4]","action_history":"[0,1,1,0,0,1,1,0,0]","mutagen_history":"[0,1,1,0,0,1,1,0,0]","location_rts":"[996,63,454,1076,502,317,336,59,386]","trial_type":"fractal-mutation","trial_index":52,"time_elapsed":1912622,"internal_node_id":"0.0-5.0-13.0"},{"group":"dihedral group of order 12","fractal_assignment":["../images/org_blu.png","../images/grn_red.png","../images/red_prp.png","../images/gry_blk.png","../images/cyn_red.png","../images/grn_prp.png","../images/wht_red.png","../images/grn_blu.png","../images/ylw_pnk.png","../images/blu_wht.png","../images/pnk_blu.png","../images/ylw_slt.png"],"mutagen_generator_assignment":[0,1],"goal":0,"start":4,"action_noise":0.15,"location_history":"[4,5,11,5,0]","action_history":"[0,1,1,0]","mutagen_history":"[0,1,1,0]","location_rts":"[29069,214,189,284]","trial_type":"fractal-mutation","trial_index":53,"time_elapsed":1950111,"internal_node_id":"0.0-5.0-14.0"},{"group":"dihedral group of order 12","fractal_assignment":["../images/org_blu.png","../images/grn_red.png","../images/red_prp.png","../images/gry_blk.png","../images/cyn_red.png","../images/grn_prp.png","../images/wht_red.png","../images/grn_blu.png","../images/ylw_pnk.png","../images/blu_wht.png","../images/pnk_blu.png","../images/ylw_slt.png"],"mutagen_generator_assignment":[0,1],"goal":11,"start":0,"action_noise":0.15,"location_history":"[0,1,2,8,2,3,4,10,4,10,9,8,2,8,7,6,11]","action_history":"[0,0,1,1,0,0,1,1,1,0,0,1,1,1,0,0]","mutagen_history":"[0,0,1,1,0,0,1,1,1,0,0,1,1,1,0,0]","location_rts":"[485,475,170,195,606,423,108,403,452,450,431,211,196,412,325,545]","trial_type":"fractal-mutation","trial_index":54,"time_elapsed":1976455,"internal_node_id":"0.0-5.0-15.0"},{"group":"dihedral group of order 12","fractal_assignment":["../images/org_blu.png","../images/grn_red.png","../images/red_prp.png","../images/gry_blk.png","../images/cyn_red.png","../images/grn_prp.png","../images/wht_red.png","../images/grn_blu.png","../images/ylw_pnk.png","../images/blu_wht.png","../images/pnk_blu.png","../images/ylw_slt.png"],"mutagen_generator_assignment":[0,1],"goal":2,"start":11,"action_noise":0.15,"location_history":"[11,5,11,5,11,10,9,3,9,3,9,3,9,8,7,6,0,6,11,10,4,10,4,10,9,3,4,5,11,5,0,1,7,6,11,5,11,5,11,10,4,5,11,10,9,3,4,5,0,6,0,1,7,1,2]","action_history":"[0,1,1,1,0,0,1,1,1,0,1,1,0,0,1,1,1,0,0,1,1,1,1,0,1,0,0,1,1,0,0,1,0,0,1,1,1,1,0,1,0,1,0,0,1,0,0,0,1,1,0,1,1,0]","mutagen_history":"[0,1,1,1,0,0,1,1,1,0,1,1,0,0,1,1,1,0,0,1,1,1,1,0,1,0,0,1,1,0,0,1,0,0,1,1,1,1,0,1,0,1,0,0,1,0,0,0,1,1,0,1,1,0]","location_rts":"[11892,515,233,420,409,457,80,146,307,55,116,394,142,221,35,453,516,547,6426,111,429,487,431,25,1123,6,331,214,850,569,463,372,486,413,671,833,888,724,502,418,556,769,933,611,838,140,439,683,1474,789,672,740,630,645]","trial_type":"fractal-mutation","trial_index":55,"time_elapsed":2080411,"internal_node_id":"0.0-5.0-16.0"},{"group":"dihedral group of order 12","fractal_assignment":["../images/org_blu.png","../images/grn_red.png","../images/red_prp.png","../images/gry_blk.png","../images/cyn_red.png","../images/grn_prp.png","../images/wht_red.png","../images/grn_blu.png","../images/ylw_pnk.png","../images/blu_wht.png","../images/pnk_blu.png","../images/ylw_slt.png"],"mutagen_generator_assignment":[0,1],"goal":7,"start":2,"action_noise":0.15,"location_history":"[2,8,2,3,9,3,4,10,9,3,9,3,4,5,11,5,11,10,4,10,4,10,4,10,9,3,4,10,9,3,9,8,7]","action_history":"[1,1,0,1,1,0,1,0,1,1,1,0,0,1,1,1,0,1,1,0,0,1,0,0,1,1,1,0,1,1,0,0]","mutagen_history":"[1,1,0,1,1,0,1,0,1,1,1,0,0,1,1,1,0,1,1,0,0,1,0,0,1,1,1,0,1,1,0,0]","location_rts":"[6871,648,633,411,499,433,578,407,219,66,247,33,428,507,544,502,71,709,343,432,422,436,296,307,453,78,437,1236,599,124,143,327]","trial_type":"fractal-mutation","trial_index":56,"time_elapsed":2137060,"internal_node_id":"0.0-5.0-17.0"},{"group":"dihedral group of order 12","fractal_assignment":["../images/org_blu.png","../images/grn_red.png","../images/red_prp.png","../images/gry_blk.png","../images/cyn_red.png","../images/grn_prp.png","../images/wht_red.png","../images/grn_blu.png","../images/ylw_pnk.png","../images/blu_wht.png","../images/pnk_blu.png","../images/ylw_slt.png"],"mutagen_generator_assignment":[0,1],"goal":5,"start":7,"action_noise":0.15,"location_history":"[7,1,2,3,9,8,7,6,11,10,9,8,7,6,0,1,2,8,2,3,4,10,4,5]","action_history":"[1,0,0,0,0,0,0,0,0,0,1,0,0,1,1,0,1,1,0,0,1,1,0]","mutagen_history":"[1,0,0,0,0,0,0,0,0,0,1,0,0,1,1,0,1,1,0,0,1,1,0]","location_rts":"[1087,281,965,504,178,30,39,67,359,412,144,189,446,535,629,540,760,727,471,492,205,404,675]","trial_type":"fractal-mutation","trial_index":57,"time_elapsed":2174835,"internal_node_id":"0.0-5.0-18.0"},{"group":"dihedral group of order 12","fractal_assignment":["../images/org_blu.png","../images/grn_red.png","../images/red_prp.png","../images/gry_blk.png","../images/cyn_red.png","../images/grn_prp.png","../images/wht_red.png","../images/grn_blu.png","../images/ylw_pnk.png","../images/blu_wht.png","../images/pnk_blu.png","../images/ylw_slt.png"],"mutagen_generator_assignment":[0,1],"goal":6,"start":5,"action_noise":0.15,"location_history":"[5,11,10,9,8,7,6]","action_history":"[1,0,0,0,0,0]","mutagen_history":"[1,0,0,0,0,0]","location_rts":"[794,209,9,73,41,18]","trial_type":"fractal-mutation","trial_index":58,"time_elapsed":2185845,"internal_node_id":"0.0-5.0-19.0"},{"group":"dihedral group of order 12","fractal_assignment":["../images/org_blu.png","../images/grn_red.png","../images/red_prp.png","../images/gry_blk.png","../images/cyn_red.png","../images/grn_prp.png","../images/wht_red.png","../images/grn_blu.png","../images/ylw_pnk.png","../images/blu_wht.png","../images/pnk_blu.png","../images/ylw_slt.png"],"mutagen_generator_assignment":[0,1],"goal":3,"start":6,"action_noise":0.15,"location_history":"[6,0,1,7,1,7,1,7,6,11,5,0,6,11,5,11,5,0,6,0,6,11,10,9,3]","action_history":"[1,0,1,1,1,1,1,0,0,1,0,1,0,1,1,0,0,1,1,1,0,0,0,1]","mutagen_history":"[1,0,1,1,1,1,1,0,0,1,0,1,0,1,1,0,0,1,1,1,0,0,0,1]","location_rts":"[772,249,433,288,89,305,403,407,400,37,42,391,152,49,236,173,352,504,751,1260,576,12358,528,641]","trial_type":"fractal-mutation","trial_index":59,"time_elapsed":2236050,"internal_node_id":"0.0-5.0-20.0"},{"group":"dihedral group of order 12","fractal_assignment":["../images/org_blu.png","../images/grn_red.png","../images/red_prp.png","../images/gry_blk.png","../images/cyn_red.png","../images/grn_prp.png","../images/wht_red.png","../images/grn_blu.png","../images/ylw_pnk.png","../images/blu_wht.png","../images/pnk_blu.png","../images/ylw_slt.png"],"mutagen_generator_assignment":[0,1],"goal":1,"start":3,"action_noise":0.15,"location_history":"[3,9,8,7,1]","action_history":"[1,0,0,1]","mutagen_history":"[1,0,0,1]","location_rts":"[1175,11229,925,427]","trial_type":"fractal-mutation","trial_index":60,"time_elapsed":2258105,"internal_node_id":"0.0-5.0-21.0"},{"group":"dihedral group of order 12","fractal_assignment":["../images/org_blu.png","../images/grn_red.png","../images/red_prp.png","../images/gry_blk.png","../images/cyn_red.png","../images/grn_prp.png","../images/wht_red.png","../images/grn_blu.png","../images/ylw_pnk.png","../images/blu_wht.png","../images/pnk_blu.png","../images/ylw_slt.png"],"mutagen_generator_assignment":[0,1],"goal":9,"start":1,"action_noise":0.15,"location_history":"[1,7,1,7,1,7,1,2,8,2,3,9]","action_history":"[1,1,1,1,0,0,1,1,1,0,1]","mutagen_history":"[1,1,1,1,0,0,1,1,1,0,1]","location_rts":"[11021,7,57,251,579,372,349,353,386,422,606]","trial_type":"fractal-mutation","trial_index":61,"time_elapsed":2288843,"internal_node_id":"0.0-5.0-22.0"},{"group":"dihedral group of order 12","fractal_assignment":["../images/org_blu.png","../images/grn_red.png","../images/red_prp.png","../images/gry_blk.png","../images/cyn_red.png","../images/grn_prp.png","../images/wht_red.png","../images/grn_blu.png","../images/ylw_pnk.png","../images/blu_wht.png","../images/pnk_blu.png","../images/ylw_slt.png"],"mutagen_generator_assignment":[0,1],"goal":3,"start":9,"action_noise":0.15,"location_history":"[9,3]","action_history":"[1]","mutagen_history":"[1]","location_rts":"[1320]","trial_type":"fractal-mutation","trial_index":62,"time_elapsed":2295101,"internal_node_id":"0.0-5.0-23.0"},{"group":"dihedral group of order 12","fractal_assignment":["../images/org_blu.png","../images/grn_red.png","../images/red_prp.png","../images/gry_blk.png","../images/cyn_red.png","../images/grn_prp.png","../images/wht_red.png","../images/grn_blu.png","../images/ylw_pnk.png","../images/blu_wht.png","../images/pnk_blu.png","../images/ylw_slt.png"],"mutagen_generator_assignment":[0,1],"goal":4,"start":3,"action_noise":0.15,"location_history":"[3,4]","action_history":"[1]","mutagen_history":"[1]","location_rts":"[18279]","trial_type":"fractal-mutation","trial_index":63,"time_elapsed":2318955,"internal_node_id":"0.0-5.0-24.0"},{"group":"dihedral group of order 12","fractal_assignment":["../images/org_blu.png","../images/grn_red.png","../images/red_prp.png","../images/gry_blk.png","../images/cyn_red.png","../images/grn_prp.png","../images/wht_red.png","../images/grn_blu.png","../images/ylw_pnk.png","../images/blu_wht.png","../images/pnk_blu.png","../images/ylw_slt.png"],"mutagen_generator_assignment":[0,1],"goal":2,"start":4,"action_noise":0.15,"location_history":"[4,10,4,5,0,6,0,6,11,10,4,10,9,8,7,1,7,6,11,5,0,1,7,1,7,6,0,6,0,1,7,1,7,1,2]","action_history":"[1,0,0,0,1,1,1,1,0,1,0,0,0,0,1,0,0,0,1,0,0,1,1,1,0,1,1,1,0,0,1,1,1,0]","mutagen_history":"[1,0,0,0,1,1,1,1,0,1,0,0,0,0,1,0,0,0,1,0,0,1,1,1,0,1,1,1,0,0,1,1,1,0]","location_rts":"[735,436,385,570,580,623,1607,820,262,510,516,409,474,742,689,608,474,886,404,1068,1348,558,597,5503,324,925,2023,691,366,1318,1217,439,787,863]","trial_type":"fractal-mutation","trial_index":64,"time_elapsed":2388072,"internal_node_id":"0.0-5.0-25.0"},{"group":"dihedral group of order 12","fractal_assignment":["../images/org_blu.png","../images/grn_red.png","../images/red_prp.png","../images/gry_blk.png","../images/cyn_red.png","../images/grn_prp.png","../images/wht_red.png","../images/grn_blu.png","../images/ylw_pnk.png","../images/blu_wht.png","../images/pnk_blu.png","../images/ylw_slt.png"],"mutagen_generator_assignment":[0,1],"goal":1,"start":2,"action_noise":0.15,"location_history":"[2,8,2,8,2,8,7,6,0,6,11,10,4,10,4,5,11,10,4,5,11,5,11,5,0,1]","action_history":"[1,1,1,1,0,0,0,1,0,0,0,1,1,0,0,0,0,1,0,1,1,1,1,0,0]","mutagen_history":"[1,1,1,1,0,0,0,1,0,0,0,1,1,0,0,0,0,1,0,1,1,1,1,0,0]","location_rts":"[2390,29381,356,485,399,363,475,390,222,425,462,384,410,422,217,476,359,324,98,536,687,1436,791,224,377]","trial_type":"fractal-mutation","trial_index":65,"time_elapsed":2459882,"internal_node_id":"0.0-5.0-26.0"},{"group":"dihedral group of order 12","fractal_assignment":["../images/org_blu.png","../images/grn_red.png","../images/red_prp.png","../images/gry_blk.png","../images/cyn_red.png","../images/grn_prp.png","../images/wht_red.png","../images/grn_blu.png","../images/ylw_pnk.png","../images/blu_wht.png","../images/pnk_blu.png","../images/ylw_slt.png"],"mutagen_generator_assignment":[0,1],"goal":8,"start":1,"action_noise":0.15,"location_history":"[1,7,6,0,1,2,8]","action_history":"[1,0,1,0,0,1]","mutagen_history":"[1,0,1,0,0,1]","location_rts":"[1143,496,1579,351,360,244]","trial_type":"fractal-mutation","trial_index":66,"time_elapsed":2473856,"internal_node_id":"0.0-5.0-27.0"},{"group":"dihedral group of order 12","fractal_assignment":["../images/org_blu.png","../images/grn_red.png","../images/red_prp.png","../images/gry_blk.png","../images/cyn_red.png","../images/grn_prp.png","../images/wht_red.png","../images/grn_blu.png","../images/ylw_pnk.png","../images/blu_wht.png","../images/pnk_blu.png","../images/ylw_slt.png"],"mutagen_generator_assignment":[0,1],"goal":10,"start":8,"action_noise":0.15,"location_history":"[8,2,3,9,3,9,8,2,8,7,1,7,1,2,8,7,1,2,8,2,8,7,1,2,3,9,8,2,8,2,3,9,3,4,10]","action_history":"[1,1,1,1,1,0,1,0,0,1,1,1,0,0,0,1,0,0,0,1,0,0,0,0,1,0,1,1,1,0,1,1,0,1]","mutagen_history":"[1,1,1,1,1,0,1,0,0,1,1,1,0,0,0,1,0,0,0,1,0,0,0,0,1,0,1,1,1,0,1,1,0,1]","location_rts":"[686,295,339,476,297,359,90,740,570,82,371,360,301,421,747,367,461,97,169,469,370,551,566,233,133,700,741,250,751,623,227,471,762,621]","trial_type":"fractal-mutation","trial_index":67,"time_elapsed":2527851,"internal_node_id":"0.0-5.0-28.0"},{"group":"dihedral group of order 12","fractal_assignment":["../images/org_blu.png","../images/grn_red.png","../images/red_prp.png","../images/gry_blk.png","../images/cyn_red.png","../images/grn_prp.png","../images/wht_red.png","../images/grn_blu.png","../images/ylw_pnk.png","../images/blu_wht.png","../images/pnk_blu.png","../images/ylw_slt.png"],"mutagen_generator_assignment":[0,1],"goal":7,"start":10,"action_noise":0.15,"location_history":"[10,4,5,0,1,7]","action_history":"[1,0,0,1,1]","mutagen_history":"[1,0,0,1,1]","location_rts":"[895,244,453,611,481]","trial_type":"fractal-mutation","trial_index":68,"time_elapsed":2539273,"internal_node_id":"0.0-5.0-29.0"},{"group":"dihedral group of order 12","fractal_assignment":["../images/org_blu.png","../images/grn_red.png","../images/red_prp.png","../images/gry_blk.png","../images/cyn_red.png","../images/grn_prp.png","../images/wht_red.png","../images/grn_blu.png","../images/ylw_pnk.png","../images/blu_wht.png","../images/pnk_blu.png","../images/ylw_slt.png"],"mutagen_generator_assignment":[0,1],"goal":6,"start":7,"action_noise":0.15,"location_history":"[7,1,7,1,7,1,2,3,4,5,0,1,2,8,2,8,2,3,4,5,11,10,9,8,7,6]","action_history":"[1,0,0,1,1,0,0,0,0,0,0,0,1,1,1,1,0,0,1,1,0,0,0,0,0]","mutagen_history":"[1,0,0,1,1,0,0,0,0,0,0,0,1,1,1,1,0,0,1,1,0,0,0,0,0]","location_rts":"[648,401,238,459,428,177,25,110,136,434,555,479,270,367,440,1184,334,458,437,707,840,287,271,310,336]","trial_type":"fractal-mutation","trial_index":69,"time_elapsed":2579385,"internal_node_id":"0.0-5.0-30.0"},{"group":"dihedral group of order 12","fractal_assignment":["../images/org_blu.png","../images/grn_red.png","../images/red_prp.png","../images/gry_blk.png","../images/cyn_red.png","../images/grn_prp.png","../images/wht_red.png","../images/grn_blu.png","../images/ylw_pnk.png","../images/blu_wht.png","../images/pnk_blu.png","../images/ylw_slt.png"],"mutagen_generator_assignment":[0,1],"goal":0,"start":6,"action_noise":0.15,"location_history":"[6,0]","action_history":"[1]","mutagen_history":"[1]","location_rts":"[558]","trial_type":"fractal-mutation","trial_index":70,"time_elapsed":2584490,"internal_node_id":"0.0-5.0-31.0"},{"group":"dihedral group of order 12","fractal_assignment":["../images/org_blu.png","../images/grn_red.png","../images/red_prp.png","../images/gry_blk.png","../images/cyn_red.png","../images/grn_prp.png","../images/wht_red.png","../images/grn_blu.png","../images/ylw_pnk.png","../images/blu_wht.png","../images/pnk_blu.png","../images/ylw_slt.png"],"mutagen_generator_assignment":[0,1],"goal":11,"start":0,"action_noise":0.15,"location_history":"[0,6,0,1,2,3,4,5,0,6,0,1,7,1,7,1,7,6,0,6,0,6,11]","action_history":"[1,0,0,0,0,0,0,0,0,1,0,1,1,1,0,1,1,0,1,1,1,0]","mutagen_history":"[1,0,0,0,0,0,0,0,0,1,0,1,1,1,0,1,1,0,1,1,1,0]","location_rts":"[548,1347,169,275,249,310,288,340,329,139,211,517,144,359,61,250,441,216,286,166,452,255]","trial_type":"fractal-mutation","trial_index":71,"time_elapsed":2618670,"internal_node_id":"0.0-5.0-32.0"},{"group":"dihedral group of order 12","fractal_assignment":["../images/org_blu.png","../images/grn_red.png","../images/red_prp.png","../images/gry_blk.png","../images/cyn_red.png","../images/grn_prp.png","../images/wht_red.png","../images/grn_blu.png","../images/ylw_pnk.png","../images/blu_wht.png","../images/pnk_blu.png","../images/ylw_slt.png"],"mutagen_generator_assignment":[0,1],"goal":9,"start":11,"action_noise":0.15,"location_history":"[11,5,0,6,0,1,2,8,2,8,7,1,7,1,7,6,0,6,0,1,7,6,0,6,0,1,7,6,11,5,11,5,11,10,4,5,11,5,0,6,0,6,0,1,7,1,2,3,9]","action_history":"[1,0,1,1,0,1,1,1,1,0,1,1,1,1,0,1,0,1,0,1,0,1,1,1,0,0,0,0,1,1,1,1,0,1,0,0,1,0,1,1,1,1,0,0,0,0,1,1]","mutagen_history":"[1,0,1,1,0,1,1,1,1,0,1,1,1,1,0,1,0,1,0,1,0,1,1,1,0,0,0,0,1,1,1,1,0,1,0,0,1,0,1,1,1,1,0,0,0,0,1,1]","location_rts":"[674,145,35,73,1337,791,926,762,634,79,641,1268,815,594,130,352,533,476,180,1013,1211,714,6741,294,347,176,266,263,25,347,700,454,847,540,540,324,383,803,604,685,501,482,119,221,223,829,59,1629]","trial_type":"fractal-mutation","trial_index":72,"time_elapsed":2704700,"internal_node_id":"0.0-5.0-33.0"},{"group":"dihedral group of order 12","fractal_assignment":["../images/org_blu.png","../images/grn_red.png","../images/red_prp.png","../images/gry_blk.png","../images/cyn_red.png","../images/grn_prp.png","../images/wht_red.png","../images/grn_blu.png","../images/ylw_pnk.png","../images/blu_wht.png","../images/pnk_blu.png","../images/ylw_slt.png"],"mutagen_generator_assignment":[0,1],"goal":5,"start":9,"action_noise":0.15,"location_history":"[9,3,4,5]","action_history":"[1,0,0]","mutagen_history":"[1,0,0]","location_rts":"[509,455,190]","trial_type":"fractal-mutation","trial_index":73,"time_elapsed":2712578,"internal_node_id":"0.0-5.0-34.0"},{"view_history":"[{\"page_index\":0,\"viewing_time\":7244}]","rt":7245,"trial_type":"instructions","trial_index":74,"time_elapsed":2720832,"internal_node_id":"0.0-6.0"},{"rt":4072,"responses":"{\"Q0\":\"no\"}","trial_type":"survey-text","trial_index":75,"time_elapsed":2725914,"internal_node_id":"0.0-7.0"}]