[{"view_history":"[{\"page_index\":0,\"viewing_time\":959131},{\"page_index\":1,\"viewing_time\":17527}]","rt":976659,"trial_type":"instructions","trial_index":0,"time_elapsed":976661,"internal_node_id":"0.0-0.0"},{"view_history":"[{\"page_index\":0,\"viewing_time\":114892},{\"page_index\":1,\"viewing_time\":37216}]","rt":152108,"trial_type":"instructions","trial_index":1,"time_elapsed":1129772,"internal_node_id":"0.0-1.0"},{"group":"dihedral group of order 12","room_assignment":["pink","yellow","purple","cyan","red","green","grey","olive","ivory","brown","blue","orange"],"door_color_assignment":["white","black"],"door_generator_assignment":[1,0],"goal":7,"start":11,"action_noise":0.15,"location_history":"[11,10,9,8,7]","action_history":"[0,0,0,0]","door_history":"[1,1,1,1]","location_rts":"[1796,520,449,520]","trial_type":"two-door-navigation","trial_index":2,"time_elapsed":1141047,"internal_node_id":"0.0-2.0-0.0"},{"group":"dihedral group of order 12","room_assignment":["pink","yellow","purple","cyan","red","green","grey","olive","ivory","brown","blue","orange"],"door_color_assignment":["white","black"],"door_generator_assignment":[1,0],"goal":8,"start":7,"action_noise":0.15,"location_history":"[7,1,2,3,4,10,9,3,9,8]","action_history":"[1,0,0,0,0,0,1,1,0]","door_history":"[0,1,1,1,1,1,0,0,1]","location_rts":"[1650,513,734,533,772,797,675,768,449]","trial_type":"two-door-navigation","trial_index":3,"time_elapsed":1161619,"internal_node_id":"0.0-2.0-1.0"},{"group":"dihedral group of order 12","room_assignment":["pink","yellow","purple","cyan","red","green","grey","olive","ivory","brown","blue","orange"],"door_color_assignment":["white","black"],"door_generator_assignment":[1,0],"goal":4,"start":8,"action_noise":0.15,"location_history":"[8,2,8,7,6,11,10,9,8,2,8,7,6,0,1,2,3,4]","action_history":"[0,0,0,0,0,0,0,0,0,0,0,0,0,0,0,0,0]","door_history":"[1,1,1,1,1,1,1,1,1,1,1,1,1,1,1,1,1]","location_rts":"[37522,860,494,480,872,690,737,624,496,462,740,4151,472,814,528,583,560]","trial_type":"two-door-navigation","trial_index":4,"time_elapsed":1235378,"internal_node_id":"0.0-2.0-2.0"},{"group":"dihedral group of order 12","room_assignment":["pink","yellow","purple","cyan","red","green","grey","olive","ivory","brown","blue","orange"],"door_color_assignment":["white","black"],"door_generator_assignment":[1,0],"goal":5,"start":4,"action_noise":0.15,"location_history":"[4,5]","action_history":"[0]","door_history":"[1]","location_rts":"[1127]","trial_type":"two-door-navigation","trial_index":5,"time_elapsed":1241150,"internal_node_id":"0.0-2.0-3.0"},{"group":"dihedral group of order 12","room_assignment":["pink","yellow","purple","cyan","red","green","grey","olive","ivory","brown","blue","orange"],"door_color_assignment":["white","black"],"door_generator_assignment":[1,0],"goal":10,"start":5,"action_noise":0.15,"location_history":"[5,11,10]","action_history":"[0,0]","door_history":"[1,1]","location_rts":"[902,607]","trial_type":"two-door-navigation","trial_index":6,"time_elapsed":1248455,"internal_node_id":"0.0-2.0-4.0"},{"group":"dihedral group of order 12","room_assignment":["pink","yellow","purple","cyan","red","green","grey","olive","ivory","brown","blue","orange"],"door_color_assignment":["white","black"],"door_generator_assignment":[1,0],"goal":1,"start":10,"action_noise":0.15,"location_history":"[10,9,8,7,1]","action_history":"[0,0,0,1]","door_history":"[1,1,1,0]","location_rts":"[927,1420,605,893]","trial_type":"two-door-navigation","trial_index":7,"time_elapsed":1260319,"internal_node_id":"0.0-2.0-5.0"},{"group":"dihedral group of order 12","room_assignment":["pink","yellow","purple","cyan","red","green","grey","olive","ivory","brown","blue","orange"],"door_color_assignment":["white","black"],"door_generator_assignment":[1,0],"goal":6,"start":1,"action_noise":0.15,"location_history":"[1,2,8,2,3,9,8,2,8,7,6]","action_history":"[0,1,1,0,1,0,1,1,0,0]","door_history":"[1,0,0,1,0,1,0,0,1,1]","location_rts":"[1302,625,596,287,511,791,945,617,871,1024]","trial_type":"two-door-navigation","trial_index":8,"time_elapsed":1282660,"internal_node_id":"0.0-2.0-6.0"},{"group":"dihedral group of order 12","room_assignment":["pink","yellow","purple","cyan","red","green","grey","olive","ivory","brown","blue","orange"],"door_color_assignment":["white","black"],"door_generator_assignment":[1,0],"goal":9,"start":6,"action_noise":0.15,"location_history":"[6,11,5,11,10,4,5,11,5,0,1,2,3,4,5,11,10,4,5,0,6,11,10,9]","action_history":"[0,1,1,0,1,0,0,1,0,0,0,0,0,0,1,0,1,0,0,1,0,0,0]","door_history":"[1,0,0,1,0,1,1,0,1,1,1,1,1,1,0,1,0,1,1,0,1,1,1]","location_rts":"[1265,1100,479,348,472,82,820,726,507,690,545,600,756,740,743,758,720,560,674,902,889,518,860]","trial_type":"two-door-navigation","trial_index":9,"time_elapsed":1327897,"internal_node_id":"0.0-2.0-7.0"},{"group":"dihedral group of order 12","room_assignment":["pink","yellow","purple","cyan","red","green","grey","olive","ivory","brown","blue","orange"],"door_color_assignment":["white","black"],"door_generator_assignment":[1,0],"goal":2,"start":9,"action_noise":0.15,"location_history":"[9,3,4,10,9,8,7,6,0,6,11,5,0,6,11,5,11,10,4,5,0,1,7,1,2]","action_history":"[1,0,1,0,1,0,0,1,1,0,1,0,1,0,1,1,0,1,0,1,0,0,1,0]","door_history":"[0,1,0,1,0,1,1,0,0,1,0,1,0,1,0,0,1,0,1,0,1,1,0,1]","location_rts":"[858,1007,613,88,1297,424,1041,1117,1129,451,1731,596,1256,807,876,708,343,119,48,480,294,936,1083,836]","trial_type":"two-door-navigation","trial_index":10,"time_elapsed":1376547,"internal_node_id":"0.0-2.0-8.0"},{"group":"dihedral group of order 12","room_assignment":["pink","yellow","purple","cyan","red","green","grey","olive","ivory","brown","blue","orange"],"door_color_assignment":["white","black"],"door_generator_assignment":[1,0],"goal":0,"start":2,"action_noise":0.15,"location_history":"[2,8,7,6,11,10,9,3,4,5,0]","action_history":"[1,0,0,0,0,0,1,0,0,0]","door_history":"[0,1,1,1,1,1,0,1,1,1]","location_rts":"[761,746,983,584,738,1284,973,2964,636,560]","trial_type":"two-door-navigation","trial_index":11,"time_elapsed":1401512,"internal_node_id":"0.0-2.0-9.0"},{"group":"dihedral group of order 12","room_assignment":["pink","yellow","purple","cyan","red","green","grey","olive","ivory","brown","blue","orange"],"door_color_assignment":["white","black"],"door_generator_assignment":[1,0],"goal":3,"start":0,"action_noise":0.15,"location_history":"[0,1,2,8,7,6,11,10,4,5,0,6,11,10,9,8,2,8,7,1,7,1,7,1,2,3]","action_history":"[0,0,1,0,0,1,0,0,0,0,1,0,0,0,0,1,1,0,0,0,0,0,1,0,0]","door_history":"[1,1,0,1,1,0,1,1,1,1,0,1,1,1,1,0,0,1,1,1,1,1,0,1,1]","location_rts":"[1047,623,1697,601,2452,924,456,696,524,656,724,513,330,118,166,1777,789,477,850,707,473,1184,3228,471,531]","trial_type":"two-door-navigation","trial_index":12,"time_elapsed":1455260,"internal_node_id":"0.0-2.0-10.0"},{"group":"dihedral group of order 12","room_assignment":["pink","yellow","purple","cyan","red","green","grey","olive","ivory","brown","blue","orange"],"door_color_assignment":["white","black"],"door_generator_assignment":[1,0],"goal":10,"start":3,"action_noise":0.15,"location_history":"[3,9,8,7,6,11,10]","action_history":"[1,0,0,0,0,0]","door_history":"[0,1,1,1,1,1]","location_rts":"[616,851,6126,847,519,556]","trial_type":"two-door-navigation","trial_index":13,"time_elapsed":1475067,"internal_node_id":"0.0-2.0-11.0"},{"group":"dihedral group of order 12","room_assignment":["pink","yellow","purple","cyan","red","green","grey","olive","ivory","brown","blue","orange"],"door_color_assignment":["white","black"],"door_generator_assignment":[1,0],"goal":8,"start":10,"action_noise":0.15,"location_history":"[10,9,8]","action_history":"[0,0]","door_history":"[1,1]","location_rts":"[57912,498]","trial_type":"two-door-navigation","trial_index":14,"time_elapsed":1539188,"internal_node_id":"0.0-2.0-12.0"},{"group":"dihedral group of order 12","room_assignment":["pink","yellow","purple","cyan","red","green","grey","olive","ivory","brown","blue","orange"],"door_color_assignment":["white","black"],"door_generator_assignment":[1,0],"goal":4,"start":8,"action_noise":0.15,"location_history":"[8,7,6,11,5,0,1,2,3,9,8,7,6,11,5,0,1,2,3,9,8,7,6,11,10,4]","action_history":"[0,0,0,0,0,0,0,0,0,0,0,0,0,0,0,0,0,0,0,0,0,0,0,0,1]","door_history":"[1,1,1,1,1,1,1,1,1,1,1,1,1,1,1,1,1,1,1,1,1,1,1,1,0]","location_rts":"[1030,449,436,561,586,533,964,643,523,542,530,562,559,551,513,578,539,522,644,931,581,469,407,487,1623]","trial_type":"two-door-navigation","trial_index":15,"time_elapsed":1585620,"internal_node_id":"0.0-2.0-13.0"},{"group":"dihedral group of order 12","room_assignment":["pink","yellow","purple","cyan","red","green","grey","olive","ivory","brown","blue","orange"],"door_color_assignment":["white","black"],"door_generator_assignment":[1,0],"goal":0,"start":4,"action_noise":0.15,"location_history":"[4,5,11,10,9,8,2,3,9,8,7,1,2,8,7,1,7,6,11,10,9,8,2,3,9,8,2,8,7,6,0]","action_history":"[0,0,0,0,0,1,0,1,0,0,1,0,1,0,0,0,0,0,0,0,0,1,0,1,0,0,1,0,0,0]","door_history":"[1,1,1,1,1,0,1,0,1,1,0,1,0,1,1,1,1,1,1,1,1,0,1,0,1,1,0,1,1,1]","location_rts":"[17879,415,339,645,1501,696,967,494,1395,3511,980,314,853,360,1436,689,514,489,16311,505,458,848,529,819,454,467,985,482,707,546]","trial_type":"two-door-navigation","trial_index":16,"time_elapsed":1678176,"internal_node_id":"0.0-2.0-14.0"},{"group":"dihedral group of order 12","room_assignment":["pink","yellow","purple","cyan","red","green","grey","olive","ivory","brown","blue","orange"],"door_color_assignment":["white","black"],"door_generator_assignment":[1,0],"goal":11,"start":0,"action_noise":0.15,"location_history":"[0,1,2,3,4,5,0,6,11]","action_history":"[0,0,0,0,0,0,1,0]","door_history":"[1,1,1,1,1,1,0,1]","location_rts":"[25865,656,1706,539,694,465,867,531]","trial_type":"two-door-navigation","trial_index":17,"time_elapsed":1721740,"internal_node_id":"0.0-2.0-15.0"},{"group":"dihedral group of order 12","room_assignment":["pink","yellow","purple","cyan","red","green","grey","olive","ivory","brown","blue","orange"],"door_color_assignment":["white","black"],"door_generator_assignment":[1,0],"goal":2,"start":11,"action_noise":0.15,"location_history":"[11,10,9,8,7,6,11,5,0,1,2]","action_history":"[0,0,0,0,0,0,0,0,0,1]","door_history":"[1,1,1,1,1,1,1,1,1,0]","location_rts":"[1574,821,920,647,572,98,517,506,922,586]","trial_type":"two-door-navigation","trial_index":18,"time_elapsed":1743250,"internal_node_id":"0.0-2.0-16.0"},{"group":"dihedral group of order 12","room_assignment":["pink","yellow","purple","cyan","red","green","grey","olive","ivory","brown","blue","orange"],"door_color_assignment":["white","black"],"door_generator_assignment":[1,0],"goal":7,"start":2,"action_noise":0.15,"location_history":"[2,3,9,8,7]","action_history":"[0,1,0,0]","door_history":"[1,0,1,1]","location_rts":"[1145,700,501,3103]","trial_type":"two-door-navigation","trial_index":19,"time_elapsed":1756539,"internal_node_id":"0.0-2.0-17.0"},{"group":"dihedral group of order 12","room_assignment":["pink","yellow","purple","cyan","red","green","grey","olive","ivory","brown","blue","orange"],"door_color_assignment":["white","black"],"door_generator_assignment":[1,0],"goal":5,"start":7,"action_noise":0.15,"location_history":"[7,1,2,3,4,5]","action_history":"[0,1,0,0,0]","door_history":"[1,0,1,1,1]","location_rts":"[920,975,433,529,504]","trial_type":"two-door-navigation","trial_index":20,"time_elapsed":1768764,"internal_node_id":"0.0-2.0-18.0"},{"group":"dihedral group of order 12","room_assignment":["pink","yellow","purple","cyan","red","green","grey","olive","ivory","brown","blue","orange"],"door_color_assignment":["white","black"],"door_generator_assignment":[1,0],"goal":6,"start":5,"action_noise":0.15,"location_history":"[5,0,1,2,3,9,3,4,10,4,5,0,1,2,3,9,3,9,8,7,1,2,8,7,6]","action_history":"[0,0,0,0,1,1,0,1,0,0,1,0,1,0,1,0,1,0,1,1,0,1,0,0]","door_history":"[1,1,1,1,0,0,1,0,1,1,0,1,0,1,0,1,0,1,0,0,1,0,1,1]","location_rts":"[2182,799,881,538,491,779,480,631,375,580,1127,497,385,519,336,574,468,438,561,528,456,873,449,544]","trial_type":"two-door-navigation","trial_index":21,"time_elapsed":1813747,"internal_node_id":"0.0-2.0-19.0"},{"group":"dihedral group of order 12","room_assignment":["pink","yellow","purple","cyan","red","green","grey","olive","ivory","brown","blue","orange"],"door_color_assignment":["white","black"],"door_generator_assignment":[1,0],"goal":3,"start":6,"action_noise":0.15,"location_history":"[6,11,5,0,6,11,10,9,3]","action_history":"[0,1,0,1,0,1,0,1]","door_history":"[1,0,1,0,1,0,1,0]","location_rts":"[20584,739,529,1134,736,683,472,737]","trial_type":"two-door-navigation","trial_index":22,"time_elapsed":1851486,"internal_node_id":"0.0-2.0-20.0"},{"group":"dihedral group of order 12","room_assignment":["pink","yellow","purple","cyan","red","green","grey","olive","ivory","brown","blue","orange"],"door_color_assignment":["white","black"],"door_generator_assignment":[1,0],"goal":1,"start":3,"action_noise":0.15,"location_history":"[3,9,8,7,1]","action_history":"[0,0,0,1]","door_history":"[1,1,1,0]","location_rts":"[1316,838,850,3404]","trial_type":"two-door-navigation","trial_index":23,"time_elapsed":1865745,"internal_node_id":"0.0-2.0-21.0"},{"group":"dihedral group of order 12","room_assignment":["pink","yellow","purple","cyan","red","green","grey","olive","ivory","brown","blue","orange"],"door_color_assignment":["white","black"],"door_generator_assignment":[1,0],"goal":9,"start":1,"action_noise":0.15,"location_history":"[1,2,3,9]","action_history":"[0,0,0]","door_history":"[1,1,1]","location_rts":"[4603,574,497]","trial_type":"two-door-navigation","trial_index":24,"time_elapsed":1878186,"internal_node_id":"0.0-2.0-22.0"},{"group":"dihedral group of order 12","room_assignment":["pink","yellow","purple","cyan","red","green","grey","olive","ivory","brown","blue","orange"],"door_color_assignment":["white","black"],"door_generator_assignment":[1,0],"goal":3,"start":9,"action_noise":0.15,"location_history":"[9,3]","action_history":"[1]","door_history":"[0]","location_rts":"[16143]","trial_type":"two-door-navigation","trial_index":25,"time_elapsed":1898935,"internal_node_id":"0.0-2.0-23.0"},{"group":"dihedral group of order 12","room_assignment":["pink","yellow","purple","cyan","red","green","grey","olive","ivory","brown","blue","orange"],"door_color_assignment":["white","black"],"door_generator_assignment":[1,0],"goal":4,"start":3,"action_noise":0.15,"location_history":"[3,4]","action_history":"[0]","door_history":"[1]","location_rts":"[1077]","trial_type":"two-door-navigation","trial_index":26,"time_elapsed":1904605,"internal_node_id":"0.0-2.0-24.0"},{"group":"dihedral group of order 12","room_assignment":["pink","yellow","purple","cyan","red","green","grey","olive","ivory","brown","blue","orange"],"door_color_assignment":["white","black"],"door_generator_assignment":[1,0],"goal":2,"start":4,"action_noise":0.15,"location_history":"[4,5,11,10,4,5,0,6,11,5,0,1,2]","action_history":"[0,1,0,1,0,0,1,0,1,0,0,0]","door_history":"[1,0,1,0,1,1,0,1,0,1,1,1]","location_rts":"[1400,702,489,632,281,657,907,490,532,625,945,864]","trial_type":"two-door-navigation","trial_index":27,"time_elapsed":1929589,"internal_node_id":"0.0-2.0-25.0"},{"group":"dihedral group of order 12","room_assignment":["pink","yellow","purple","cyan","red","green","grey","olive","ivory","brown","blue","orange"],"door_color_assignment":["white","black"],"door_generator_assignment":[1,0],"goal":1,"start":2,"action_noise":0.15,"location_history":"[2,8,7,1]","action_history":"[1,0,1]","door_history":"[0,1,0]","location_rts":"[456,505,1443]","trial_type":"two-door-navigation","trial_index":28,"time_elapsed":1938767,"internal_node_id":"0.0-2.0-26.0"},{"group":"dihedral group of order 12","room_assignment":["pink","yellow","purple","cyan","red","green","grey","olive","ivory","brown","blue","orange"],"door_color_assignment":["white","black"],"door_generator_assignment":[1,0],"goal":8,"start":1,"action_noise":0.15,"location_history":"[1,2,8]","action_history":"[0,0]","door_history":"[1,1]","location_rts":"[26397,501]","trial_type":"two-door-navigation","trial_index":29,"time_elapsed":1971435,"internal_node_id":"0.0-2.0-27.0"},{"group":"dihedral group of order 12","room_assignment":["pink","yellow","purple","cyan","red","green","grey","olive","ivory","brown","blue","orange"],"door_color_assignment":["white","black"],"door_generator_assignment":[1,0],"goal":10,"start":8,"action_noise":0.15,"location_history":"[8,7,6,11,10]","action_history":"[0,0,0,0]","door_history":"[1,1,1,1]","location_rts":"[1867,546,779,518]","trial_type":"two-door-navigation","trial_index":30,"time_elapsed":1983180,"internal_node_id":"0.0-2.0-28.0"},{"group":"dihedral group of order 12","room_assignment":["pink","yellow","purple","cyan","red","green","grey","olive","ivory","brown","blue","orange"],"door_color_assignment":["white","black"],"door_generator_assignment":[1,0],"goal":7,"start":10,"action_noise":0.15,"location_history":"[10,9,8,7]","action_history":"[0,0,0]","door_history":"[1,1,1]","location_rts":"[4043,584,815]","trial_type":"two-door-navigation","trial_index":31,"time_elapsed":1995547,"internal_node_id":"0.0-2.0-29.0"},{"group":"dihedral group of order 12","room_assignment":["pink","yellow","purple","cyan","red","green","grey","olive","ivory","brown","blue","orange"],"door_color_assignment":["white","black"],"door_generator_assignment":[1,0],"goal":6,"start":7,"action_noise":0.15,"location_history":"[7,1,2,8,7,1,2,3,4,5,11,10,4,5,0,1,2,3,4,10,9,3,4,5,0,6]","action_history":"[0,0,1,0,1,0,0,0,0,1,0,1,0,0,0,0,0,0,0,0,1,0,0,0,1]","door_history":"[1,1,0,1,0,1,1,1,1,0,1,0,1,1,1,1,1,1,1,1,0,1,1,1,0]","location_rts":"[12332,816,496,463,740,373,688,550,782,764,446,514,272,448,518,682,497,1119,660,837,949,480,493,26347,833]","trial_type":"two-door-navigation","trial_index":32,"time_elapsed":2080252,"internal_node_id":"0.0-2.0-30.0"},{"group":"dihedral group of order 12","room_assignment":["pink","yellow","purple","cyan","red","green","grey","olive","ivory","brown","blue","orange"],"door_color_assignment":["white","black"],"door_generator_assignment":[1,0],"goal":0,"start":6,"action_noise":0.15,"location_history":"[6,11,5,0]","action_history":"[1,1,1]","door_history":"[0,0,0]","location_rts":"[1116,880,516]","trial_type":"two-door-navigation","trial_index":33,"time_elapsed":2089645,"internal_node_id":"0.0-2.0-31.0"},{"group":"dihedral group of order 12","room_assignment":["pink","yellow","purple","cyan","red","green","grey","olive","ivory","brown","blue","orange"],"door_color_assignment":["white","black"],"door_generator_assignment":[1,0],"goal":11,"start":0,"action_noise":0.15,"location_history":"[0,1,7,6,0,1,7,1,2,3,9,3,9,3,4,5,11]","action_history":"[0,1,0,1,1,1,1,0,0,1,0,1,1,0,0,1]","door_history":"[1,0,1,0,0,0,0,1,1,0,1,0,0,1,1,0]","location_rts":"[931,729,329,840,556,824,819,656,565,732,446,577,88,536,748,952]","trial_type":"two-door-navigation","trial_index":34,"time_elapsed":2121467,"internal_node_id":"0.0-2.0-32.0"},{"group":"dihedral group of order 12","room_assignment":["pink","yellow","purple","cyan","red","green","grey","olive","ivory","brown","blue","orange"],"door_color_assignment":["white","black"],"door_generator_assignment":[1,0],"goal":9,"start":11,"action_noise":0.15,"location_history":"[11,10,9]","action_history":"[0,0]","door_history":"[1,1]","location_rts":"[1417,827]","trial_type":"two-door-navigation","trial_index":35,"time_elapsed":2129476,"internal_node_id":"0.0-2.0-33.0"},{"group":"dihedral group of order 12","room_assignment":["pink","yellow","purple","cyan","red","green","grey","olive","ivory","brown","blue","orange"],"door_color_assignment":["white","black"],"door_generator_assignment":[1,0],"goal":5,"start":9,"action_noise":0.15,"location_history":"[9,8,2,3,9,8,2,3,9,3,9,8,7,6,0,1,7,6,11,5]","action_history":"[0,1,0,1,0,1,0,1,1,1,0,1,0,1,0,1,0,0,1]","door_history":"[1,0,1,0,1,0,1,0,0,0,1,0,1,0,1,0,1,1,0]","location_rts":"[31554,865,447,689,643,460,455,986,2685,731,404,711,37,643,341,138,230,631,633]","trial_type":"two-door-navigation","trial_index":36,"time_elapsed":2196774,"internal_node_id":"0.0-2.0-34.0"},{"view_history":"[{\"page_index\":0,\"viewing_time\":413440}]","rt":413440,"trial_type":"instructions","trial_index":37,"time_elapsed":2611215,"internal_node_id":"0.0-3.0"},{"view_history":"[{\"page_index\":0,\"viewing_time\":2827},{\"page_index\":1,\"viewing_time\":5816}]","rt":8643,"trial_type":"instructions","trial_index":38,"time_elapsed":2620864,"internal_node_id":"0.0-4.0"},{"group":"dicyclic group of order 12","fractal_assignment":["../images/ylw_pnk.png","../images/pnk_blu.png","../images/gry_blk.png","../images/ylw_slt.png","../images/wht_red.png","../images/grn_blu.png","../images/org_blu.png","../images/blu_wht.png","../images/red_prp.png","../images/cyn_red.png","../images/grn_prp.png","../images/grn_red.png"],"mutagen_generator_assignment":[1,0],"goal":7,"start":11,"action_noise":0.15,"location_history":"[11,3,7]","action_history":"[1,0]","mutagen_history":"[0,1]","location_rts":"[1824,3062]","trial_type":"fractal-mutation","trial_index":39,"time_elapsed":2631541,"internal_node_id":"0.0-5.0-0.0"},{"group":"dicyclic group of order 12","fractal_assignment":["../images/ylw_pnk.png","../images/pnk_blu.png","../images/gry_blk.png","../images/ylw_slt.png","../images/wht_red.png","../images/grn_blu.png","../images/org_blu.png","../images/blu_wht.png","../images/red_prp.png","../images/cyn_red.png","../images/grn_prp.png","../images/grn_red.png"],"mutagen_generator_assignment":[1,0],"goal":8,"start":7,"action_noise":0.15,"location_history":"[7,8]","action_history":"[0]","mutagen_history":"[1]","location_rts":"[105248]","trial_type":"fractal-mutation","trial_index":40,"time_elapsed":2741461,"internal_node_id":"0.0-5.0-1.0"},{"group":"dicyclic group of order 12","fractal_assignment":["../images/ylw_pnk.png","../images/pnk_blu.png","../images/gry_blk.png","../images/ylw_slt.png","../images/wht_red.png","../images/grn_blu.png","../images/org_blu.png","../images/blu_wht.png","../images/red_prp.png","../images/cyn_red.png","../images/grn_prp.png","../images/grn_red.png"],"mutagen_generator_assignment":[1,0],"goal":4,"start":8,"action_noise":0.15,"location_history":"[8,5,10,7,11,4]","action_history":"[1,0,0,1,0]","mutagen_history":"[0,1,1,0,1]","location_rts":"[710,1071,492,750,8080]","trial_type":"fractal-mutation","trial_index":41,"time_elapsed":2761836,"internal_node_id":"0.0-5.0-2.0"},{"group":"dicyclic group of order 12","fractal_assignment":["../images/ylw_pnk.png","../images/pnk_blu.png","../images/gry_blk.png","../images/ylw_slt.png","../images/wht_red.png","../images/grn_blu.png","../images/org_blu.png","../images/blu_wht.png","../images/red_prp.png","../images/cyn_red.png","../images/grn_prp.png","../images/grn_red.png"],"mutagen_generator_assignment":[1,0],"goal":5,"start":4,"action_noise":0.15,"location_history":"[4,9,6,11,4,9,6,10,2,6,10,7,11,4,9,6,11,4,8,0,4,8,0,4,8,0,4,8,0,4,8,0,4,9,1,5]","action_history":"[1,0,0,0,0,1,1,1,1,1,1,1,0,0,0,0,0,1,1,1,1,1,1,1,1,0,1,1,1,1,1,1,0,1,1]","mutagen_history":"[0,1,1,1,1,0,0,0,0,0,0,0,1,1,1,1,1,0,0,0,0,0,0,0,0,1,0,0,0,0,0,0,1,0,0]","location_rts":"[693,414,540,169,589,637,482,452,1524,807,849,408,497,643,561,511,551,506,480,426,493,430,344,277,113,185,541,661,564,441,459,458,49,2377,3570]","trial_type":"fractal-mutation","trial_index":42,"time_elapsed":2827663,"internal_node_id":"0.0-5.0-3.0"},{"group":"dicyclic group of order 12","fractal_assignment":["../images/ylw_pnk.png","../images/pnk_blu.png","../images/gry_blk.png","../images/ylw_slt.png","../images/wht_red.png","../images/grn_blu.png","../images/org_blu.png","../images/blu_wht.png","../images/red_prp.png","../images/cyn_red.png","../images/grn_prp.png","../images/grn_red.png"],"mutagen_generator_assignment":[1,0],"goal":10,"start":5,"action_noise":0.15,"location_history":"[5,9,6,11,4,9,6,10]","action_history":"[1,1,0,0,0,0,0]","mutagen_history":"[0,0,1,1,1,1,1]","location_rts":"[14068,279,411,200,383,652,468]","trial_type":"fractal-mutation","trial_index":43,"time_elapsed":2855647,"internal_node_id":"0.0-5.0-4.0"},{"group":"dicyclic group of order 12","fractal_assignment":["../images/ylw_pnk.png","../images/pnk_blu.png","../images/gry_blk.png","../images/ylw_slt.png","../images/wht_red.png","../images/grn_blu.png","../images/org_blu.png","../images/blu_wht.png","../images/red_prp.png","../images/cyn_red.png","../images/grn_prp.png","../images/grn_red.png"],"mutagen_generator_assignment":[1,0],"goal":1,"start":10,"action_noise":0.15,"location_history":"[10,2,3,7,11,3,7,8,0,4,8,0,1]","action_history":"[1,1,1,1,1,1,0,1,1,1,1,0]","mutagen_history":"[0,0,0,0,0,0,1,0,0,0,0,1]","location_rts":"[460,457,559,3173,295,451,681,682,327,480,490,421]","trial_type":"fractal-mutation","trial_index":44,"time_elapsed":2881159,"internal_node_id":"0.0-5.0-5.0"},{"group":"dicyclic group of order 12","fractal_assignment":["../images/ylw_pnk.png","../images/pnk_blu.png","../images/gry_blk.png","../images/ylw_slt.png","../images/wht_red.png","../images/grn_blu.png","../images/org_blu.png","../images/blu_wht.png","../images/red_prp.png","../images/cyn_red.png","../images/grn_prp.png","../images/grn_red.png"],"mutagen_generator_assignment":[1,0],"goal":6,"start":1,"action_noise":0.15,"location_history":"[1,2,3,0,1,2,6]","action_history":"[0,0,0,0,1,1]","mutagen_history":"[1,1,1,1,0,0]","location_rts":"[1125,540,559,579,566,445]","trial_type":"fractal-mutation","trial_index":45,"time_elapsed":2895349,"internal_node_id":"0.0-5.0-6.0"},{"group":"dicyclic group of order 12","fractal_assignment":["../images/ylw_pnk.png","../images/pnk_blu.png","../images/gry_blk.png","../images/ylw_slt.png","../images/wht_red.png","../images/grn_blu.png","../images/org_blu.png","../images/blu_wht.png","../images/red_prp.png","../images/cyn_red.png","../images/grn_prp.png","../images/grn_red.png"],"mutagen_generator_assignment":[1,0],"goal":9,"start":6,"action_noise":0.15,"location_history":"[6,11,3,0,1,5,9]","action_history":"[0,0,0,1,1,1]","mutagen_history":"[1,1,1,0,0,0]","location_rts":"[774,493,602,733,460,636]","trial_type":"fractal-mutation","trial_index":46,"time_elapsed":2909342,"internal_node_id":"0.0-5.0-7.0"},{"group":"dicyclic group of order 12","fractal_assignment":["../images/ylw_pnk.png","../images/pnk_blu.png","../images/gry_blk.png","../images/ylw_slt.png","../images/wht_red.png","../images/grn_blu.png","../images/org_blu.png","../images/blu_wht.png","../images/red_prp.png","../images/cyn_red.png","../images/grn_prp.png","../images/grn_red.png"],"mutagen_generator_assignment":[1,0],"goal":2,"start":9,"action_noise":0.15,"location_history":"[9,6,11,3,7,11,3,7,11,4,9,6,10,2]","action_history":"[0,0,1,1,1,1,1,1,0,0,0,1,1]","mutagen_history":"[1,1,0,0,0,0,0,0,1,1,1,0,0]","location_rts":"[2686,475,138,342,231,421,441,334,370,550,497,398,586]","trial_type":"fractal-mutation","trial_index":47,"time_elapsed":2935047,"internal_node_id":"0.0-5.0-8.0"},{"group":"dicyclic group of order 12","fractal_assignment":["../images/ylw_pnk.png","../images/pnk_blu.png","../images/gry_blk.png","../images/ylw_slt.png","../images/wht_red.png","../images/grn_blu.png","../images/org_blu.png","../images/blu_wht.png","../images/red_prp.png","../images/cyn_red.png","../images/grn_prp.png","../images/grn_red.png"],"mutagen_generator_assignment":[1,0],"goal":0,"start":2,"action_noise":0.15,"location_history":"[2,6,11,4,8,0]","action_history":"[0,0,0,1,1]","mutagen_history":"[1,1,1,0,0]","location_rts":"[614,426,588,562,499]","trial_type":"fractal-mutation","trial_index":48,"time_elapsed":2946944,"internal_node_id":"0.0-5.0-9.0"},{"group":"dicyclic group of order 12","fractal_assignment":["../images/ylw_pnk.png","../images/pnk_blu.png","../images/gry_blk.png","../images/ylw_slt.png","../images/wht_red.png","../images/grn_blu.png","../images/org_blu.png","../images/blu_wht.png","../images/red_prp.png","../images/cyn_red.png","../images/grn_prp.png","../images/grn_red.png"],"mutagen_generator_assignment":[1,0],"goal":3,"start":0,"action_noise":0.15,"location_history":"[0,1,2,6,10,2,6,10,7,11,3]","action_history":"[0,0,0,1,1,1,1,0,1,1]","mutagen_history":"[1,1,1,0,0,0,0,1,0,0]","location_rts":"[789,578,586,691,422,564,571,671,540,698]","trial_type":"fractal-mutation","trial_index":49,"time_elapsed":2967939,"internal_node_id":"0.0-5.0-10.0"},{"group":"dicyclic group of order 12","fractal_assignment":["../images/ylw_pnk.png","../images/pnk_blu.png","../images/gry_blk.png","../images/ylw_slt.png","../images/wht_red.png","../images/grn_blu.png","../images/org_blu.png","../images/blu_wht.png","../images/red_prp.png","../images/cyn_red.png","../images/grn_prp.png","../images/grn_red.png"],"mutagen_generator_assignment":[1,0],"goal":10,"start":3,"action_noise":0.15,"location_history":"[3,0,1,2,6,10]","action_history":"[0,0,0,1,1]","mutagen_history":"[1,1,1,0,0]","location_rts":"[1001,545,468,501,441]","trial_type":"fractal-mutation","trial_index":50,"time_elapsed":2980124,"internal_node_id":"0.0-5.0-11.0"},{"group":"dicyclic group of order 12","fractal_assignment":["../images/ylw_pnk.png","../images/pnk_blu.png","../images/gry_blk.png","../images/ylw_slt.png","../images/wht_red.png","../images/grn_blu.png","../images/org_blu.png","../images/blu_wht.png","../images/red_prp.png","../images/cyn_red.png","../images/grn_prp.png","../images/grn_red.png"],"mutagen_generator_assignment":[1,0],"goal":8,"start":10,"action_noise":0.15,"location_history":"[10,2,6,11,3,7,11,3,7,8]","action_history":"[1,1,0,1,1,1,1,1,0]","mutagen_history":"[0,0,1,0,0,0,0,0,1]","location_rts":"[10833,2772,518,715,434,404,231,455,32643]","trial_type":"fractal-mutation","trial_index":51,"time_elapsed":3042854,"internal_node_id":"0.0-5.0-12.0"},{"group":"dicyclic group of order 12","fractal_assignment":["../images/ylw_pnk.png","../images/pnk_blu.png","../images/gry_blk.png","../images/ylw_slt.png","../images/wht_red.png","../images/grn_blu.png","../images/org_blu.png","../images/blu_wht.png","../images/red_prp.png","../images/cyn_red.png","../images/grn_prp.png","../images/grn_red.png"],"mutagen_generator_assignment":[1,0],"goal":4,"start":8,"action_noise":0.15,"location_history":"[8,0,4]","action_history":"[1,1]","mutagen_history":"[0,0]","location_rts":"[917,507]","trial_type":"fractal-mutation","trial_index":52,"time_elapsed":3050042,"internal_node_id":"0.0-5.0-13.0"},{"group":"dicyclic group of order 12","fractal_assignment":["../images/ylw_pnk.png","../images/pnk_blu.png","../images/gry_blk.png","../images/ylw_slt.png","../images/wht_red.png","../images/grn_blu.png","../images/org_blu.png","../images/blu_wht.png","../images/red_prp.png","../images/cyn_red.png","../images/grn_prp.png","../images/grn_red.png"],"mutagen_generator_assignment":[1,0],"goal":0,"start":4,"action_noise":0.15,"location_history":"[4,9,6,11,3,0]","action_history":"[0,0,0,1,1]","mutagen_history":"[1,1,1,0,0]","location_rts":"[2706,488,632,552,491]","trial_type":"fractal-mutation","trial_index":53,"time_elapsed":3064152,"internal_node_id":"0.0-5.0-14.0"},{"group":"dicyclic group of order 12","fractal_assignment":["../images/ylw_pnk.png","../images/pnk_blu.png","../images/gry_blk.png","../images/ylw_slt.png","../images/wht_red.png","../images/grn_blu.png","../images/org_blu.png","../images/blu_wht.png","../images/red_prp.png","../images/cyn_red.png","../images/grn_prp.png","../images/grn_red.png"],"mutagen_generator_assignment":[1,0],"goal":11,"start":0,"action_noise":0.15,"location_history":"[0,1,2,3,0,4,8,0,4,9,1,5,9,6,10,2,3,0,4,9,1,5,9,6,11]","action_history":"[0,0,0,0,1,1,1,1,0,1,1,1,0,1,1,1,0,1,1,1,1,1,0,0]","mutagen_history":"[1,1,1,1,0,0,0,0,1,0,0,0,1,0,0,0,1,0,0,0,0,0,1,1]","location_rts":"[4726,620,799,688,576,480,480,478,382,613,436,593,395,509,550,460,419,556,379,335,381,590,554,675]","trial_type":"fractal-mutation","trial_index":54,"time_elapsed":3111617,"internal_node_id":"0.0-5.0-15.0"},{"group":"dicyclic group of order 12","fractal_assignment":["../images/ylw_pnk.png","../images/pnk_blu.png","../images/gry_blk.png","../images/ylw_slt.png","../images/wht_red.png","../images/grn_blu.png","../images/org_blu.png","../images/blu_wht.png","../images/red_prp.png","../images/cyn_red.png","../images/grn_prp.png","../images/grn_red.png"],"mutagen_generator_assignment":[1,0],"goal":2,"start":11,"action_noise":0.15,"location_history":"[11,4,8,0,4,9,6,10,2]","action_history":"[0,1,1,1,0,0,1,1]","mutagen_history":"[1,0,0,0,1,1,0,0]","location_rts":"[1791,728,545,484,504,1045,662,511]","trial_type":"fractal-mutation","trial_index":55,"time_elapsed":3130441,"internal_node_id":"0.0-5.0-16.0"},{"group":"dicyclic group of order 12","fractal_assignment":["../images/ylw_pnk.png","../images/pnk_blu.png","../images/gry_blk.png","../images/ylw_slt.png","../images/wht_red.png","../images/grn_blu.png","../images/org_blu.png","../images/blu_wht.png","../images/red_prp.png","../images/cyn_red.png","../images/grn_prp.png","../images/grn_red.png"],"mutagen_generator_assignment":[1,0],"goal":7,"start":2,"action_noise":0.15,"location_history":"[2,3,0,4,9,1,2,6,10,2,3,0,1,5,9,6,10,2,6,10,2,6,11,4,8,0,4,9,1,5,9,6,11,4,8,0,4,9,1,2,6,10,2,3,7]","action_history":"[0,0,1,1,1,0,1,1,1,1,0,1,1,1,0,1,1,1,0,1,1,0,0,1,1,1,0,1,1,0,0,0,0,1,1,0,0,1,0,1,1,1,0,0]","mutagen_history":"[1,1,0,0,0,1,0,0,0,0,1,0,0,0,1,0,0,0,1,0,0,1,1,0,0,0,1,0,0,1,1,1,1,0,0,1,1,0,1,0,0,0,1,1]","location_rts":"[893,433,975,355,566,505,910,464,750,758,11,943,431,910,805,940,391,953,635,846,468,651,706,405,469,502,519,560,280,485,640,858,1152,834,231,251,6081,463,399,653,605,506,619,554]","trial_type":"fractal-mutation","trial_index":56,"time_elapsed":3216530,"internal_node_id":"0.0-5.0-17.0"},{"group":"dicyclic group of order 12","fractal_assignment":["../images/ylw_pnk.png","../images/pnk_blu.png","../images/gry_blk.png","../images/ylw_slt.png","../images/wht_red.png","../images/grn_blu.png","../images/org_blu.png","../images/blu_wht.png","../images/red_prp.png","../images/cyn_red.png","../images/grn_prp.png","../images/grn_red.png"],"mutagen_generator_assignment":[1,0],"goal":5,"start":7,"action_noise":0.15,"location_history":"[7,8,0,4,8,5]","action_history":"[0,1,1,1,0]","mutagen_history":"[1,0,0,0,1]","location_rts":"[720,725,496,346,959]","trial_type":"fractal-mutation","trial_index":57,"time_elapsed":3228945,"internal_node_id":"0.0-5.0-18.0"},{"group":"dicyclic group of order 12","fractal_assignment":["../images/ylw_pnk.png","../images/pnk_blu.png","../images/gry_blk.png","../images/ylw_slt.png","../images/wht_red.png","../images/grn_blu.png","../images/org_blu.png","../images/blu_wht.png","../images/red_prp.png","../images/cyn_red.png","../images/grn_prp.png","../images/grn_red.png"],"mutagen_generator_assignment":[1,0],"goal":6,"start":5,"action_noise":0.15,"location_history":"[5,9,1,2,3,7,11,4,9,6]","action_history":"[1,0,0,0,1,1,0,0,0]","mutagen_history":"[0,1,1,1,0,0,1,1,1]","location_rts":"[1739,721,572,485,378,1015,658,559,501]","trial_type":"fractal-mutation","trial_index":58,"time_elapsed":3249529,"internal_node_id":"0.0-5.0-19.0"},{"group":"dicyclic group of order 12","fractal_assignment":["../images/ylw_pnk.png","../images/pnk_blu.png","../images/gry_blk.png","../images/ylw_slt.png","../images/wht_red.png","../images/grn_blu.png","../images/org_blu.png","../images/blu_wht.png","../images/red_prp.png","../images/cyn_red.png","../images/grn_prp.png","../images/grn_red.png"],"mutagen_generator_assignment":[1,0],"goal":3,"start":6,"action_noise":0.15,"location_history":"[6,10,7,8,5,10,7,11,4,8,5,10,2,3]","action_history":"[1,0,0,0,0,0,1,0,0,0,0,1,0]","mutagen_history":"[0,1,1,1,1,1,0,1,1,1,1,0,1]","location_rts":"[876,555,387,456,569,566,563,709,393,280,383,1006,610]","trial_type":"fractal-mutation","trial_index":59,"time_elapsed":3275399,"internal_node_id":"0.0-5.0-20.0"},{"group":"dicyclic group of order 12","fractal_assignment":["../images/ylw_pnk.png","../images/pnk_blu.png","../images/gry_blk.png","../images/ylw_slt.png","../images/wht_red.png","../images/grn_blu.png","../images/org_blu.png","../images/blu_wht.png","../images/red_prp.png","../images/cyn_red.png","../images/grn_prp.png","../images/grn_red.png"],"mutagen_generator_assignment":[1,0],"goal":1,"start":3,"action_noise":0.15,"location_history":"[3,7,8,0,1]","action_history":"[1,0,1,0]","mutagen_history":"[0,1,0,1]","location_rts":"[3995,485,454,721]","trial_type":"fractal-mutation","trial_index":60,"time_elapsed":3289163,"internal_node_id":"0.0-5.0-21.0"},{"group":"dicyclic group of order 12","fractal_assignment":["../images/ylw_pnk.png","../images/pnk_blu.png","../images/gry_blk.png","../images/ylw_slt.png","../images/wht_red.png","../images/grn_blu.png","../images/org_blu.png","../images/blu_wht.png","../images/red_prp.png","../images/cyn_red.png","../images/grn_prp.png","../images/grn_red.png"],"mutagen_generator_assignment":[1,0],"goal":9,"start":1,"action_noise":0.15,"location_history":"[1,5,10,7,8,5,10,7,8,0,1,2,6,10,2,6,11,4,9]","action_history":"[1,0,0,0,1,0,0,0,1,0,0,1,1,1,1,0,1,0]","mutagen_history":"[0,1,1,1,0,1,1,1,0,1,1,0,0,0,0,1,0,1]","location_rts":"[760,785,806,492,533,577,508,503,685,709,11555,590,422,581,721,496,805,683]","trial_type":"fractal-mutation","trial_index":61,"time_elapsed":3335342,"internal_node_id":"0.0-5.0-22.0"},{"group":"dicyclic group of order 12","fractal_assignment":["../images/ylw_pnk.png","../images/pnk_blu.png","../images/gry_blk.png","../images/ylw_slt.png","../images/wht_red.png","../images/grn_blu.png","../images/org_blu.png","../images/blu_wht.png","../images/red_prp.png","../images/cyn_red.png","../images/grn_prp.png","../images/grn_red.png"],"mutagen_generator_assignment":[1,0],"goal":3,"start":9,"action_noise":0.15,"location_history":"[9,6,10,7,8,5,10,2,6,11,4,9,6,11,3]","action_history":"[1,1,0,0,0,0,1,1,1,0,0,0,0,1]","mutagen_history":"[0,0,1,1,1,1,0,0,0,1,1,1,1,0]","location_rts":"[843,543,616,437,303,386,392,1099,704,867,1247,590,602,426]","trial_type":"fractal-mutation","trial_index":62,"time_elapsed":3363857,"internal_node_id":"0.0-5.0-23.0"},{"group":"dicyclic group of order 12","fractal_assignment":["../images/ylw_pnk.png","../images/pnk_blu.png","../images/gry_blk.png","../images/ylw_slt.png","../images/wht_red.png","../images/grn_blu.png","../images/org_blu.png","../images/blu_wht.png","../images/red_prp.png","../images/cyn_red.png","../images/grn_prp.png","../images/grn_red.png"],"mutagen_generator_assignment":[1,0],"goal":4,"start":3,"action_noise":0.15,"location_history":"[3,0,4]","action_history":"[1,0]","mutagen_history":"[0,1]","location_rts":"[820,677]","trial_type":"fractal-mutation","trial_index":63,"time_elapsed":3371145,"internal_node_id":"0.0-5.0-24.0"},{"group":"dicyclic group of order 12","fractal_assignment":["../images/ylw_pnk.png","../images/pnk_blu.png","../images/gry_blk.png","../images/ylw_slt.png","../images/wht_red.png","../images/grn_blu.png","../images/org_blu.png","../images/blu_wht.png","../images/red_prp.png","../images/cyn_red.png","../images/grn_prp.png","../images/grn_red.png"],"mutagen_generator_assignment":[1,0],"goal":2,"start":4,"action_noise":0.15,"location_history":"[4,8,5,9,1,2]","action_history":"[1,0,1,0,0]","mutagen_history":"[0,1,0,1,1]","location_rts":"[5256,623,2264,594,257]","trial_type":"fractal-mutation","trial_index":64,"time_elapsed":3389426,"internal_node_id":"0.0-5.0-25.0"},{"group":"dicyclic group of order 12","fractal_assignment":["../images/ylw_pnk.png","../images/pnk_blu.png","../images/gry_blk.png","../images/ylw_slt.png","../images/wht_red.png","../images/grn_blu.png","../images/org_blu.png","../images/blu_wht.png","../images/red_prp.png","../images/cyn_red.png","../images/grn_prp.png","../images/grn_red.png"],"mutagen_generator_assignment":[1,0],"goal":1,"start":2,"action_noise":0.15,"location_history":"[2,3,7,8,0,1]","action_history":"[0,1,1,0,0]","mutagen_history":"[1,0,0,1,1]","location_rts":"[892,642,401,452,403]","trial_type":"fractal-mutation","trial_index":65,"time_elapsed":3401441,"internal_node_id":"0.0-5.0-26.0"},{"group":"dicyclic group of order 12","fractal_assignment":["../images/ylw_pnk.png","../images/pnk_blu.png","../images/gry_blk.png","../images/ylw_slt.png","../images/wht_red.png","../images/grn_blu.png","../images/org_blu.png","../images/blu_wht.png","../images/red_prp.png","../images/cyn_red.png","../images/grn_prp.png","../images/grn_red.png"],"mutagen_generator_assignment":[1,0],"goal":8,"start":1,"action_noise":0.15,"location_history":"[1,2,6,10,2,3,0,4,9,1,5,9,6,10,7,8]","action_history":"[0,1,1,1,0,0,1,1,1,1,1,0,0,0,0]","mutagen_history":"[1,0,0,0,1,1,0,0,0,0,0,1,1,1,1]","location_rts":"[1348,595,371,1031,501,831,663,663,756,711,693,519,529,623,606]","trial_type":"fractal-mutation","trial_index":66,"time_elapsed":3432654,"internal_node_id":"0.0-5.0-27.0"},{"group":"dicyclic group of order 12","fractal_assignment":["../images/ylw_pnk.png","../images/pnk_blu.png","../images/gry_blk.png","../images/ylw_slt.png","../images/wht_red.png","../images/grn_blu.png","../images/org_blu.png","../images/blu_wht.png","../images/red_prp.png","../images/cyn_red.png","../images/grn_prp.png","../images/grn_red.png"],"mutagen_generator_assignment":[1,0],"goal":10,"start":8,"action_noise":0.15,"location_history":"[8,5,10]","action_history":"[0,0]","mutagen_history":"[1,1]","location_rts":"[2175,419]","trial_type":"fractal-mutation","trial_index":67,"time_elapsed":3441055,"internal_node_id":"0.0-5.0-28.0"},{"group":"dicyclic group of order 12","fractal_assignment":["../images/ylw_pnk.png","../images/pnk_blu.png","../images/gry_blk.png","../images/ylw_slt.png","../images/wht_red.png","../images/grn_blu.png","../images/org_blu.png","../images/blu_wht.png","../images/red_prp.png","../images/cyn_red.png","../images/grn_prp.png","../images/grn_red.png"],"mutagen_generator_assignment":[1,0],"goal":7,"start":10,"action_noise":0.15,"location_history":"[10,7]","action_history":"[0]","mutagen_history":"[1]","location_rts":"[1652]","trial_type":"fractal-mutation","trial_index":68,"time_elapsed":3447355,"internal_node_id":"0.0-5.0-29.0"},{"group":"dicyclic group of order 12","fractal_assignment":["../images/ylw_pnk.png","../images/pnk_blu.png","../images/gry_blk.png","../images/ylw_slt.png","../images/wht_red.png","../images/grn_blu.png","../images/org_blu.png","../images/blu_wht.png","../images/red_prp.png","../images/cyn_red.png","../images/grn_prp.png","../images/grn_red.png"],"mutagen_generator_assignment":[1,0],"goal":6,"start":7,"action_noise":0.15,"location_history":"[7,11,4,9,6]","action_history":"[1,1,0,0]","mutagen_history":"[0,0,1,1]","location_rts":"[871,560,569,428]","trial_type":"fractal-mutation","trial_index":69,"time_elapsed":3457843,"internal_node_id":"0.0-5.0-30.0"},{"group":"dicyclic group of order 12","fractal_assignment":["../images/ylw_pnk.png","../images/pnk_blu.png","../images/gry_blk.png","../images/ylw_slt.png","../images/wht_red.png","../images/grn_blu.png","../images/org_blu.png","../images/blu_wht.png","../images/red_prp.png","../images/cyn_red.png","../images/grn_prp.png","../images/grn_red.png"],"mutagen_generator_assignment":[1,0],"goal":0,"start":6,"action_noise":0.15,"location_history":"[6,10,2,6,11,4,9,1,2,6,11,4,8,0]","action_history":"[1,1,1,0,0,0,0,0,1,0,0,0,1]","mutagen_history":"[0,0,0,1,1,1,1,1,0,1,1,1,0]","location_rts":"[697,724,619,1047,512,588,568,563,511,596,701,89,440]","trial_type":"fractal-mutation","trial_index":70,"time_elapsed":3483938,"internal_node_id":"0.0-5.0-31.0"},{"group":"dicyclic group of order 12","fractal_assignment":["../images/ylw_pnk.png","../images/pnk_blu.png","../images/gry_blk.png","../images/ylw_slt.png","../images/wht_red.png","../images/grn_blu.png","../images/org_blu.png","../images/blu_wht.png","../images/red_prp.png","../images/cyn_red.png","../images/grn_prp.png","../images/grn_red.png"],"mutagen_generator_assignment":[1,0],"goal":11,"start":0,"action_noise":0.15,"location_history":"[0,4,8,0,1,2,3,7,11]","action_history":"[1,1,0,0,0,0,0,1]","mutagen_history":"[0,0,1,1,1,1,1,0]","location_rts":"[2898,657,556,516,318,716,1120,640]","trial_type":"fractal-mutation","trial_index":71,"time_elapsed":3504038,"internal_node_id":"0.0-5.0-32.0"},{"group":"dicyclic group of order 12","fractal_assignment":["../images/ylw_pnk.png","../images/pnk_blu.png","../images/gry_blk.png","../images/ylw_slt.png","../images/wht_red.png","../images/grn_blu.png","../images/org_blu.png","../images/blu_wht.png","../images/red_prp.png","../images/cyn_red.png","../images/grn_prp.png","../images/grn_red.png"],"mutagen_generator_assignment":[1,0],"goal":9,"start":11,"action_noise":0.15,"location_history":"[11,3,7,11,4,9]","action_history":"[1,1,1,0,0]","mutagen_history":"[0,0,0,1,1]","location_rts":"[895,670,636,721,467]","trial_type":"fractal-mutation","trial_index":72,"time_elapsed":3516571,"internal_node_id":"0.0-5.0-33.0"},{"group":"dicyclic group of order 12","fractal_assignment":["../images/ylw_pnk.png","../images/pnk_blu.png","../images/gry_blk.png","../images/ylw_slt.png","../images/wht_red.png","../images/grn_blu.png","../images/org_blu.png","../images/blu_wht.png","../images/red_prp.png","../images/cyn_red.png","../images/grn_prp.png","../images/grn_red.png"],"mutagen_generator_assignment":[1,0],"goal":5,"start":9,"action_noise":0.15,"location_history":"[9,1,2,3,7,11,4,9,6,11,4,8,5]","action_history":"[1,0,0,1,1,0,0,0,0,0,1,0]","mutagen_history":"[0,1,1,0,0,1,1,1,1,1,0,1]","location_rts":"[1451,1839,515,27,633,724,596,497,569,746,415,626]","trial_type":"fractal-mutation","trial_index":73,"time_elapsed":3542440,"internal_node_id":"0.0-5.0-34.0"},{"view_history":"[{\"page_index\":0,\"viewing_time\":5087}]","rt":5087,"trial_type":"instructions","trial_index":74,"time_elapsed":3548528,"internal_node_id":"0.0-6.0"},{"rt":3498,"responses":"{\"Q0\":\"\"}","trial_type":"survey-text","trial_index":75,"time_elapsed":3553035,"internal_node_id":"0.0-7.0"}]