[{"view_history":"[{\"page_index\":0,\"viewing_time\":19491},{\"page_index\":1,\"viewing_time\":4906}]","rt":24399,"trial_type":"instructions","trial_index":0,"time_elapsed":24401,"internal_node_id":"0.0-0.0"},{"view_history":"[{\"page_index\":0,\"viewing_time\":4285},{\"page_index\":1,\"viewing_time\":3210789}]","rt":3215076,"trial_type":"instructions","trial_index":1,"time_elapsed":3240483,"internal_node_id":"0.0-1.0"},{"group":"dihedral group of order 12","room_assignment":["olive","orange","ivory","yellow","cyan","green","grey","pink","purple","red","brown","blue"],"door_color_assignment":["white","black"],"door_generator_assignment":[1,0],"goal":7,"start":11,"action_noise":0.15,"location_history":"[11,5,0,1,2,3,4,10,9,8,7]","action_history":"[1,0,0,0,0,0,0,0,0,0]","door_history":"[0,1,1,1,1,1,1,1,1,1]","location_rts":"[1025,907,360,434,348,369,377,384,428,536]","trial_type":"two-door-navigation","trial_index":2,"time_elapsed":3259536,"internal_node_id":"0.0-2.0-0.0"},{"group":"dihedral group of order 12","room_assignment":["olive","orange","ivory","yellow","cyan","green","grey","pink","purple","red","brown","blue"],"door_color_assignment":["white","black"],"door_generator_assignment":[1,0],"goal":8,"start":7,"action_noise":0.15,"location_history":"[7,6,11,10,9,8]","action_history":"[0,0,0,0,0]","door_history":"[1,1,1,1,1]","location_rts":"[2534,428,571,434,216]","trial_type":"two-door-navigation","trial_index":3,"time_elapsed":3272601,"internal_node_id":"0.0-2.0-1.0"},{"group":"dihedral group of order 12","room_assignment":["olive","orange","ivory","yellow","cyan","green","grey","pink","purple","red","brown","blue"],"door_color_assignment":["white","black"],"door_generator_assignment":[1,0],"goal":4,"start":8,"action_noise":0.15,"location_history":"[8,2,8,2,3,9,8,2,3,4]","action_history":"[1,1,1,0,0,0,1,0,0]","door_history":"[0,0,0,1,1,1,0,1,1]","location_rts":"[1617,656,349,583,449,309,908,1213,340]","trial_type":"two-door-navigation","trial_index":4,"time_elapsed":3291872,"internal_node_id":"0.0-2.0-2.0"},{"group":"dihedral group of order 12","room_assignment":["olive","orange","ivory","yellow","cyan","green","grey","pink","purple","red","brown","blue"],"door_color_assignment":["white","black"],"door_generator_assignment":[1,0],"goal":5,"start":4,"action_noise":0.15,"location_history":"[4,10,9,8,7,6,11,10,9,3,9,8,7,6,11,10,9,3,4,5]","action_history":"[0,0,0,0,0,0,0,0,0,0,0,0,0,0,0,0,1,0,0]","door_history":"[1,1,1,1,1,1,1,1,1,1,1,1,1,1,1,1,0,1,1]","location_rts":"[1672,599,420,602,824,400,618,248,315,394,312,442,596,475,566,98,537,639,336]","trial_type":"two-door-navigation","trial_index":5,"time_elapsed":3325246,"internal_node_id":"0.0-2.0-3.0"},{"group":"dihedral group of order 12","room_assignment":["olive","orange","ivory","yellow","cyan","green","grey","pink","purple","red","brown","blue"],"door_color_assignment":["white","black"],"door_generator_assignment":[1,0],"goal":10,"start":5,"action_noise":0.15,"location_history":"[5,0,1,2,8,2,8,7,6,11,10]","action_history":"[0,0,0,1,1,1,0,0,0,0]","door_history":"[1,1,1,0,0,0,1,1,1,1]","location_rts":"[1524,677,505,967,990,405,58,606,546,622]","trial_type":"two-door-navigation","trial_index":6,"time_elapsed":3346096,"internal_node_id":"0.0-2.0-4.0"},{"group":"dihedral group of order 12","room_assignment":["olive","orange","ivory","yellow","cyan","green","grey","pink","purple","red","brown","blue"],"door_color_assignment":["white","black"],"door_generator_assignment":[1,0],"goal":1,"start":10,"action_noise":0.15,"location_history":"[10,9,8,2,3,4,10,9,8,7,6,11,10,4,10,9,8,7,1]","action_history":"[0,0,0,1,0,0,0,0,0,0,0,0,1,1,0,0,0,1]","door_history":"[1,1,1,0,1,1,1,1,1,1,1,1,0,0,1,1,1,0]","location_rts":"[1835,533,447,1238,440,413,335,364,385,476,568,402,1017,1003,1740,605,709,1179]","trial_type":"two-door-navigation","trial_index":7,"time_elapsed":3381912,"internal_node_id":"0.0-2.0-5.0"},{"group":"dihedral group of order 12","room_assignment":["olive","orange","ivory","yellow","cyan","green","grey","pink","purple","red","brown","blue"],"door_color_assignment":["white","black"],"door_generator_assignment":[1,0],"goal":6,"start":1,"action_noise":0.15,"location_history":"[1,2,3,4,5,0,1,2,3,4,10,4,10,4,10,9,3,4,5,0,1,2,3,4,5,11,10,9,8,7,6]","action_history":"[0,0,1,0,0,0,0,0,0,0,0,0,1,1,0,0,0,0,0,0,0,0,0,0,1,0,0,0,0,0]","door_history":"[1,1,0,1,1,1,1,1,1,1,1,1,0,0,1,1,1,1,1,1,1,1,1,1,0,1,1,1,1,1]","location_rts":"[1999,1320,913,1084,541,475,392,7585,448,482,341,384,407,728,431,695,487,390,584,242,345,507,349,371,668,762,349,331,349,341]","trial_type":"two-door-navigation","trial_index":8,"time_elapsed":3440886,"internal_node_id":"0.0-2.0-6.0"},{"group":"dihedral group of order 12","room_assignment":["olive","orange","ivory","yellow","cyan","green","grey","pink","purple","red","brown","blue"],"door_color_assignment":["white","black"],"door_generator_assignment":[1,0],"goal":9,"start":6,"action_noise":0.15,"location_history":"[6,0,6,11,5,0,6,0,6,11,10,9]","action_history":"[1,0,0,1,0,1,1,1,0,0,0]","door_history":"[0,1,1,0,1,0,0,0,1,1,1]","location_rts":"[2116,1483,2225,828,791,984,718,864,589,1444,2726]","trial_type":"two-door-navigation","trial_index":9,"time_elapsed":3470600,"internal_node_id":"0.0-2.0-7.0"},{"group":"dihedral group of order 12","room_assignment":["olive","orange","ivory","yellow","cyan","green","grey","pink","purple","red","brown","blue"],"door_color_assignment":["white","black"],"door_generator_assignment":[1,0],"goal":2,"start":9,"action_noise":0.15,"location_history":"[9,8,7,6,0,6,11,5,11,10,4,5,11,10,9,8,2]","action_history":"[0,0,0,1,1,0,0,1,0,1,1,1,0,0,0,0]","door_history":"[1,1,1,0,0,1,1,0,1,0,0,0,1,1,1,1]","location_rts":"[1589,493,1151,1188,910,283,1332,1355,11459,719,465,620,668,279,266,373]","trial_type":"two-door-navigation","trial_index":10,"time_elapsed":3513907,"internal_node_id":"0.0-2.0-8.0"},{"group":"dihedral group of order 12","room_assignment":["olive","orange","ivory","yellow","cyan","green","grey","pink","purple","red","brown","blue"],"door_color_assignment":["white","black"],"door_generator_assignment":[1,0],"goal":0,"start":2,"action_noise":0.15,"location_history":"[2,3,4,5,0]","action_history":"[0,0,0,0]","door_history":"[1,1,1,1]","location_rts":"[31624,544,3338,531]","trial_type":"two-door-navigation","trial_index":11,"time_elapsed":3557688,"internal_node_id":"0.0-2.0-9.0"},{"group":"dihedral group of order 12","room_assignment":["olive","orange","ivory","yellow","cyan","green","grey","pink","purple","red","brown","blue"],"door_color_assignment":["white","black"],"door_generator_assignment":[1,0],"goal":3,"start":0,"action_noise":0.15,"location_history":"[0,1,2,3]","action_history":"[0,0,0]","door_history":"[1,1,1]","location_rts":"[1346,839,759]","trial_type":"two-door-navigation","trial_index":12,"time_elapsed":3567318,"internal_node_id":"0.0-2.0-10.0"},{"group":"dihedral group of order 12","room_assignment":["olive","orange","ivory","yellow","cyan","green","grey","pink","purple","red","brown","blue"],"door_color_assignment":["white","black"],"door_generator_assignment":[1,0],"goal":10,"start":3,"action_noise":0.15,"location_history":"[3,4,5,0,1,2,8,7,1,7,6,11,10]","action_history":"[0,0,0,0,0,0,0,0,0,0,0,0]","door_history":"[1,1,1,1,1,1,1,1,1,1,1,1]","location_rts":"[1074,469,535,502,398,683,377,379,495,539,499,602]","trial_type":"two-door-navigation","trial_index":13,"time_elapsed":3590565,"internal_node_id":"0.0-2.0-11.0"},{"group":"dihedral group of order 12","room_assignment":["olive","orange","ivory","yellow","cyan","green","grey","pink","purple","red","brown","blue"],"door_color_assignment":["white","black"],"door_generator_assignment":[1,0],"goal":8,"start":10,"action_noise":0.15,"location_history":"[10,9,8]","action_history":"[0,0]","door_history":"[1,1]","location_rts":"[1128,448]","trial_type":"two-door-navigation","trial_index":14,"time_elapsed":3597996,"internal_node_id":"0.0-2.0-12.0"},{"group":"dihedral group of order 12","room_assignment":["olive","orange","ivory","yellow","cyan","green","grey","pink","purple","red","brown","blue"],"door_color_assignment":["white","black"],"door_generator_assignment":[1,0],"goal":4,"start":8,"action_noise":0.15,"location_history":"[8,2,3,4]","action_history":"[1,0,0]","door_history":"[0,1,1]","location_rts":"[1668,771,425]","trial_type":"two-door-navigation","trial_index":15,"time_elapsed":3607581,"internal_node_id":"0.0-2.0-13.0"},{"group":"dihedral group of order 12","room_assignment":["olive","orange","ivory","yellow","cyan","green","grey","pink","purple","red","brown","blue"],"door_color_assignment":["white","black"],"door_generator_assignment":[1,0],"goal":0,"start":4,"action_noise":0.15,"location_history":"[4,5,0]","action_history":"[0,0]","door_history":"[1,1]","location_rts":"[1284,804]","trial_type":"two-door-navigation","trial_index":16,"time_elapsed":3615242,"internal_node_id":"0.0-2.0-14.0"},{"group":"dihedral group of order 12","room_assignment":["olive","orange","ivory","yellow","cyan","green","grey","pink","purple","red","brown","blue"],"door_color_assignment":["white","black"],"door_generator_assignment":[1,0],"goal":11,"start":0,"action_noise":0.15,"location_history":"[0,1,2,8,2,3,4,5,11]","action_history":"[0,0,0,0,0,0,0,1]","door_history":"[1,1,1,1,1,1,1,0]","location_rts":"[1517,570,416,614,368,353,472,1598]","trial_type":"two-door-navigation","trial_index":17,"time_elapsed":3632975,"internal_node_id":"0.0-2.0-15.0"},{"group":"dihedral group of order 12","room_assignment":["olive","orange","ivory","yellow","cyan","green","grey","pink","purple","red","brown","blue"],"door_color_assignment":["white","black"],"door_generator_assignment":[1,0],"goal":2,"start":11,"action_noise":0.15,"location_history":"[11,5,0,1,2]","action_history":"[1,0,0,0]","door_history":"[0,1,1,1]","location_rts":"[1588,1291,471,385]","trial_type":"two-door-navigation","trial_index":18,"time_elapsed":3644348,"internal_node_id":"0.0-2.0-16.0"},{"group":"dihedral group of order 12","room_assignment":["olive","orange","ivory","yellow","cyan","green","grey","pink","purple","red","brown","blue"],"door_color_assignment":["white","black"],"door_generator_assignment":[1,0],"goal":7,"start":2,"action_noise":0.15,"location_history":"[2,3,4,5,0,1,7]","action_history":"[0,0,0,0,0,0]","door_history":"[1,1,1,1,1,1]","location_rts":"[1624,818,733,605,522,428]","trial_type":"two-door-navigation","trial_index":19,"time_elapsed":3658885,"internal_node_id":"0.0-2.0-17.0"},{"group":"dihedral group of order 12","room_assignment":["olive","orange","ivory","yellow","cyan","green","grey","pink","purple","red","brown","blue"],"door_color_assignment":["white","black"],"door_generator_assignment":[1,0],"goal":5,"start":7,"action_noise":0.15,"location_history":"[7,6,0,1,7,1,2,3,4,5]","action_history":"[0,0,0,1,1,0,0,0,0]","door_history":"[1,1,1,0,0,1,1,1,1]","location_rts":"[1359,540,764,789,2427,994,488,384,326]","trial_type":"two-door-navigation","trial_index":20,"time_elapsed":3679989,"internal_node_id":"0.0-2.0-18.0"},{"group":"dihedral group of order 12","room_assignment":["olive","orange","ivory","yellow","cyan","green","grey","pink","purple","red","brown","blue"],"door_color_assignment":["white","black"],"door_generator_assignment":[1,0],"goal":6,"start":5,"action_noise":0.15,"location_history":"[5,11,5,0,6]","action_history":"[1,1,1,0]","door_history":"[0,0,0,1]","location_rts":"[1812,787,918,105]","trial_type":"two-door-navigation","trial_index":21,"time_elapsed":3691278,"internal_node_id":"0.0-2.0-19.0"},{"group":"dihedral group of order 12","room_assignment":["olive","orange","ivory","yellow","cyan","green","grey","pink","purple","red","brown","blue"],"door_color_assignment":["white","black"],"door_generator_assignment":[1,0],"goal":3,"start":6,"action_noise":0.15,"location_history":"[6,11,10,9,8,2,3]","action_history":"[0,0,0,0,0,0]","door_history":"[1,1,1,1,1,1]","location_rts":"[1519,653,37649,469,394,567]","trial_type":"two-door-navigation","trial_index":22,"time_elapsed":3742283,"internal_node_id":"0.0-2.0-20.0"},{"group":"dihedral group of order 12","room_assignment":["olive","orange","ivory","yellow","cyan","green","grey","pink","purple","red","brown","blue"],"door_color_assignment":["white","black"],"door_generator_assignment":[1,0],"goal":1,"start":3,"action_noise":0.15,"location_history":"[3,4,5,0,6,11,10,9,8,7,6,11,10,4,5,0,1]","action_history":"[0,0,0,0,0,0,0,0,0,0,0,0,1,0,0,0]","door_history":"[1,1,1,1,1,1,1,1,1,1,1,1,0,1,1,1]","location_rts":"[2232,429,391,361,696,440,396,471,473,489,382,440,655,829,388,348]","trial_type":"two-door-navigation","trial_index":23,"time_elapsed":3771883,"internal_node_id":"0.0-2.0-21.0"},{"group":"dihedral group of order 12","room_assignment":["olive","orange","ivory","yellow","cyan","green","grey","pink","purple","red","brown","blue"],"door_color_assignment":["white","black"],"door_generator_assignment":[1,0],"goal":9,"start":1,"action_noise":0.15,"location_history":"[1,2,3,4,5,0,1,2,8,7,6,11,10,9]","action_history":"[0,0,0,0,0,0,0,0,0,0,0,0,0]","door_history":"[1,1,1,1,1,1,1,1,1,1,1,1,1]","location_rts":"[1234,484,356,437,478,320,400,387,442,328,353,334,779]","trial_type":"two-door-navigation","trial_index":24,"time_elapsed":3795299,"internal_node_id":"0.0-2.0-22.0"},{"group":"dihedral group of order 12","room_assignment":["olive","orange","ivory","yellow","cyan","green","grey","pink","purple","red","brown","blue"],"door_color_assignment":["white","black"],"door_generator_assignment":[1,0],"goal":3,"start":9,"action_noise":0.15,"location_history":"[9,8,7,6,11,5,0,1,2,3]","action_history":"[0,0,0,0,0,0,0,0,0]","door_history":"[1,1,1,1,1,1,1,1,1]","location_rts":"[1037,393,309,526,373,550,377,524,470]","trial_type":"two-door-navigation","trial_index":25,"time_elapsed":3812937,"internal_node_id":"0.0-2.0-23.0"},{"group":"dihedral group of order 12","room_assignment":["olive","orange","ivory","yellow","cyan","green","grey","pink","purple","red","brown","blue"],"door_color_assignment":["white","black"],"door_generator_assignment":[1,0],"goal":4,"start":3,"action_noise":0.15,"location_history":"[3,9,3,4]","action_history":"[1,1,0]","door_history":"[0,0,1]","location_rts":"[1189,633,403]","trial_type":"two-door-navigation","trial_index":26,"time_elapsed":3821854,"internal_node_id":"0.0-2.0-24.0"},{"group":"dihedral group of order 12","room_assignment":["olive","orange","ivory","yellow","cyan","green","grey","pink","purple","red","brown","blue"],"door_color_assignment":["white","black"],"door_generator_assignment":[1,0],"goal":2,"start":4,"action_noise":0.15,"location_history":"[4,10,9,3,4,5,11,10,9,8,7,6,11,5,11,5,0,1,7,1,2]","action_history":"[1,0,0,0,0,0,0,0,0,0,0,0,1,1,1,0,0,1,1,1]","door_history":"[0,1,1,1,1,1,1,1,1,1,1,1,0,0,0,1,1,0,0,0]","location_rts":"[1393,1060,431,446,404,387,412,877,589,468,2274,1584,876,498,516,131,371,854,1157,421]","trial_type":"two-door-navigation","trial_index":27,"time_elapsed":3861609,"internal_node_id":"0.0-2.0-25.0"},{"group":"dihedral group of order 12","room_assignment":["olive","orange","ivory","yellow","cyan","green","grey","pink","purple","red","brown","blue"],"door_color_assignment":["white","black"],"door_generator_assignment":[1,0],"goal":1,"start":2,"action_noise":0.15,"location_history":"[2,3,4,5,0,1]","action_history":"[0,0,0,0,0]","door_history":"[1,1,1,1,1]","location_rts":"[1338,419,310,349,469]","trial_type":"two-door-navigation","trial_index":28,"time_elapsed":3873640,"internal_node_id":"0.0-2.0-26.0"},{"group":"dihedral group of order 12","room_assignment":["olive","orange","ivory","yellow","cyan","green","grey","pink","purple","red","brown","blue"],"door_color_assignment":["white","black"],"door_generator_assignment":[1,0],"goal":8,"start":1,"action_noise":0.15,"location_history":"[1,2,3,4,5,0,1,2,3,9,8]","action_history":"[0,0,0,0,0,0,0,0,1,0]","door_history":"[1,1,1,1,1,1,1,1,0,1]","location_rts":"[1447,362,463,420,597,1983,504,368,535,169]","trial_type":"two-door-navigation","trial_index":29,"time_elapsed":3894390,"internal_node_id":"0.0-2.0-27.0"},{"group":"dihedral group of order 12","room_assignment":["olive","orange","ivory","yellow","cyan","green","grey","pink","purple","red","brown","blue"],"door_color_assignment":["white","black"],"door_generator_assignment":[1,0],"goal":10,"start":8,"action_noise":0.15,"location_history":"[8,7,6,11,10]","action_history":"[0,0,0,0]","door_history":"[1,1,1,1]","location_rts":"[14273,422,4504,373]","trial_type":"two-door-navigation","trial_index":30,"time_elapsed":3922056,"internal_node_id":"0.0-2.0-28.0"},{"group":"dihedral group of order 12","room_assignment":["olive","orange","ivory","yellow","cyan","green","grey","pink","purple","red","brown","blue"],"door_color_assignment":["white","black"],"door_generator_assignment":[1,0],"goal":7,"start":10,"action_noise":0.15,"location_history":"[10,9,8,7]","action_history":"[0,0,0]","door_history":"[1,1,1]","location_rts":"[2436,588,466]","trial_type":"two-door-navigation","trial_index":31,"time_elapsed":3932272,"internal_node_id":"0.0-2.0-29.0"},{"group":"dihedral group of order 12","room_assignment":["olive","orange","ivory","yellow","cyan","green","grey","pink","purple","red","brown","blue"],"door_color_assignment":["white","black"],"door_generator_assignment":[1,0],"goal":6,"start":7,"action_noise":0.15,"location_history":"[7,1,2,3,9,3,9,8,7,1,2,3,9,3,4,10,9,8,7,1,7,1,2,3,9,3,4,5,0,6]","action_history":"[0,0,0,0,1,1,0,0,1,1,0,1,1,0,0,0,0,0,0,1,1,0,0,1,1,0,0,0,0]","door_history":"[1,1,1,1,0,0,1,1,0,0,1,0,0,1,1,1,1,1,1,0,0,1,1,0,0,1,1,1,1]","location_rts":"[4113,409,580,500,413,633,642,679,1414,1194,91,872,442,479,393,598,378,795,1685,831,208,959,561,814,725,5097,669,286,292]","trial_type":"two-door-navigation","trial_index":32,"time_elapsed":3992871,"internal_node_id":"0.0-2.0-30.0"},{"group":"dihedral group of order 12","room_assignment":["olive","orange","ivory","yellow","cyan","green","grey","pink","purple","red","brown","blue"],"door_color_assignment":["white","black"],"door_generator_assignment":[1,0],"goal":0,"start":6,"action_noise":0.15,"location_history":"[6,11,5,11,5,0]","action_history":"[0,1,0,1,0]","door_history":"[1,0,1,0,1]","location_rts":"[21399,935,420,1338,1003]","trial_type":"two-door-navigation","trial_index":33,"time_elapsed":4026655,"internal_node_id":"0.0-2.0-31.0"},{"group":"dihedral group of order 12","room_assignment":["olive","orange","ivory","yellow","cyan","green","grey","pink","purple","red","brown","blue"],"door_color_assignment":["white","black"],"door_generator_assignment":[1,0],"goal":11,"start":0,"action_noise":0.15,"location_history":"[0,1,2,8,7,6,11]","action_history":"[0,0,0,0,0,0]","door_history":"[1,1,1,1,1,1]","location_rts":"[1522,369,427,464,537,341]","trial_type":"two-door-navigation","trial_index":34,"time_elapsed":4040017,"internal_node_id":"0.0-2.0-32.0"},{"group":"dihedral group of order 12","room_assignment":["olive","orange","ivory","yellow","cyan","green","grey","pink","purple","red","brown","blue"],"door_color_assignment":["white","black"],"door_generator_assignment":[1,0],"goal":9,"start":11,"action_noise":0.15,"location_history":"[11,10,9]","action_history":"[0,0]","door_history":"[1,1]","location_rts":"[5416,385]","trial_type":"two-door-navigation","trial_index":35,"time_elapsed":4051389,"internal_node_id":"0.0-2.0-33.0"},{"group":"dihedral group of order 12","room_assignment":["olive","orange","ivory","yellow","cyan","green","grey","pink","purple","red","brown","blue"],"door_color_assignment":["white","black"],"door_generator_assignment":[1,0],"goal":5,"start":9,"action_noise":0.15,"location_history":"[9,3,4,5]","action_history":"[0,0,0]","door_history":"[1,1,1]","location_rts":"[1040,429,332]","trial_type":"two-door-navigation","trial_index":36,"time_elapsed":4059815,"internal_node_id":"0.0-2.0-34.0"},{"view_history":"[{\"page_index\":0,\"viewing_time\":2149}]","rt":2150,"trial_type":"instructions","trial_index":37,"time_elapsed":4062965,"internal_node_id":"0.0-3.0"},{"view_history":"[{\"page_index\":0,\"viewing_time\":1550},{\"page_index\":1,\"viewing_time\":4852}]","rt":6403,"trial_type":"instructions","trial_index":38,"time_elapsed":4070368,"internal_node_id":"0.0-4.0"},{"group":"dihedral group of order 12","fractal_assignment":["../images/wht_red.png","../images/cyn_red.png","../images/pnk_blu.png","../images/blu_wht.png","../images/org_blu.png","../images/red_prp.png","../images/grn_red.png","../images/ylw_pnk.png","../images/ylw_slt.png","../images/grn_prp.png","../images/grn_blu.png","../images/gry_blk.png"],"mutagen_generator_assignment":[0,1],"goal":7,"start":11,"action_noise":0.15,"location_history":"[11,5,11,5,11,5,11,10,9,3,9,8,7]","action_history":"[0,0,1,1,1,0,0,0,0,0,0,0]","mutagen_history":"[0,0,1,1,1,0,0,0,0,0,0,0]","location_rts":"[7564,705,757,1270,524,623,770,1004,599,558,532,1776]","trial_type":"fractal-mutation","trial_index":39,"time_elapsed":4107406,"internal_node_id":"0.0-5.0-0.0"},{"group":"dihedral group of order 12","fractal_assignment":["../images/wht_red.png","../images/cyn_red.png","../images/pnk_blu.png","../images/blu_wht.png","../images/org_blu.png","../images/red_prp.png","../images/grn_red.png","../images/ylw_pnk.png","../images/ylw_slt.png","../images/grn_prp.png","../images/grn_blu.png","../images/gry_blk.png"],"mutagen_generator_assignment":[0,1],"goal":8,"start":7,"action_noise":0.15,"location_history":"[7,1,7,6,0,1,2,3,4,5,0,6,11,5,11,5,0,6,0,6,0,1,2,3,9,8]","action_history":"[1,1,0,1,0,0,0,0,0,0,1,0,1,1,1,0,0,1,1,1,0,0,0,1,0]","mutagen_history":"[1,1,0,1,0,0,0,0,0,0,1,0,1,1,1,0,0,1,1,1,0,0,0,1,0]","location_rts":"[1332,967,556,748,885,672,942,743,666,806,1595,769,214,761,377,242,1099,984,756,1068,119,995,1223,676,845]","trial_type":"fractal-mutation","trial_index":40,"time_elapsed":4167578,"internal_node_id":"0.0-5.0-1.0"},{"group":"dihedral group of order 12","fractal_assignment":["../images/wht_red.png","../images/cyn_red.png","../images/pnk_blu.png","../images/blu_wht.png","../images/org_blu.png","../images/red_prp.png","../images/grn_red.png","../images/ylw_pnk.png","../images/ylw_slt.png","../images/grn_prp.png","../images/grn_blu.png","../images/gry_blk.png"],"mutagen_generator_assignment":[0,1],"goal":4,"start":8,"action_noise":0.15,"location_history":"[8,7,6,11,10,4]","action_history":"[0,0,0,0,1]","mutagen_history":"[0,0,0,0,1]","location_rts":"[8668,1168,799,679,668]","trial_type":"fractal-mutation","trial_index":41,"time_elapsed":4190052,"internal_node_id":"0.0-5.0-2.0"},{"group":"dihedral group of order 12","fractal_assignment":["../images/wht_red.png","../images/cyn_red.png","../images/pnk_blu.png","../images/blu_wht.png","../images/org_blu.png","../images/red_prp.png","../images/grn_red.png","../images/ylw_pnk.png","../images/ylw_slt.png","../images/grn_prp.png","../images/grn_blu.png","../images/gry_blk.png"],"mutagen_generator_assignment":[0,1],"goal":5,"start":4,"action_noise":0.15,"location_history":"[4,10,4,5]","action_history":"[1,1,0]","mutagen_history":"[1,1,0]","location_rts":"[3917,1335,733]","trial_type":"fractal-mutation","trial_index":42,"time_elapsed":4204280,"internal_node_id":"0.0-5.0-3.0"},{"group":"dihedral group of order 12","fractal_assignment":["../images/wht_red.png","../images/cyn_red.png","../images/pnk_blu.png","../images/blu_wht.png","../images/org_blu.png","../images/red_prp.png","../images/grn_red.png","../images/ylw_pnk.png","../images/ylw_slt.png","../images/grn_prp.png","../images/grn_blu.png","../images/gry_blk.png"],"mutagen_generator_assignment":[0,1],"goal":10,"start":5,"action_noise":0.15,"location_history":"[5,11,10]","action_history":"[1,0]","mutagen_history":"[1,0]","location_rts":"[2322,2350]","trial_type":"fractal-mutation","trial_index":43,"time_elapsed":4215645,"internal_node_id":"0.0-5.0-4.0"},{"group":"dihedral group of order 12","fractal_assignment":["../images/wht_red.png","../images/cyn_red.png","../images/pnk_blu.png","../images/blu_wht.png","../images/org_blu.png","../images/red_prp.png","../images/grn_red.png","../images/ylw_pnk.png","../images/ylw_slt.png","../images/grn_prp.png","../images/grn_blu.png","../images/gry_blk.png"],"mutagen_generator_assignment":[0,1],"goal":1,"start":10,"action_noise":0.15,"location_history":"[10,4,10,4,5,11,10,9,8,2,3,4,5,0,6,11,10,4,5,0,1]","action_history":"[1,1,0,0,0,0,1,0,0,0,0,0,0,1,0,0,0,0,0,0]","mutagen_history":"[1,1,0,0,0,0,1,0,0,0,0,0,0,1,0,0,0,0,0,0]","location_rts":"[2785,853,488,817,1261,1166,755,610,1220,1048,1027,1266,720,1367,789,960,840,786,708,1248]","trial_type":"fractal-mutation","trial_index":44,"time_elapsed":4268146,"internal_node_id":"0.0-5.0-5.0"},{"group":"dihedral group of order 12","fractal_assignment":["../images/wht_red.png","../images/cyn_red.png","../images/pnk_blu.png","../images/blu_wht.png","../images/org_blu.png","../images/red_prp.png","../images/grn_red.png","../images/ylw_pnk.png","../images/ylw_slt.png","../images/grn_prp.png","../images/grn_blu.png","../images/gry_blk.png"],"mutagen_generator_assignment":[0,1],"goal":6,"start":1,"action_noise":0.15,"location_history":"[1,7,1,7,1,7,1,2,3,4,10,9,8,7,1,2,3,4,5,0,1,2,3,4,5,0,1,7,1,2,8,2,8,7,1,2,3,4,5,11,5,0,6]","action_history":"[1,0,0,0,1,1,1,0,0,1,0,0,0,1,0,0,0,0,0,1,0,0,0,0,0,0,0,1,0,1,1,0,0,1,0,0,0,0,1,1,0,1]","mutagen_history":"[1,0,0,0,1,1,1,0,0,1,0,0,0,1,0,0,0,0,0,1,0,0,0,0,0,0,0,1,0,1,1,0,0,1,0,0,0,0,1,1,0,1]","location_rts":"[1232,550,689,655,689,424,503,775,584,791,759,549,612,610,819,443,567,872,835,1146,884,519,533,615,821,1366,813,2229,753,878,1168,1161,598,896,629,744,540,576,828,1025,705,1896]","trial_type":"fractal-mutation","trial_index":45,"time_elapsed":4365576,"internal_node_id":"0.0-5.0-6.0"},{"group":"dihedral group of order 12","fractal_assignment":["../images/wht_red.png","../images/cyn_red.png","../images/pnk_blu.png","../images/blu_wht.png","../images/org_blu.png","../images/red_prp.png","../images/grn_red.png","../images/ylw_pnk.png","../images/ylw_slt.png","../images/grn_prp.png","../images/grn_blu.png","../images/gry_blk.png"],"mutagen_generator_assignment":[0,1],"goal":9,"start":6,"action_noise":0.15,"location_history":"[6,0,1,7,1,2,8,7,6,0,6,11,10,9]","action_history":"[1,0,0,0,0,1,0,0,1,1,0,0,1]","mutagen_history":"[1,0,0,0,0,1,0,0,1,1,0,0,1]","location_rts":"[1322,551,648,653,791,1684,4695,575,796,861,5235,769,1069]","trial_type":"fractal-mutation","trial_index":46,"time_elapsed":4411180,"internal_node_id":"0.0-5.0-7.0"},{"group":"dihedral group of order 12","fractal_assignment":["../images/wht_red.png","../images/cyn_red.png","../images/pnk_blu.png","../images/blu_wht.png","../images/org_blu.png","../images/red_prp.png","../images/grn_red.png","../images/ylw_pnk.png","../images/ylw_slt.png","../images/grn_prp.png","../images/grn_blu.png","../images/gry_blk.png"],"mutagen_generator_assignment":[0,1],"goal":2,"start":9,"action_noise":0.15,"location_history":"[9,8,2]","action_history":"[0,1]","mutagen_history":"[0,1]","location_rts":"[17577,645]","trial_type":"fractal-mutation","trial_index":47,"time_elapsed":4435906,"internal_node_id":"0.0-5.0-8.0"},{"group":"dihedral group of order 12","fractal_assignment":["../images/wht_red.png","../images/cyn_red.png","../images/pnk_blu.png","../images/blu_wht.png","../images/org_blu.png","../images/red_prp.png","../images/grn_red.png","../images/ylw_pnk.png","../images/ylw_slt.png","../images/grn_prp.png","../images/grn_blu.png","../images/gry_blk.png"],"mutagen_generator_assignment":[0,1],"goal":0,"start":2,"action_noise":0.15,"location_history":"[2,3,9,8,7,6,0]","action_history":"[0,1,1,0,0,0]","mutagen_history":"[0,1,1,0,0,0]","location_rts":"[80676,605,667,846,558,726]","trial_type":"fractal-mutation","trial_index":48,"time_elapsed":4532115,"internal_node_id":"0.0-5.0-9.0"},{"group":"dihedral group of order 12","fractal_assignment":["../images/wht_red.png","../images/cyn_red.png","../images/pnk_blu.png","../images/blu_wht.png","../images/org_blu.png","../images/red_prp.png","../images/grn_red.png","../images/ylw_pnk.png","../images/ylw_slt.png","../images/grn_prp.png","../images/grn_blu.png","../images/gry_blk.png"],"mutagen_generator_assignment":[0,1],"goal":3,"start":0,"action_noise":0.15,"location_history":"[0,6,0,1,2,3]","action_history":"[1,1,1,0,0]","mutagen_history":"[1,1,1,0,0]","location_rts":"[875,465,854,241,525]","trial_type":"fractal-mutation","trial_index":49,"time_elapsed":4546016,"internal_node_id":"0.0-5.0-10.0"},{"group":"dihedral group of order 12","fractal_assignment":["../images/wht_red.png","../images/cyn_red.png","../images/pnk_blu.png","../images/blu_wht.png","../images/org_blu.png","../images/red_prp.png","../images/grn_red.png","../images/ylw_pnk.png","../images/ylw_slt.png","../images/grn_prp.png","../images/grn_blu.png","../images/gry_blk.png"],"mutagen_generator_assignment":[0,1],"goal":10,"start":3,"action_noise":0.15,"location_history":"[3,4,5,11,10]","action_history":"[0,1,1,0]","mutagen_history":"[0,1,1,0]","location_rts":"[1627,679,532,1247]","trial_type":"fractal-mutation","trial_index":50,"time_elapsed":4559110,"internal_node_id":"0.0-5.0-11.0"},{"group":"dihedral group of order 12","fractal_assignment":["../images/wht_red.png","../images/cyn_red.png","../images/pnk_blu.png","../images/blu_wht.png","../images/org_blu.png","../images/red_prp.png","../images/grn_red.png","../images/ylw_pnk.png","../images/ylw_slt.png","../images/grn_prp.png","../images/grn_blu.png","../images/gry_blk.png"],"mutagen_generator_assignment":[0,1],"goal":8,"start":10,"action_noise":0.15,"location_history":"[10,9,8]","action_history":"[0,0]","mutagen_history":"[0,0]","location_rts":"[1291,648]","trial_type":"fractal-mutation","trial_index":51,"time_elapsed":4566774,"internal_node_id":"0.0-5.0-12.0"},{"group":"dihedral group of order 12","fractal_assignment":["../images/wht_red.png","../images/cyn_red.png","../images/pnk_blu.png","../images/blu_wht.png","../images/org_blu.png","../images/red_prp.png","../images/grn_red.png","../images/ylw_pnk.png","../images/ylw_slt.png","../images/grn_prp.png","../images/grn_blu.png","../images/gry_blk.png"],"mutagen_generator_assignment":[0,1],"goal":4,"start":8,"action_noise":0.15,"location_history":"[8,7,6,0,1,7,6,11,10,9,3,4]","action_history":"[0,0,1,0,0,0,0,0,0,1,1]","mutagen_history":"[0,0,1,0,0,0,0,0,0,1,1]","location_rts":"[1082,441,487,555,690,711,690,1863,943,705,513]","trial_type":"fractal-mutation","trial_index":52,"time_elapsed":4594025,"internal_node_id":"0.0-5.0-13.0"},{"group":"dihedral group of order 12","fractal_assignment":["../images/wht_red.png","../images/cyn_red.png","../images/pnk_blu.png","../images/blu_wht.png","../images/org_blu.png","../images/red_prp.png","../images/grn_red.png","../images/ylw_pnk.png","../images/ylw_slt.png","../images/grn_prp.png","../images/grn_blu.png","../images/gry_blk.png"],"mutagen_generator_assignment":[0,1],"goal":0,"start":4,"action_noise":0.15,"location_history":"[4,5,0]","action_history":"[0,0]","mutagen_history":"[0,0]","location_rts":"[1045,696]","trial_type":"fractal-mutation","trial_index":53,"time_elapsed":4601462,"internal_node_id":"0.0-5.0-14.0"},{"group":"dihedral group of order 12","fractal_assignment":["../images/wht_red.png","../images/cyn_red.png","../images/pnk_blu.png","../images/blu_wht.png","../images/org_blu.png","../images/red_prp.png","../images/grn_red.png","../images/ylw_pnk.png","../images/ylw_slt.png","../images/grn_prp.png","../images/grn_blu.png","../images/gry_blk.png"],"mutagen_generator_assignment":[0,1],"goal":11,"start":0,"action_noise":0.15,"location_history":"[0,6,0,1,2,3,4,5,11]","action_history":"[1,1,0,0,0,0,0,1]","mutagen_history":"[1,1,0,0,0,0,0,1]","location_rts":"[1313,864,930,828,908,756,717,1607]","trial_type":"fractal-mutation","trial_index":54,"time_elapsed":4624215,"internal_node_id":"0.0-5.0-15.0"},{"group":"dihedral group of order 12","fractal_assignment":["../images/wht_red.png","../images/cyn_red.png","../images/pnk_blu.png","../images/blu_wht.png","../images/org_blu.png","../images/red_prp.png","../images/grn_red.png","../images/ylw_pnk.png","../images/ylw_slt.png","../images/grn_prp.png","../images/grn_blu.png","../images/gry_blk.png"],"mutagen_generator_assignment":[0,1],"goal":2,"start":11,"action_noise":0.15,"location_history":"[11,5,0,1,7,6,11,10,4,5,0,1,7,6,0,1,7,1,2]","action_history":"[1,0,0,1,0,0,0,1,0,0,0,0,0,1,0,0,0,0]","mutagen_history":"[1,0,0,1,0,0,0,1,0,0,0,0,0,1,0,0,0,0]","location_rts":"[1008,625,778,740,845,3329,772,1344,600,481,1062,844,609,762,778,633,617,654]","trial_type":"fractal-mutation","trial_index":55,"time_elapsed":4668910,"internal_node_id":"0.0-5.0-16.0"},{"group":"dihedral group of order 12","fractal_assignment":["../images/wht_red.png","../images/cyn_red.png","../images/pnk_blu.png","../images/blu_wht.png","../images/org_blu.png","../images/red_prp.png","../images/grn_red.png","../images/ylw_pnk.png","../images/ylw_slt.png","../images/grn_prp.png","../images/grn_blu.png","../images/gry_blk.png"],"mutagen_generator_assignment":[0,1],"goal":7,"start":2,"action_noise":0.15,"location_history":"[2,3,4,5,0,1,7]","action_history":"[0,0,0,0,0,1]","mutagen_history":"[0,0,0,0,0,1]","location_rts":"[1490,1200,1019,936,1372,755]","trial_type":"fractal-mutation","trial_index":56,"time_elapsed":4686175,"internal_node_id":"0.0-5.0-17.0"},{"group":"dihedral group of order 12","fractal_assignment":["../images/wht_red.png","../images/cyn_red.png","../images/pnk_blu.png","../images/blu_wht.png","../images/org_blu.png","../images/red_prp.png","../images/grn_red.png","../images/ylw_pnk.png","../images/ylw_slt.png","../images/grn_prp.png","../images/grn_blu.png","../images/gry_blk.png"],"mutagen_generator_assignment":[0,1],"goal":5,"start":7,"action_noise":0.15,"location_history":"[7,1,2,3,9,8,7,6,11,5]","action_history":"[1,0,0,1,0,0,0,0,1]","mutagen_history":"[1,0,0,1,0,0,0,0,1]","location_rts":"[1168,634,673,529,828,630,651,561,1524]","trial_type":"fractal-mutation","trial_index":57,"time_elapsed":4709987,"internal_node_id":"0.0-5.0-18.0"},{"group":"dihedral group of order 12","fractal_assignment":["../images/wht_red.png","../images/cyn_red.png","../images/pnk_blu.png","../images/blu_wht.png","../images/org_blu.png","../images/red_prp.png","../images/grn_red.png","../images/ylw_pnk.png","../images/ylw_slt.png","../images/grn_prp.png","../images/grn_blu.png","../images/gry_blk.png"],"mutagen_generator_assignment":[0,1],"goal":6,"start":5,"action_noise":0.15,"location_history":"[5,0,6]","action_history":"[0,1]","mutagen_history":"[0,1]","location_rts":"[1051,729]","trial_type":"fractal-mutation","trial_index":58,"time_elapsed":4718242,"internal_node_id":"0.0-5.0-19.0"},{"group":"dihedral group of order 12","fractal_assignment":["../images/wht_red.png","../images/cyn_red.png","../images/pnk_blu.png","../images/blu_wht.png","../images/org_blu.png","../images/red_prp.png","../images/grn_red.png","../images/ylw_pnk.png","../images/ylw_slt.png","../images/grn_prp.png","../images/grn_blu.png","../images/gry_blk.png"],"mutagen_generator_assignment":[0,1],"goal":3,"start":6,"action_noise":0.15,"location_history":"[6,0,6,11,10,9,8,7,6,11,10,9,3]","action_history":"[1,0,0,0,0,0,0,0,0,0,0,0]","mutagen_history":"[1,0,0,0,0,0,0,0,0,0,0,0]","location_rts":"[1088,589,466,500,389,379,429,458,392,510,807,918]","trial_type":"fractal-mutation","trial_index":59,"time_elapsed":4744710,"internal_node_id":"0.0-5.0-20.0"},{"group":"dihedral group of order 12","fractal_assignment":["../images/wht_red.png","../images/cyn_red.png","../images/pnk_blu.png","../images/blu_wht.png","../images/org_blu.png","../images/red_prp.png","../images/grn_red.png","../images/ylw_pnk.png","../images/ylw_slt.png","../images/grn_prp.png","../images/grn_blu.png","../images/gry_blk.png"],"mutagen_generator_assignment":[0,1],"goal":1,"start":3,"action_noise":0.15,"location_history":"[3,4,5,0,6,11,10,9,8,7,6,11,10,9,3,4,10,9,8,2,3,4,5,11,5,0,1]","action_history":"[0,0,0,1,0,1,0,0,0,0,0,0,0,0,0,0,0,0,1,0,0,0,0,0,0,0]","mutagen_history":"[0,0,0,1,0,1,0,0,0,0,0,0,0,0,0,0,0,0,1,0,0,0,0,0,0,0]","location_rts":"[1207,1352,741,641,703,892,680,750,928,1689,913,1063,744,649,626,696,914,7073,996,953,732,759,1090,8041,537,2013]","trial_type":"fractal-mutation","trial_index":60,"time_elapsed":4819685,"internal_node_id":"0.0-5.0-21.0"},{"group":"dihedral group of order 12","fractal_assignment":["../images/wht_red.png","../images/cyn_red.png","../images/pnk_blu.png","../images/blu_wht.png","../images/org_blu.png","../images/red_prp.png","../images/grn_red.png","../images/ylw_pnk.png","../images/ylw_slt.png","../images/grn_prp.png","../images/grn_blu.png","../images/gry_blk.png"],"mutagen_generator_assignment":[0,1],"goal":9,"start":1,"action_noise":0.15,"location_history":"[1,2,8,7,1,7,6,11,10,4,5,0,6,11,5,11,10,4,10,9]","action_history":"[0,0,0,1,1,0,0,0,0,1,0,0,0,1,0,0,1,1,0]","mutagen_history":"[0,0,0,1,1,0,0,0,0,1,0,0,0,1,0,0,1,1,0]","location_rts":"[6882,982,1053,515,802,460,508,813,1116,588,698,477,135,436,287,604,987,790,770]","trial_type":"fractal-mutation","trial_index":61,"time_elapsed":4869596,"internal_node_id":"0.0-5.0-22.0"},{"group":"dihedral group of order 12","fractal_assignment":["../images/wht_red.png","../images/cyn_red.png","../images/pnk_blu.png","../images/blu_wht.png","../images/org_blu.png","../images/red_prp.png","../images/grn_red.png","../images/ylw_pnk.png","../images/ylw_slt.png","../images/grn_prp.png","../images/grn_blu.png","../images/gry_blk.png"],"mutagen_generator_assignment":[0,1],"goal":3,"start":9,"action_noise":0.15,"location_history":"[9,8,7,6,0,1,2,3]","action_history":"[0,0,0,0,0,0,0]","mutagen_history":"[0,0,0,0,0,0,0]","location_rts":"[1212,438,428,424,439,369,414]","trial_type":"fractal-mutation","trial_index":62,"time_elapsed":4884519,"internal_node_id":"0.0-5.0-23.0"},{"group":"dihedral group of order 12","fractal_assignment":["../images/wht_red.png","../images/cyn_red.png","../images/pnk_blu.png","../images/blu_wht.png","../images/org_blu.png","../images/red_prp.png","../images/grn_red.png","../images/ylw_pnk.png","../images/ylw_slt.png","../images/grn_prp.png","../images/grn_blu.png","../images/gry_blk.png"],"mutagen_generator_assignment":[0,1],"goal":4,"start":3,"action_noise":0.15,"location_history":"[3,9,8,7,6,0,1,2,3,9,8,7,6,11,10,4]","action_history":"[1,0,0,0,1,1,0,0,1,1,0,1,1,0,1]","mutagen_history":"[1,0,0,0,1,1,0,0,1,1,0,1,1,0,1]","location_rts":"[1180,767,443,475,516,532,711,722,857,964,1223,882,534,835,1294]","trial_type":"fractal-mutation","trial_index":63,"time_elapsed":4922096,"internal_node_id":"0.0-5.0-24.0"},{"group":"dihedral group of order 12","fractal_assignment":["../images/wht_red.png","../images/cyn_red.png","../images/pnk_blu.png","../images/blu_wht.png","../images/org_blu.png","../images/red_prp.png","../images/grn_red.png","../images/ylw_pnk.png","../images/ylw_slt.png","../images/grn_prp.png","../images/grn_blu.png","../images/gry_blk.png"],"mutagen_generator_assignment":[0,1],"goal":2,"start":4,"action_noise":0.15,"location_history":"[4,5,11,10,9,3,9,3,4,5,0,1,2]","action_history":"[0,1,0,0,1,1,1,0,0,1,0,1]","mutagen_history":"[0,1,0,0,1,1,1,0,0,1,0,1]","location_rts":"[1382,635,691,732,818,534,796,869,659,783,597,1168]","trial_type":"fractal-mutation","trial_index":64,"time_elapsed":4952494,"internal_node_id":"0.0-5.0-25.0"},{"group":"dihedral group of order 12","fractal_assignment":["../images/wht_red.png","../images/cyn_red.png","../images/pnk_blu.png","../images/blu_wht.png","../images/org_blu.png","../images/red_prp.png","../images/grn_red.png","../images/ylw_pnk.png","../images/ylw_slt.png","../images/grn_prp.png","../images/grn_blu.png","../images/gry_blk.png"],"mutagen_generator_assignment":[0,1],"goal":1,"start":2,"action_noise":0.15,"location_history":"[2,8,7,6,11,5,11,10,9,8,2,3,9,8,2,3,9,8,7,1]","action_history":"[1,0,0,0,1,0,0,0,0,1,0,0,0,1,0,0,0,0,1]","mutagen_history":"[1,0,0,0,1,0,0,0,0,1,0,0,0,1,0,0,0,0,1]","location_rts":"[1567,617,839,982,554,669,648,948,851,1180,920,698,822,1086,906,654,867,885,1066]","trial_type":"fractal-mutation","trial_index":65,"time_elapsed":5000510,"internal_node_id":"0.0-5.0-26.0"},{"group":"dihedral group of order 12","fractal_assignment":["../images/wht_red.png","../images/cyn_red.png","../images/pnk_blu.png","../images/blu_wht.png","../images/org_blu.png","../images/red_prp.png","../images/grn_red.png","../images/ylw_pnk.png","../images/ylw_slt.png","../images/grn_prp.png","../images/grn_blu.png","../images/gry_blk.png"],"mutagen_generator_assignment":[0,1],"goal":8,"start":1,"action_noise":0.15,"location_history":"[1,2,3,4,5,0,1,2,3,4,5,0,1,2,8]","action_history":"[0,1,0,0,0,0,0,0,0,0,0,0,0,1]","mutagen_history":"[0,1,0,0,0,0,0,0,0,0,0,0,0,1]","location_rts":"[7591,1849,868,2617,1126,1555,457,618,703,461,492,425,663,735]","trial_type":"fractal-mutation","trial_index":66,"time_elapsed":5043625,"internal_node_id":"0.0-5.0-27.0"},{"group":"dihedral group of order 12","fractal_assignment":["../images/wht_red.png","../images/cyn_red.png","../images/pnk_blu.png","../images/blu_wht.png","../images/org_blu.png","../images/red_prp.png","../images/grn_red.png","../images/ylw_pnk.png","../images/ylw_slt.png","../images/grn_prp.png","../images/grn_blu.png","../images/gry_blk.png"],"mutagen_generator_assignment":[0,1],"goal":10,"start":8,"action_noise":0.15,"location_history":"[8,2,8,7,6,11,5,0,1,2,3,4,5,0,6,11,10]","action_history":"[1,1,0,0,0,1,1,0,0,0,0,0,0,1,0,0]","mutagen_history":"[1,1,0,0,0,1,1,0,0,0,0,0,0,1,0,0]","location_rts":"[1063,728,832,515,469,1076,1502,630,438,471,589,475,437,903,597,361]","trial_type":"fractal-mutation","trial_index":67,"time_elapsed":5082245,"internal_node_id":"0.0-5.0-28.0"},{"group":"dihedral group of order 12","fractal_assignment":["../images/wht_red.png","../images/cyn_red.png","../images/pnk_blu.png","../images/blu_wht.png","../images/org_blu.png","../images/red_prp.png","../images/grn_red.png","../images/ylw_pnk.png","../images/ylw_slt.png","../images/grn_prp.png","../images/grn_blu.png","../images/gry_blk.png"],"mutagen_generator_assignment":[0,1],"goal":7,"start":10,"action_noise":0.15,"location_history":"[10,9,8,2,8,7]","action_history":"[0,0,0,1,0]","mutagen_history":"[0,0,0,1,0]","location_rts":"[1174,448,688,829,577]","trial_type":"fractal-mutation","trial_index":68,"time_elapsed":5095546,"internal_node_id":"0.0-5.0-29.0"},{"group":"dihedral group of order 12","fractal_assignment":["../images/wht_red.png","../images/cyn_red.png","../images/pnk_blu.png","../images/blu_wht.png","../images/org_blu.png","../images/red_prp.png","../images/grn_red.png","../images/ylw_pnk.png","../images/ylw_slt.png","../images/grn_prp.png","../images/grn_blu.png","../images/gry_blk.png"],"mutagen_generator_assignment":[0,1],"goal":6,"start":7,"action_noise":0.15,"location_history":"[7,1,7,6]","action_history":"[1,0,0]","mutagen_history":"[1,0,0]","location_rts":"[1151,802,682]","trial_type":"fractal-mutation","trial_index":69,"time_elapsed":5106239,"internal_node_id":"0.0-5.0-30.0"},{"group":"dihedral group of order 12","fractal_assignment":["../images/wht_red.png","../images/cyn_red.png","../images/pnk_blu.png","../images/blu_wht.png","../images/org_blu.png","../images/red_prp.png","../images/grn_red.png","../images/ylw_pnk.png","../images/ylw_slt.png","../images/grn_prp.png","../images/grn_blu.png","../images/gry_blk.png"],"mutagen_generator_assignment":[0,1],"goal":0,"start":6,"action_noise":0.15,"location_history":"[6,11,5,11,10,4,5,0]","action_history":"[0,0,0,0,0,0,0]","mutagen_history":"[0,0,0,0,0,0,0]","location_rts":"[1372,592,465,448,419,571,526]","trial_type":"fractal-mutation","trial_index":70,"time_elapsed":5123240,"internal_node_id":"0.0-5.0-31.0"},{"group":"dihedral group of order 12","fractal_assignment":["../images/wht_red.png","../images/cyn_red.png","../images/pnk_blu.png","../images/blu_wht.png","../images/org_blu.png","../images/red_prp.png","../images/grn_red.png","../images/ylw_pnk.png","../images/ylw_slt.png","../images/grn_prp.png","../images/grn_blu.png","../images/gry_blk.png"],"mutagen_generator_assignment":[0,1],"goal":11,"start":0,"action_noise":0.15,"location_history":"[0,1,2,8,7,1,2,3,4,5,0,6,0,1,2,3,9,3,9,3,9,8,2,8,7,6,0,6,0,1,2,3,4,5,0,1,7,6,11]","action_history":"[0,0,0,0,0,0,0,0,0,0,1,1,0,0,0,0,1,1,1,1,0,0,0,0,0,0,0,1,0,0,0,0,0,0,0,1,0,0]","mutagen_history":"[0,0,0,0,0,0,0,0,0,0,1,1,0,0,0,0,1,1,1,1,0,0,0,0,0,0,0,1,0,0,0,0,0,0,0,1,0,0]","location_rts":"[1172,482,387,384,444,402,467,678,422,416,624,420,495,383,458,572,647,524,395,487,132,444,414,614,487,466,418,681,530,421,625,723,589,425,542,817,677,402]","trial_type":"fractal-mutation","trial_index":71,"time_elapsed":5198639,"internal_node_id":"0.0-5.0-32.0"},{"group":"dihedral group of order 12","fractal_assignment":["../images/wht_red.png","../images/cyn_red.png","../images/pnk_blu.png","../images/blu_wht.png","../images/org_blu.png","../images/red_prp.png","../images/grn_red.png","../images/ylw_pnk.png","../images/ylw_slt.png","../images/grn_prp.png","../images/grn_blu.png","../images/gry_blk.png"],"mutagen_generator_assignment":[0,1],"goal":9,"start":11,"action_noise":0.15,"location_history":"[11,5,0,6,0,6,11,5,11,5,11,5,11,10,4,5,11,5,0,1,7,6,11,10,9]","action_history":"[1,0,1,1,1,0,0,1,0,0,1,1,0,1,0,1,1,0,0,1,0,0,0,0]","mutagen_history":"[1,0,1,1,1,0,0,1,0,0,1,1,0,1,0,1,1,0,0,1,0,0,0,0]","location_rts":"[1266,658,548,1299,699,169,1538,535,867,626,1114,414,626,1070,646,1106,843,519,557,754,778,429,855,933]","trial_type":"fractal-mutation","trial_index":72,"time_elapsed":5256421,"internal_node_id":"0.0-5.0-33.0"},{"group":"dihedral group of order 12","fractal_assignment":["../images/wht_red.png","../images/cyn_red.png","../images/pnk_blu.png","../images/blu_wht.png","../images/org_blu.png","../images/red_prp.png","../images/grn_red.png","../images/ylw_pnk.png","../images/ylw_slt.png","../images/grn_prp.png","../images/grn_blu.png","../images/gry_blk.png"],"mutagen_generator_assignment":[0,1],"goal":5,"start":9,"action_noise":0.15,"location_history":"[9,3,9,8,7,1,2,8,7,6,11,5]","action_history":"[1,1,0,0,0,0,1,0,0,0,1]","mutagen_history":"[1,1,0,0,0,0,1,0,0,0,1]","location_rts":"[1774,948,769,776,344,430,856,526,713,504,889]","trial_type":"fractal-mutation","trial_index":73,"time_elapsed":5283817,"internal_node_id":"0.0-5.0-34.0"},{"view_history":"[{\"page_index\":0,\"viewing_time\":8078}]","rt":8080,"trial_type":"instructions","trial_index":74,"time_elapsed":5292897,"internal_node_id":"0.0-6.0"},{"rt":1353,"responses":"{\"Q0\":\"\"}","trial_type":"survey-text","trial_index":75,"time_elapsed":5295259,"internal_node_id":"0.0-7.0"}]