[{"view_history":"[{\"page_index\":0,\"viewing_time\":3371815},{\"page_index\":1,\"viewing_time\":2670}]","rt":3374486,"trial_type":"instructions","trial_index":0,"time_elapsed":3374486,"internal_node_id":"0.0-0.0"},{"view_history":"[{\"page_index\":0,\"viewing_time\":5453},{\"page_index\":1,\"viewing_time\":4384}]","rt":9837,"trial_type":"instructions","trial_index":1,"time_elapsed":3385325,"internal_node_id":"0.0-1.0"},{"group":"dicyclic group of order 12","room_assignment":["orange","red","olive","blue","grey","yellow","ivory","brown","green","cyan","purple","pink"],"door_color_assignment":["white","black"],"door_generator_assignment":[1,0],"goal":7,"start":11,"action_noise":0.15,"location_history":"[11,4,8,0,4,8,0,1,2,3,7]","action_history":"[0,0,1,1,1,1,0,0,0,1]","door_history":"[1,1,0,0,0,0,1,1,1,0]","location_rts":"[1325,200,194,280,207,373,598,275,455,637]","trial_type":"two-door-navigation","trial_index":2,"time_elapsed":3403598,"internal_node_id":"0.0-2.0-0.0"},{"group":"dicyclic group of order 12","room_assignment":["orange","red","olive","blue","grey","yellow","ivory","brown","green","cyan","purple","pink"],"door_color_assignment":["white","black"],"door_generator_assignment":[1,0],"goal":8,"start":7,"action_noise":0.15,"location_history":"[7,8]","action_history":"[0]","door_history":"[1]","location_rts":"[471]","trial_type":"two-door-navigation","trial_index":3,"time_elapsed":3408592,"internal_node_id":"0.0-2.0-1.0"},{"group":"dicyclic group of order 12","room_assignment":["orange","red","olive","blue","grey","yellow","ivory","brown","green","cyan","purple","pink"],"door_color_assignment":["white","black"],"door_generator_assignment":[1,0],"goal":4,"start":8,"action_noise":0.15,"location_history":"[8,5,10,7,8,5,9,6,10,7,8,5,9,6,11,4]","action_history":"[0,0,0,0,0,1,1,1,0,0,0,1,0,0,0]","door_history":"[1,1,1,1,1,0,0,0,1,1,1,0,1,1,1]","location_rts":"[374,599,450,1923,321,403,311,365,287,321,301,495,541,669,1486]","trial_type":"two-door-navigation","trial_index":4,"time_elapsed":3436294,"internal_node_id":"0.0-2.0-2.0"},{"group":"dicyclic group of order 12","room_assignment":["orange","red","olive","blue","grey","yellow","ivory","brown","green","cyan","purple","pink"],"door_color_assignment":["white","black"],"door_generator_assignment":[1,0],"goal":5,"start":4,"action_noise":0.15,"location_history":"[4,9,6,11,3,7,11,3,7,11,3,7,11,3,7,8,0,1,2,3,0,4,8,0,4,8,0,1,5]","action_history":"[0,0,1,1,1,1,1,1,0,1,1,1,1,1,0,0,0,0,0,1,1,1,0,1,0,1,0,1]","door_history":"[1,1,0,0,0,0,0,0,1,0,0,0,0,0,1,1,1,1,1,0,0,0,1,0,1,0,1,0]","location_rts":"[1591,458,1120,751,407,333,230,296,372,592,1066,378,302,253,305,161,218,70,304,289,283,120,764,120,239,280,219,324]","trial_type":"two-door-navigation","trial_index":5,"time_elapsed":3480362,"internal_node_id":"0.0-2.0-3.0"},{"group":"dicyclic group of order 12","room_assignment":["orange","red","olive","blue","grey","yellow","ivory","brown","green","cyan","purple","pink"],"door_color_assignment":["white","black"],"door_generator_assignment":[1,0],"goal":10,"start":5,"action_noise":0.15,"location_history":"[5,10]","action_history":"[0]","door_history":"[1]","location_rts":"[602]","trial_type":"two-door-navigation","trial_index":6,"time_elapsed":3485505,"internal_node_id":"0.0-2.0-4.0"},{"group":"dicyclic group of order 12","room_assignment":["orange","red","olive","blue","grey","yellow","ivory","brown","green","cyan","purple","pink"],"door_color_assignment":["white","black"],"door_generator_assignment":[1,0],"goal":1,"start":10,"action_noise":0.15,"location_history":"[10,7,8,5,10,7,11,3,0,4,9,6,10,7,11,4,8,0,1]","action_history":"[0,1,0,1,0,1,1,0,1,0,0,0,0,1,0,1,1,1]","door_history":"[1,0,1,0,1,0,0,1,0,1,1,1,1,0,1,0,0,0]","location_rts":"[620,302,455,264,138,277,302,294,248,229,213,304,339,263,434,975,288,337]","trial_type":"two-door-navigation","trial_index":7,"time_elapsed":3513664,"internal_node_id":"0.0-2.0-5.0"},{"group":"dicyclic group of order 12","room_assignment":["orange","red","olive","blue","grey","yellow","ivory","brown","green","cyan","purple","pink"],"door_color_assignment":["white","black"],"door_generator_assignment":[1,0],"goal":6,"start":1,"action_noise":0.15,"location_history":"[1,5,9,1,2,6]","action_history":"[1,1,1,0,1]","door_history":"[0,0,0,1,0]","location_rts":"[349,297,276,389,545]","trial_type":"two-door-navigation","trial_index":8,"time_elapsed":3524213,"internal_node_id":"0.0-2.0-6.0"},{"group":"dicyclic group of order 12","room_assignment":["orange","red","olive","blue","grey","yellow","ivory","brown","green","cyan","purple","pink"],"door_color_assignment":["white","black"],"door_generator_assignment":[1,0],"goal":9,"start":6,"action_noise":0.15,"location_history":"[6,10,2,3,0,1,5,10,2,6,10,7,11,4,9]","action_history":"[1,1,1,0,0,1,0,1,1,1,0,1,0,0]","door_history":"[0,0,0,1,1,0,1,0,0,0,1,0,1,1]","location_rts":"[496,276,249,384,253,430,938,293,2493,829,569,559,814,902]","trial_type":"two-door-navigation","trial_index":9,"time_elapsed":3551592,"internal_node_id":"0.0-2.0-7.0"},{"group":"dicyclic group of order 12","room_assignment":["orange","red","olive","blue","grey","yellow","ivory","brown","green","cyan","purple","pink"],"door_color_assignment":["white","black"],"door_generator_assignment":[1,0],"goal":2,"start":9,"action_noise":0.15,"location_history":"[9,6,10,2]","action_history":"[0,1,1]","door_history":"[1,0,0]","location_rts":"[1277,28,193]","trial_type":"two-door-navigation","trial_index":10,"time_elapsed":3559688,"internal_node_id":"0.0-2.0-8.0"},{"group":"dicyclic group of order 12","room_assignment":["orange","red","olive","blue","grey","yellow","ivory","brown","green","cyan","purple","pink"],"door_color_assignment":["white","black"],"door_generator_assignment":[1,0],"goal":0,"start":2,"action_noise":0.15,"location_history":"[2,6,10,7,11,4,8,0]","action_history":"[1,1,0,1,1,1,1]","door_history":"[0,0,1,0,0,0,0]","location_rts":"[628,95,229,292,724,405,1726]","trial_type":"two-door-navigation","trial_index":11,"time_elapsed":3574467,"internal_node_id":"0.0-2.0-9.0"},{"group":"dicyclic group of order 12","room_assignment":["orange","red","olive","blue","grey","yellow","ivory","brown","green","cyan","purple","pink"],"door_color_assignment":["white","black"],"door_generator_assignment":[1,0],"goal":3,"start":0,"action_noise":0.15,"location_history":"[0,1,2,3]","action_history":"[0,0,0]","door_history":"[1,1,1]","location_rts":"[387,6870,358]","trial_type":"two-door-navigation","trial_index":12,"time_elapsed":3588632,"internal_node_id":"0.0-2.0-10.0"},{"group":"dicyclic group of order 12","room_assignment":["orange","red","olive","blue","grey","yellow","ivory","brown","green","cyan","purple","pink"],"door_color_assignment":["white","black"],"door_generator_assignment":[1,0],"goal":10,"start":3,"action_noise":0.15,"location_history":"[3,0,1,2,3,0,1,2,6,10]","action_history":"[0,0,0,0,0,0,0,1,1]","door_history":"[1,1,1,1,1,1,1,0,0]","location_rts":"[1179,120,94,247,277,418,304,130,232]","trial_type":"two-door-navigation","trial_index":13,"time_elapsed":3604284,"internal_node_id":"0.0-2.0-11.0"},{"group":"dicyclic group of order 12","room_assignment":["orange","red","olive","blue","grey","yellow","ivory","brown","green","cyan","purple","pink"],"door_color_assignment":["white","black"],"door_generator_assignment":[1,0],"goal":8,"start":10,"action_noise":0.15,"location_history":"[10,2,3,0,1,2,3,0,4,8]","action_history":"[1,0,0,0,0,0,0,1,1]","door_history":"[0,1,1,1,1,1,1,0,0]","location_rts":"[1248,218,172,320,215,580,1057,1154,326]","trial_type":"two-door-navigation","trial_index":14,"time_elapsed":3622372,"internal_node_id":"0.0-2.0-12.0"},{"group":"dicyclic group of order 12","room_assignment":["orange","red","olive","blue","grey","yellow","ivory","brown","green","cyan","purple","pink"],"door_color_assignment":["white","black"],"door_generator_assignment":[1,0],"goal":4,"start":8,"action_noise":0.15,"location_history":"[8,5,10,7,11,4]","action_history":"[0,0,0,1,0]","door_history":"[1,1,1,0,1]","location_rts":"[415,533,730,421,938]","trial_type":"two-door-navigation","trial_index":15,"time_elapsed":3634066,"internal_node_id":"0.0-2.0-13.0"},{"group":"dicyclic group of order 12","room_assignment":["orange","red","olive","blue","grey","yellow","ivory","brown","green","cyan","purple","pink"],"door_color_assignment":["white","black"],"door_generator_assignment":[1,0],"goal":0,"start":4,"action_noise":0.15,"location_history":"[4,9,6,10,2,3,7,11,4,9,6,11,3,0]","action_history":"[0,0,1,1,0,1,1,1,0,0,0,1,0]","door_history":"[1,1,0,0,1,0,0,0,1,1,1,0,1]","location_rts":"[545,352,87,196,319,366,149,295,299,302,3500,655,409]","trial_type":"two-door-navigation","trial_index":16,"time_elapsed":3658292,"internal_node_id":"0.0-2.0-14.0"},{"group":"dicyclic group of order 12","room_assignment":["orange","red","olive","blue","grey","yellow","ivory","brown","green","cyan","purple","pink"],"door_color_assignment":["white","black"],"door_generator_assignment":[1,0],"goal":11,"start":0,"action_noise":0.15,"location_history":"[0,1,5,10,2,3,0,4,9,6,11]","action_history":"[0,0,0,1,1,0,1,0,1,0]","door_history":"[1,1,1,0,0,1,0,1,0,1]","location_rts":"[1039,854,326,552,200,234,534,313,174,668]","trial_type":"two-door-navigation","trial_index":17,"time_elapsed":3676958,"internal_node_id":"0.0-2.0-15.0"},{"group":"dicyclic group of order 12","room_assignment":["orange","red","olive","blue","grey","yellow","ivory","brown","green","cyan","purple","pink"],"door_color_assignment":["white","black"],"door_generator_assignment":[1,0],"goal":2,"start":11,"action_noise":0.15,"location_history":"[11,3,7,8,0,1,5,10,2]","action_history":"[0,1,0,1,0,1,0,1]","door_history":"[1,0,1,0,1,0,1,0]","location_rts":"[174448,767,73,160,553,288,100,165]","trial_type":"two-door-navigation","trial_index":18,"time_elapsed":3865492,"internal_node_id":"0.0-2.0-16.0"},{"group":"dicyclic group of order 12","room_assignment":["orange","red","olive","blue","grey","yellow","ivory","brown","green","cyan","purple","pink"],"door_color_assignment":["white","black"],"door_generator_assignment":[1,0],"goal":7,"start":2,"action_noise":0.15,"location_history":"[2,3,0,4,9,1,2,6,11,4,8,0,1,2,3,0,1,5,9,1,5,9,1,5,9,1,2,6,11,4,9,6,10,7]","action_history":"[0,0,1,0,1,0,1,0,1,0,1,0,0,0,0,0,1,1,1,1,1,1,1,1,1,1,1,1,0,0,0,0,0]","door_history":"[1,1,0,1,0,1,0,1,0,1,0,1,1,1,1,1,0,0,0,0,0,0,0,0,0,0,0,0,1,1,1,1,1]","location_rts":"[455,43,94,571,1411,385,414,84,274,692,535,733,188,186,416,1829,1231,190,909,4183,106,255,295,702,382,45200,309,464,3739,344,1366,310608,397]","trial_type":"two-door-navigation","trial_index":19,"time_elapsed":4282300,"internal_node_id":"0.0-2.0-17.0"},{"group":"dicyclic group of order 12","room_assignment":["orange","red","olive","blue","grey","yellow","ivory","brown","green","cyan","purple","pink"],"door_color_assignment":["white","black"],"door_generator_assignment":[1,0],"goal":5,"start":7,"action_noise":0.15,"location_history":"[7,8,5]","action_history":"[0,0]","door_history":"[1,1]","location_rts":"[2348,3453]","trial_type":"two-door-navigation","trial_index":20,"time_elapsed":4293633,"internal_node_id":"0.0-2.0-18.0"},{"group":"dicyclic group of order 12","room_assignment":["orange","red","olive","blue","grey","yellow","ivory","brown","green","cyan","purple","pink"],"door_color_assignment":["white","black"],"door_generator_assignment":[1,0],"goal":6,"start":5,"action_noise":0.15,"location_history":"[5,10,2,3,0,1,5,9,6]","action_history":"[0,0,0,0,0,1,1,0]","door_history":"[1,1,1,1,1,0,0,1]","location_rts":"[553,397,805,821,505,236,1537,639]","trial_type":"two-door-navigation","trial_index":21,"time_elapsed":4310812,"internal_node_id":"0.0-2.0-19.0"},{"group":"dicyclic group of order 12","room_assignment":["orange","red","olive","blue","grey","yellow","ivory","brown","green","cyan","purple","pink"],"door_color_assignment":["white","black"],"door_generator_assignment":[1,0],"goal":3,"start":6,"action_noise":0.15,"location_history":"[6,11,4,9,1,5,9,6,10,7,8,0,4,8,0,4,9,1,2,6,10,7,8,5,10,7,8,0,4,9,1,5,9,6,11,3]","action_history":"[0,0,0,1,0,1,0,1,0,0,1,1,1,1,1,0,1,0,1,0,0,0,0,0,0,0,1,1,1,1,1,1,0,0,0]","door_history":"[1,1,1,0,1,0,1,0,1,1,0,0,0,0,0,1,0,1,0,1,1,1,1,1,1,1,0,0,0,0,0,0,1,1,1]","location_rts":"[944,485,474,856,985,793,1309,744,1407,1003,8926,134,430,136,204,280,460,323,290,202,56,108,69,76,196,582,1632,223,63,430,359,2366,86,552,468]","trial_type":"two-door-navigation","trial_index":22,"time_elapsed":4377884,"internal_node_id":"0.0-2.0-20.0"},{"group":"dicyclic group of order 12","room_assignment":["orange","red","olive","blue","grey","yellow","ivory","brown","green","cyan","purple","pink"],"door_color_assignment":["white","black"],"door_generator_assignment":[1,0],"goal":1,"start":3,"action_noise":0.15,"location_history":"[3,0,1]","action_history":"[0,0]","door_history":"[1,1]","location_rts":"[719,3774]","trial_type":"two-door-navigation","trial_index":23,"time_elapsed":4387919,"internal_node_id":"0.0-2.0-21.0"},{"group":"dicyclic group of order 12","room_assignment":["orange","red","olive","blue","grey","yellow","ivory","brown","green","cyan","purple","pink"],"door_color_assignment":["white","black"],"door_generator_assignment":[1,0],"goal":9,"start":1,"action_noise":0.15,"location_history":"[1,2,6,11,3,0,4,8,0,1,5,9]","action_history":"[0,1,0,1,0,1,1,1,0,1,1]","door_history":"[1,0,1,0,1,0,0,0,1,0,0]","location_rts":"[613,959,1105,534,715,574,321,945,261,892,1326]","trial_type":"two-door-navigation","trial_index":24,"time_elapsed":4410908,"internal_node_id":"0.0-2.0-22.0"},{"group":"dicyclic group of order 12","room_assignment":["orange","red","olive","blue","grey","yellow","ivory","brown","green","cyan","purple","pink"],"door_color_assignment":["white","black"],"door_generator_assignment":[1,0],"goal":3,"start":9,"action_noise":0.15,"location_history":"[9,6,11,4,9,1,5,9,6,11,4,9,1,2,6,10,2,6,10,7,11,4,8,5,9,6,10,2,6,11,3]","action_history":"[0,0,0,0,0,1,1,0,0,0,1,1,0,0,1,1,1,1,0,1,0,1,0,1,0,1,0,1,0,1]","door_history":"[1,1,1,1,1,0,0,1,1,1,0,0,1,1,0,0,0,0,1,0,1,0,1,0,1,0,1,0,1,0]","location_rts":"[711,167,248,248,452,25,245,230,303,101,361,159,946,152,130,303,380,522,117,184,528,295,237,977,630,430,88,240,116,214]","trial_type":"two-door-navigation","trial_index":25,"time_elapsed":4454985,"internal_node_id":"0.0-2.0-23.0"},{"group":"dicyclic group of order 12","room_assignment":["orange","red","olive","blue","grey","yellow","ivory","brown","green","cyan","purple","pink"],"door_color_assignment":["white","black"],"door_generator_assignment":[1,0],"goal":4,"start":3,"action_noise":0.15,"location_history":"[3,7,11,3,7,8,5,9,6,10,7,8,0,4]","action_history":"[1,1,1,1,1,0,1,0,0,0,0,0,1]","door_history":"[0,0,0,0,0,1,0,1,1,1,1,1,0]","location_rts":"[971,543,438,515,304,118,181,222,238,134,791,52,186]","trial_type":"two-door-navigation","trial_index":26,"time_elapsed":4476594,"internal_node_id":"0.0-2.0-24.0"},{"group":"dicyclic group of order 12","room_assignment":["orange","red","olive","blue","grey","yellow","ivory","brown","green","cyan","purple","pink"],"door_color_assignment":["white","black"],"door_generator_assignment":[1,0],"goal":2,"start":4,"action_noise":0.15,"location_history":"[4,9,6,11,4,9,6,10,2]","action_history":"[0,0,0,0,0,0,1,1]","door_history":"[1,1,1,1,1,1,0,0]","location_rts":"[305,529,371,1888,139,367,143,343]","trial_type":"two-door-navigation","trial_index":27,"time_elapsed":4492346,"internal_node_id":"0.0-2.0-25.0"},{"group":"dicyclic group of order 12","room_assignment":["orange","red","olive","blue","grey","yellow","ivory","brown","green","cyan","purple","pink"],"door_color_assignment":["white","black"],"door_generator_assignment":[1,0],"goal":1,"start":2,"action_noise":0.15,"location_history":"[2,3,0,1]","action_history":"[0,0,0]","door_history":"[1,1,1]","location_rts":"[794,618,223]","trial_type":"two-door-navigation","trial_index":28,"time_elapsed":4500588,"internal_node_id":"0.0-2.0-26.0"},{"group":"dicyclic group of order 12","room_assignment":["orange","red","olive","blue","grey","yellow","ivory","brown","green","cyan","purple","pink"],"door_color_assignment":["white","black"],"door_generator_assignment":[1,0],"goal":8,"start":1,"action_noise":0.15,"location_history":"[1,5,10,7,11,3,0,4,9,1,5,10,7,11,4,8]","action_history":"[1,0,1,1,0,0,0,1,0,1,0,0,1,0,1]","door_history":"[0,1,0,0,1,1,1,0,1,0,1,1,0,1,0]","location_rts":"[817,365,88,276,410,822,2382,400,516,4791,675,781,1121,247,326]","trial_type":"two-door-navigation","trial_index":29,"time_elapsed":4533486,"internal_node_id":"0.0-2.0-27.0"},{"group":"dicyclic group of order 12","room_assignment":["orange","red","olive","blue","grey","yellow","ivory","brown","green","cyan","purple","pink"],"door_color_assignment":["white","black"],"door_generator_assignment":[1,0],"goal":10,"start":8,"action_noise":0.15,"location_history":"[8,5,10]","action_history":"[0,0]","door_history":"[1,1]","location_rts":"[589,260]","trial_type":"two-door-navigation","trial_index":30,"time_elapsed":4539881,"internal_node_id":"0.0-2.0-28.0"},{"group":"dicyclic group of order 12","room_assignment":["orange","red","olive","blue","grey","yellow","ivory","brown","green","cyan","purple","pink"],"door_color_assignment":["white","black"],"door_generator_assignment":[1,0],"goal":7,"start":10,"action_noise":0.15,"location_history":"[10,7]","action_history":"[0]","door_history":"[1]","location_rts":"[1339]","trial_type":"two-door-navigation","trial_index":31,"time_elapsed":4545761,"internal_node_id":"0.0-2.0-29.0"},{"group":"dicyclic group of order 12","room_assignment":["orange","red","olive","blue","grey","yellow","ivory","brown","green","cyan","purple","pink"],"door_color_assignment":["white","black"],"door_generator_assignment":[1,0],"goal":6,"start":7,"action_noise":0.15,"location_history":"[7,11,3,0,1,2,3,7,8,5,10,2,6]","action_history":"[1,1,1,0,0,0,1,0,0,1,1,1]","door_history":"[0,0,0,1,1,1,0,1,1,0,0,0]","location_rts":"[521,230,249,211,279,237,202,509,402,282,253,380]","trial_type":"two-door-navigation","trial_index":32,"time_elapsed":4565365,"internal_node_id":"0.0-2.0-30.0"},{"group":"dicyclic group of order 12","room_assignment":["orange","red","olive","blue","grey","yellow","ivory","brown","green","cyan","purple","pink"],"door_color_assignment":["white","black"],"door_generator_assignment":[1,0],"goal":0,"start":6,"action_noise":0.15,"location_history":"[6,11,4,9,1,5,10,2,3,7,8,0]","action_history":"[0,0,0,1,1,0,1,0,1,0,1]","door_history":"[1,1,1,0,0,1,0,1,0,1,0]","location_rts":"[1255,1363,149,142,4,87,1040,524,351,284,334]","trial_type":"two-door-navigation","trial_index":33,"time_elapsed":4585739,"internal_node_id":"0.0-2.0-31.0"},{"group":"dicyclic group of order 12","room_assignment":["orange","red","olive","blue","grey","yellow","ivory","brown","green","cyan","purple","pink"],"door_color_assignment":["white","black"],"door_generator_assignment":[1,0],"goal":11,"start":0,"action_noise":0.15,"location_history":"[0,1,2,6,11]","action_history":"[0,0,0,0]","door_history":"[1,1,1,1]","location_rts":"[513,359,2065,285]","trial_type":"two-door-navigation","trial_index":34,"time_elapsed":4596562,"internal_node_id":"0.0-2.0-32.0"},{"group":"dicyclic group of order 12","room_assignment":["orange","red","olive","blue","grey","yellow","ivory","brown","green","cyan","purple","pink"],"door_color_assignment":["white","black"],"door_generator_assignment":[1,0],"goal":9,"start":11,"action_noise":0.15,"location_history":"[11,4,9]","action_history":"[0,0]","door_history":"[1,1]","location_rts":"[3316,773]","trial_type":"two-door-navigation","trial_index":35,"time_elapsed":4606204,"internal_node_id":"0.0-2.0-33.0"},{"group":"dicyclic group of order 12","room_assignment":["orange","red","olive","blue","grey","yellow","ivory","brown","green","cyan","purple","pink"],"door_color_assignment":["white","black"],"door_generator_assignment":[1,0],"goal":5,"start":9,"action_noise":0.15,"location_history":"[9,6,10,7,8,5]","action_history":"[1,1,0,0,0]","door_history":"[0,0,1,1,1]","location_rts":"[1440,231,230,376,283]","trial_type":"two-door-navigation","trial_index":36,"time_elapsed":4617492,"internal_node_id":"0.0-2.0-34.0"},{"view_history":"[{\"page_index\":0,\"viewing_time\":5329}]","rt":5330,"trial_type":"instructions","trial_index":37,"time_elapsed":4623822,"internal_node_id":"0.0-3.0"},{"view_history":"[{\"page_index\":0,\"viewing_time\":2711},{\"page_index\":1,\"viewing_time\":5648}]","rt":8359,"trial_type":"instructions","trial_index":38,"time_elapsed":4633181,"internal_node_id":"0.0-4.0"},{"group":"dicyclic group of order 12","fractal_assignment":["../images/gry_blk.png","../images/grn_prp.png","../images/grn_red.png","../images/pnk_blu.png","../images/ylw_pnk.png","../images/ylw_slt.png","../images/org_blu.png","../images/cyn_red.png","../images/red_prp.png","../images/grn_blu.png","../images/blu_wht.png","../images/wht_red.png"],"mutagen_generator_assignment":[0,1],"goal":7,"start":11,"action_noise":0.15,"location_history":"[11,4,8,0,4,8,5,9,1,5,9,6,10,2,6,10,7]","action_history":"[0,0,1,1,1,1,1,1,1,0,0,1,1,1,1,0]","mutagen_history":"[0,0,1,1,1,1,1,1,1,0,0,1,1,1,1,0]","location_rts":"[7819,526,442,546,494,518,1934,1199,917,1303,2275,1629,858,498,598,656]","trial_type":"fractal-mutation","trial_index":39,"time_elapsed":4676880,"internal_node_id":"0.0-5.0-0.0"},{"group":"dicyclic group of order 12","fractal_assignment":["../images/gry_blk.png","../images/grn_prp.png","../images/grn_red.png","../images/pnk_blu.png","../images/ylw_pnk.png","../images/ylw_slt.png","../images/org_blu.png","../images/cyn_red.png","../images/red_prp.png","../images/grn_blu.png","../images/blu_wht.png","../images/wht_red.png"],"mutagen_generator_assignment":[0,1],"goal":8,"start":7,"action_noise":0.15,"location_history":"[7,8]","action_history":"[0]","mutagen_history":"[0]","location_rts":"[8260]","trial_type":"fractal-mutation","trial_index":40,"time_elapsed":4689675,"internal_node_id":"0.0-5.0-1.0"},{"group":"dicyclic group of order 12","fractal_assignment":["../images/gry_blk.png","../images/grn_prp.png","../images/grn_red.png","../images/pnk_blu.png","../images/ylw_pnk.png","../images/ylw_slt.png","../images/org_blu.png","../images/cyn_red.png","../images/red_prp.png","../images/grn_blu.png","../images/blu_wht.png","../images/wht_red.png"],"mutagen_generator_assignment":[0,1],"goal":4,"start":8,"action_noise":0.15,"location_history":"[8,0,1,2,3,7,8,5,10,7,8,5,9,1,5,10,2,6,11,3,7,8,5,10,7,8,5,9,1,5,9,1,5,9,6,11,4]","action_history":"[0,0,0,1,1,1,0,0,0,0,0,1,1,1,0,1,1,1,1,1,0,0,1,0,0,0,1,1,1,1,1,1,1,1,0,0]","mutagen_history":"[0,0,0,1,1,1,0,0,0,0,0,1,1,1,0,1,1,1,1,1,0,0,1,0,0,0,1,1,1,1,1,1,1,1,0,0]","location_rts":"[1281,722,519,3023,559,2755,1364,847,462,521,1059,4015,11271,608,739,926,1134,488,525,980,576,1652,2061,1549,4865,922,2182,2498,1383,1932,804,700,643,639,609,1521]","trial_type":"fractal-mutation","trial_index":41,"time_elapsed":4791935,"internal_node_id":"0.0-5.0-2.0"},{"group":"dicyclic group of order 12","fractal_assignment":["../images/gry_blk.png","../images/grn_prp.png","../images/grn_red.png","../images/pnk_blu.png","../images/ylw_pnk.png","../images/ylw_slt.png","../images/org_blu.png","../images/cyn_red.png","../images/red_prp.png","../images/grn_blu.png","../images/blu_wht.png","../images/wht_red.png"],"mutagen_generator_assignment":[0,1],"goal":5,"start":4,"action_noise":0.15,"location_history":"[4,9,6,11,4,9,1,5]","action_history":"[0,0,0,0,0,1,1]","mutagen_history":"[0,0,0,0,0,1,1]","location_rts":"[798,669,486,219,520,1609,1702]","trial_type":"fractal-mutation","trial_index":42,"time_elapsed":4808907,"internal_node_id":"0.0-5.0-3.0"},{"group":"dicyclic group of order 12","fractal_assignment":["../images/gry_blk.png","../images/grn_prp.png","../images/grn_red.png","../images/pnk_blu.png","../images/ylw_pnk.png","../images/ylw_slt.png","../images/org_blu.png","../images/cyn_red.png","../images/red_prp.png","../images/grn_blu.png","../images/blu_wht.png","../images/wht_red.png"],"mutagen_generator_assignment":[0,1],"goal":10,"start":5,"action_noise":0.15,"location_history":"[5,9,1,5,9,6,10]","action_history":"[1,1,1,1,1,0]","mutagen_history":"[1,1,1,1,1,0]","location_rts":"[1642,546,511,8,867,2923]","trial_type":"fractal-mutation","trial_index":43,"time_elapsed":4825717,"internal_node_id":"0.0-5.0-4.0"},{"group":"dicyclic group of order 12","fractal_assignment":["../images/gry_blk.png","../images/grn_prp.png","../images/grn_red.png","../images/pnk_blu.png","../images/ylw_pnk.png","../images/ylw_slt.png","../images/org_blu.png","../images/cyn_red.png","../images/red_prp.png","../images/grn_blu.png","../images/blu_wht.png","../images/wht_red.png"],"mutagen_generator_assignment":[0,1],"goal":1,"start":10,"action_noise":0.15,"location_history":"[10,2,6,10,2,3,0,1]","action_history":"[1,1,1,1,0,0,0]","mutagen_history":"[1,1,1,1,0,0,0]","location_rts":"[2383,1359,1272,805,2599,921,595]","trial_type":"fractal-mutation","trial_index":44,"time_elapsed":4846981,"internal_node_id":"0.0-5.0-5.0"},{"group":"dicyclic group of order 12","fractal_assignment":["../images/gry_blk.png","../images/grn_prp.png","../images/grn_red.png","../images/pnk_blu.png","../images/ylw_pnk.png","../images/ylw_slt.png","../images/org_blu.png","../images/cyn_red.png","../images/red_prp.png","../images/grn_blu.png","../images/blu_wht.png","../images/wht_red.png"],"mutagen_generator_assignment":[0,1],"goal":6,"start":1,"action_noise":0.15,"location_history":"[1,2,6]","action_history":"[0,1]","mutagen_history":"[0,1]","location_rts":"[2128,858]","trial_type":"fractal-mutation","trial_index":45,"time_elapsed":4855665,"internal_node_id":"0.0-5.0-6.0"},{"group":"dicyclic group of order 12","fractal_assignment":["../images/gry_blk.png","../images/grn_prp.png","../images/grn_red.png","../images/pnk_blu.png","../images/ylw_pnk.png","../images/ylw_slt.png","../images/org_blu.png","../images/cyn_red.png","../images/red_prp.png","../images/grn_blu.png","../images/blu_wht.png","../images/wht_red.png"],"mutagen_generator_assignment":[0,1],"goal":9,"start":6,"action_noise":0.15,"location_history":"[6,11,3,7,11,3,0,1,2,3,0,4,8,0,4,8,0,1,2,3,7,8,0,1,5,9]","action_history":"[0,1,1,1,1,0,0,0,0,0,1,1,1,1,1,1,0,0,0,0,0,1,1,1,1]","mutagen_history":"[0,1,1,1,1,0,0,0,0,0,1,1,1,1,1,1,0,0,0,0,0,1,1,1,1]","location_rts":"[4307,3555,1363,870,2234,1563,1323,1648,4230,1233,1898,877,562,575,1127,1147,456,597,713,829,1087,1145,1215,1007,1091]","trial_type":"fractal-mutation","trial_index":46,"time_elapsed":4923791,"internal_node_id":"0.0-5.0-7.0"},{"group":"dicyclic group of order 12","fractal_assignment":["../images/gry_blk.png","../images/grn_prp.png","../images/grn_red.png","../images/pnk_blu.png","../images/ylw_pnk.png","../images/ylw_slt.png","../images/org_blu.png","../images/cyn_red.png","../images/red_prp.png","../images/grn_blu.png","../images/blu_wht.png","../images/wht_red.png"],"mutagen_generator_assignment":[0,1],"goal":2,"start":9,"action_noise":0.15,"location_history":"[9,1,5,10,7,11,3,0,1,2]","action_history":"[0,1,1,1,1,1,0,0,0]","mutagen_history":"[0,1,1,1,1,1,0,0,0]","location_rts":"[9661,5079,507,6,244,634,653,606,730]","trial_type":"fractal-mutation","trial_index":47,"time_elapsed":4955411,"internal_node_id":"0.0-5.0-8.0"},{"group":"dicyclic group of order 12","fractal_assignment":["../images/gry_blk.png","../images/grn_prp.png","../images/grn_red.png","../images/pnk_blu.png","../images/ylw_pnk.png","../images/ylw_slt.png","../images/org_blu.png","../images/cyn_red.png","../images/red_prp.png","../images/grn_blu.png","../images/blu_wht.png","../images/wht_red.png"],"mutagen_generator_assignment":[0,1],"goal":0,"start":2,"action_noise":0.15,"location_history":"[2,3,7,11,3,7,11,4,8,5,10,7,8,0]","action_history":"[0,1,1,1,1,1,0,0,0,0,0,0,1]","mutagen_history":"[0,1,1,1,1,1,0,0,0,0,0,0,1]","location_rts":"[2610,2741,1125,743,4000,14167,820,832,595,783,688,786,604]","trial_type":"fractal-mutation","trial_index":48,"time_elapsed":5003893,"internal_node_id":"0.0-5.0-9.0"},{"group":"dicyclic group of order 12","fractal_assignment":["../images/gry_blk.png","../images/grn_prp.png","../images/grn_red.png","../images/pnk_blu.png","../images/ylw_pnk.png","../images/ylw_slt.png","../images/org_blu.png","../images/cyn_red.png","../images/red_prp.png","../images/grn_blu.png","../images/blu_wht.png","../images/wht_red.png"],"mutagen_generator_assignment":[0,1],"goal":3,"start":0,"action_noise":0.15,"location_history":"[0,4,9,6,11,4,9,1,5,9,1,5,9,6,11,3]","action_history":"[1,0,0,0,0,0,1,1,1,1,1,1,0,0,0]","mutagen_history":"[1,0,0,0,0,0,1,1,1,1,1,1,0,0,0]","location_rts":"[2143,1317,790,872,1157,658,2388,1846,1295,1492,1206,1190,1772,4901,3909]","trial_type":"fractal-mutation","trial_index":49,"time_elapsed":5050997,"internal_node_id":"0.0-5.0-10.0"},{"group":"dicyclic group of order 12","fractal_assignment":["../images/gry_blk.png","../images/grn_prp.png","../images/grn_red.png","../images/pnk_blu.png","../images/ylw_pnk.png","../images/ylw_slt.png","../images/org_blu.png","../images/cyn_red.png","../images/red_prp.png","../images/grn_blu.png","../images/blu_wht.png","../images/wht_red.png"],"mutagen_generator_assignment":[0,1],"goal":10,"start":3,"action_noise":0.15,"location_history":"[3,0,1,2,3,0,1,5,9,1,5,9,6,11,3,0,1,5,10]","action_history":"[0,1,0,0,0,0,0,1,1,1,1,1,1,1,0,0,0,0]","mutagen_history":"[0,1,0,0,0,0,0,1,1,1,1,1,1,1,0,0,0,0]","location_rts":"[4323,1861,2893,767,1403,779,1059,2731,1772,2405,2486,1826,1147,1111,1024,1065,3303,4034]","trial_type":"fractal-mutation","trial_index":50,"time_elapsed":5110559,"internal_node_id":"0.0-5.0-11.0"},{"group":"dicyclic group of order 12","fractal_assignment":["../images/gry_blk.png","../images/grn_prp.png","../images/grn_red.png","../images/pnk_blu.png","../images/ylw_pnk.png","../images/ylw_slt.png","../images/org_blu.png","../images/cyn_red.png","../images/red_prp.png","../images/grn_blu.png","../images/blu_wht.png","../images/wht_red.png"],"mutagen_generator_assignment":[0,1],"goal":8,"start":10,"action_noise":0.15,"location_history":"[10,2,3,7,11,3,7,8]","action_history":"[1,0,0,0,1,1,1]","mutagen_history":"[1,0,0,0,1,1,1]","location_rts":"[2717,4394,658,9559,1572,1218,488]","trial_type":"fractal-mutation","trial_index":51,"time_elapsed":5142483,"internal_node_id":"0.0-5.0-12.0"},{"group":"dicyclic group of order 12","fractal_assignment":["../images/gry_blk.png","../images/grn_prp.png","../images/grn_red.png","../images/pnk_blu.png","../images/ylw_pnk.png","../images/ylw_slt.png","../images/org_blu.png","../images/cyn_red.png","../images/red_prp.png","../images/grn_blu.png","../images/blu_wht.png","../images/wht_red.png"],"mutagen_generator_assignment":[0,1],"goal":4,"start":8,"action_noise":0.15,"location_history":"[8,5,9,1,2,3,0,4]","action_history":"[0,1,1,0,0,0,1]","mutagen_history":"[0,1,1,0,0,0,1]","location_rts":"[3614,1177,2035,1857,2873,4261,2185]","trial_type":"fractal-mutation","trial_index":52,"time_elapsed":5171769,"internal_node_id":"0.0-5.0-13.0"},{"group":"dicyclic group of order 12","fractal_assignment":["../images/gry_blk.png","../images/grn_prp.png","../images/grn_red.png","../images/pnk_blu.png","../images/ylw_pnk.png","../images/ylw_slt.png","../images/org_blu.png","../images/cyn_red.png","../images/red_prp.png","../images/grn_blu.png","../images/blu_wht.png","../images/wht_red.png"],"mutagen_generator_assignment":[0,1],"goal":0,"start":4,"action_noise":0.15,"location_history":"[4,8,5,10,2,3,7,11,3,0]","action_history":"[1,0,0,0,0,1,1,1,1]","mutagen_history":"[1,0,0,0,0,1,1,1,1]","location_rts":"[1219,1556,3459,2987,5044,891,502,4724,649]","trial_type":"fractal-mutation","trial_index":53,"time_elapsed":5206382,"internal_node_id":"0.0-5.0-14.0"},{"group":"dicyclic group of order 12","fractal_assignment":["../images/gry_blk.png","../images/grn_prp.png","../images/grn_red.png","../images/pnk_blu.png","../images/ylw_pnk.png","../images/ylw_slt.png","../images/org_blu.png","../images/cyn_red.png","../images/red_prp.png","../images/grn_blu.png","../images/blu_wht.png","../images/wht_red.png"],"mutagen_generator_assignment":[0,1],"goal":11,"start":0,"action_noise":0.15,"location_history":"[0,1,5,9,1,2,6,11]","action_history":"[0,1,1,1,1,1,0]","mutagen_history":"[0,1,1,1,1,1,0]","location_rts":"[4645,776,1084,538,300,890,766]","trial_type":"fractal-mutation","trial_index":54,"time_elapsed":5226754,"internal_node_id":"0.0-5.0-15.0"},{"group":"dicyclic group of order 12","fractal_assignment":["../images/gry_blk.png","../images/grn_prp.png","../images/grn_red.png","../images/pnk_blu.png","../images/ylw_pnk.png","../images/ylw_slt.png","../images/org_blu.png","../images/cyn_red.png","../images/red_prp.png","../images/grn_blu.png","../images/blu_wht.png","../images/wht_red.png"],"mutagen_generator_assignment":[0,1],"goal":2,"start":11,"action_noise":0.15,"location_history":"[11,4,8,5,9,1,2]","action_history":"[0,1,1,1,1,0]","mutagen_history":"[0,1,1,1,1,0]","location_rts":"[2098,3471,1262,1189,1644,7622]","trial_type":"fractal-mutation","trial_index":55,"time_elapsed":5254276,"internal_node_id":"0.0-5.0-16.0"},{"group":"dicyclic group of order 12","fractal_assignment":["../images/gry_blk.png","../images/grn_prp.png","../images/grn_red.png","../images/pnk_blu.png","../images/ylw_pnk.png","../images/ylw_slt.png","../images/org_blu.png","../images/cyn_red.png","../images/red_prp.png","../images/grn_blu.png","../images/blu_wht.png","../images/wht_red.png"],"mutagen_generator_assignment":[0,1],"goal":7,"start":2,"action_noise":0.15,"location_history":"[2,3,7]","action_history":"[1,1]","mutagen_history":"[1,1]","location_rts":"[3010,739]","trial_type":"fractal-mutation","trial_index":56,"time_elapsed":5263841,"internal_node_id":"0.0-5.0-17.0"},{"group":"dicyclic group of order 12","fractal_assignment":["../images/gry_blk.png","../images/grn_prp.png","../images/grn_red.png","../images/pnk_blu.png","../images/ylw_pnk.png","../images/ylw_slt.png","../images/org_blu.png","../images/cyn_red.png","../images/red_prp.png","../images/grn_blu.png","../images/blu_wht.png","../images/wht_red.png"],"mutagen_generator_assignment":[0,1],"goal":5,"start":7,"action_noise":0.15,"location_history":"[7,8,0,4,8,0,4,8,5]","action_history":"[0,0,1,1,1,1,1,0]","mutagen_history":"[0,0,1,1,1,1,1,0]","location_rts":"[21565,1171,1579,15293,475,1907,621,643]","trial_type":"fractal-mutation","trial_index":57,"time_elapsed":5319510,"internal_node_id":"0.0-5.0-18.0"},{"group":"dicyclic group of order 12","fractal_assignment":["../images/gry_blk.png","../images/grn_prp.png","../images/grn_red.png","../images/pnk_blu.png","../images/ylw_pnk.png","../images/ylw_slt.png","../images/org_blu.png","../images/cyn_red.png","../images/red_prp.png","../images/grn_blu.png","../images/blu_wht.png","../images/wht_red.png"],"mutagen_generator_assignment":[0,1],"goal":6,"start":5,"action_noise":0.15,"location_history":"[5,10,7,11,3,0,4,9,1,2,3,0,1,2,6]","action_history":"[0,1,1,1,0,1,1,1,0,0,0,0,0,1]","mutagen_history":"[0,1,1,1,0,1,1,1,0,0,0,0,0,1]","location_rts":"[6263,2766,837,4336,171066,797,213,215,201,158,681,443,1196,341]","trial_type":"fractal-mutation","trial_index":58,"time_elapsed":5528213,"internal_node_id":"0.0-5.0-19.0"},{"group":"dicyclic group of order 12","fractal_assignment":["../images/gry_blk.png","../images/grn_prp.png","../images/grn_red.png","../images/pnk_blu.png","../images/ylw_pnk.png","../images/ylw_slt.png","../images/org_blu.png","../images/cyn_red.png","../images/red_prp.png","../images/grn_blu.png","../images/blu_wht.png","../images/wht_red.png"],"mutagen_generator_assignment":[0,1],"goal":3,"start":6,"action_noise":0.15,"location_history":"[6,10,7,11,3]","action_history":"[1,0,0,0]","mutagen_history":"[1,0,0,0]","location_rts":"[2504,2065,129,2728]","trial_type":"fractal-mutation","trial_index":59,"time_elapsed":5543547,"internal_node_id":"0.0-5.0-20.0"},{"group":"dicyclic group of order 12","fractal_assignment":["../images/gry_blk.png","../images/grn_prp.png","../images/grn_red.png","../images/pnk_blu.png","../images/ylw_pnk.png","../images/ylw_slt.png","../images/org_blu.png","../images/cyn_red.png","../images/red_prp.png","../images/grn_blu.png","../images/blu_wht.png","../images/wht_red.png"],"mutagen_generator_assignment":[0,1],"goal":1,"start":3,"action_noise":0.15,"location_history":"[3,0,1]","action_history":"[0,0]","mutagen_history":"[0,0]","location_rts":"[9913,472]","trial_type":"fractal-mutation","trial_index":60,"time_elapsed":5559486,"internal_node_id":"0.0-5.0-21.0"},{"group":"dicyclic group of order 12","fractal_assignment":["../images/gry_blk.png","../images/grn_prp.png","../images/grn_red.png","../images/pnk_blu.png","../images/ylw_pnk.png","../images/ylw_slt.png","../images/org_blu.png","../images/cyn_red.png","../images/red_prp.png","../images/grn_blu.png","../images/blu_wht.png","../images/wht_red.png"],"mutagen_generator_assignment":[0,1],"goal":9,"start":1,"action_noise":0.15,"location_history":"[1,5,10,7,8,0,4,8,0,4,8,5,10,7,8,5,10,2,6,11,3,0,4,9]","action_history":"[1,0,0,0,0,1,1,1,1,1,1,1,0,0,0,0,1,1,1,1,1,1,0]","mutagen_history":"[1,0,0,0,0,1,1,1,1,1,1,1,0,0,0,0,1,1,1,1,1,1,0]","location_rts":"[8694,4490,10,619,1102,2132,61,1318,521,1064,274,1141,1,18,8595,477,1610,1118,378,519,428,20,1485]","trial_type":"fractal-mutation","trial_index":61,"time_elapsed":5624877,"internal_node_id":"0.0-5.0-22.0"},{"group":"dicyclic group of order 12","fractal_assignment":["../images/gry_blk.png","../images/grn_prp.png","../images/grn_red.png","../images/pnk_blu.png","../images/ylw_pnk.png","../images/ylw_slt.png","../images/org_blu.png","../images/cyn_red.png","../images/red_prp.png","../images/grn_blu.png","../images/blu_wht.png","../images/wht_red.png"],"mutagen_generator_assignment":[0,1],"goal":3,"start":9,"action_noise":0.15,"location_history":"[9,6,11,4,9,6,11,4,9,1,5,10,7,8,5,10,7,8,5,10,2,6,10,2,3]","action_history":"[0,0,0,0,0,0,0,0,1,1,1,0,0,0,0,0,0,0,1,1,1,1,1,1]","mutagen_history":"[0,0,0,0,0,0,0,0,1,1,1,0,0,0,0,0,0,0,1,1,1,1,1,1]","location_rts":"[2656,584,318,469,744,867,3897,6166,2441,6318,315,18096,349,706,6847,349,232,17,2007,807,628,589,424,513]","trial_type":"fractal-mutation","trial_index":62,"time_elapsed":5710874,"internal_node_id":"0.0-5.0-23.0"},{"group":"dicyclic group of order 12","fractal_assignment":["../images/gry_blk.png","../images/grn_prp.png","../images/grn_red.png","../images/pnk_blu.png","../images/ylw_pnk.png","../images/ylw_slt.png","../images/org_blu.png","../images/cyn_red.png","../images/red_prp.png","../images/grn_blu.png","../images/blu_wht.png","../images/wht_red.png"],"mutagen_generator_assignment":[0,1],"goal":4,"start":3,"action_noise":0.15,"location_history":"[3,7,8,5,10,7,8,5,10,2,6,11,3,0,4]","action_history":"[0,0,0,0,0,0,0,0,0,0,0,1,1,1]","mutagen_history":"[0,0,0,0,0,0,0,0,0,0,0,1,1,1]","location_rts":"[2538,590,810,681,961,942,23,446,613,60,567,712,694,425]","trial_type":"fractal-mutation","trial_index":63,"time_elapsed":5739271,"internal_node_id":"0.0-5.0-24.0"},{"group":"dicyclic group of order 12","fractal_assignment":["../images/gry_blk.png","../images/grn_prp.png","../images/grn_red.png","../images/pnk_blu.png","../images/ylw_pnk.png","../images/ylw_slt.png","../images/org_blu.png","../images/cyn_red.png","../images/red_prp.png","../images/grn_blu.png","../images/blu_wht.png","../images/wht_red.png"],"mutagen_generator_assignment":[0,1],"goal":2,"start":4,"action_noise":0.15,"location_history":"[4,8,5,9,1,5,9,1,5,9,6,11,3,0,1,2]","action_history":"[1,0,0,0,0,1,1,1,1,0,0,0,0,0,0]","mutagen_history":"[1,0,0,0,0,1,1,1,1,0,0,0,0,0,0]","location_rts":"[542,21683,301,382,1171,186,1245,621,1187,481,18,373,24,36,200]","trial_type":"fractal-mutation","trial_index":64,"time_elapsed":5787912,"internal_node_id":"0.0-5.0-25.0"},{"group":"dicyclic group of order 12","fractal_assignment":["../images/gry_blk.png","../images/grn_prp.png","../images/grn_red.png","../images/pnk_blu.png","../images/ylw_pnk.png","../images/ylw_slt.png","../images/org_blu.png","../images/cyn_red.png","../images/red_prp.png","../images/grn_blu.png","../images/blu_wht.png","../images/wht_red.png"],"mutagen_generator_assignment":[0,1],"goal":1,"start":2,"action_noise":0.15,"location_history":"[2,3,0,1]","action_history":"[0,0,0]","mutagen_history":"[0,0,0]","location_rts":"[17716,2851,586]","trial_type":"fractal-mutation","trial_index":65,"time_elapsed":5815732,"internal_node_id":"0.0-5.0-26.0"},{"group":"dicyclic group of order 12","fractal_assignment":["../images/gry_blk.png","../images/grn_prp.png","../images/grn_red.png","../images/pnk_blu.png","../images/ylw_pnk.png","../images/ylw_slt.png","../images/org_blu.png","../images/cyn_red.png","../images/red_prp.png","../images/grn_blu.png","../images/blu_wht.png","../images/wht_red.png"],"mutagen_generator_assignment":[0,1],"goal":8,"start":1,"action_noise":0.15,"location_history":"[1,5,9,1,5,10,2,3,7,8]","action_history":"[1,1,1,1,1,1,1,1,0]","mutagen_history":"[1,1,1,1,1,1,1,1,0]","location_rts":"[2007,456,424,948,1147,1358,458,1318,945]","trial_type":"fractal-mutation","trial_index":66,"time_elapsed":5838529,"internal_node_id":"0.0-5.0-27.0"},{"group":"dicyclic group of order 12","fractal_assignment":["../images/gry_blk.png","../images/grn_prp.png","../images/grn_red.png","../images/pnk_blu.png","../images/ylw_pnk.png","../images/ylw_slt.png","../images/org_blu.png","../images/cyn_red.png","../images/red_prp.png","../images/grn_blu.png","../images/blu_wht.png","../images/wht_red.png"],"mutagen_generator_assignment":[0,1],"goal":10,"start":8,"action_noise":0.15,"location_history":"[8,5,10]","action_history":"[1,0]","mutagen_history":"[1,0]","location_rts":"[2916,1432]","trial_type":"fractal-mutation","trial_index":67,"time_elapsed":5848593,"internal_node_id":"0.0-5.0-28.0"},{"group":"dicyclic group of order 12","fractal_assignment":["../images/gry_blk.png","../images/grn_prp.png","../images/grn_red.png","../images/pnk_blu.png","../images/ylw_pnk.png","../images/ylw_slt.png","../images/org_blu.png","../images/cyn_red.png","../images/red_prp.png","../images/grn_blu.png","../images/blu_wht.png","../images/wht_red.png"],"mutagen_generator_assignment":[0,1],"goal":7,"start":10,"action_noise":0.15,"location_history":"[10,2,3,7]","action_history":"[1,1,1]","mutagen_history":"[1,1,1]","location_rts":"[2227,1188,5350]","trial_type":"fractal-mutation","trial_index":68,"time_elapsed":5864279,"internal_node_id":"0.0-5.0-29.0"},{"group":"dicyclic group of order 12","fractal_assignment":["../images/gry_blk.png","../images/grn_prp.png","../images/grn_red.png","../images/pnk_blu.png","../images/ylw_pnk.png","../images/ylw_slt.png","../images/org_blu.png","../images/cyn_red.png","../images/red_prp.png","../images/grn_blu.png","../images/blu_wht.png","../images/wht_red.png"],"mutagen_generator_assignment":[0,1],"goal":6,"start":7,"action_noise":0.15,"location_history":"[7,8,0,4,9,6]","action_history":"[1,1,1,0,0]","mutagen_history":"[1,1,1,0,0]","location_rts":"[3062,1763,2336,401,751]","trial_type":"fractal-mutation","trial_index":69,"time_elapsed":5881737,"internal_node_id":"0.0-5.0-30.0"},{"group":"dicyclic group of order 12","fractal_assignment":["../images/gry_blk.png","../images/grn_prp.png","../images/grn_red.png","../images/pnk_blu.png","../images/ylw_pnk.png","../images/ylw_slt.png","../images/org_blu.png","../images/cyn_red.png","../images/red_prp.png","../images/grn_blu.png","../images/blu_wht.png","../images/wht_red.png"],"mutagen_generator_assignment":[0,1],"goal":0,"start":6,"action_noise":0.15,"location_history":"[6,10,2,6,10,2,6,10,2,6,10,7,11,4,9,6,11,4,9,6,11,4,9,1,5,9,1,5,9,6,10,2,6,11,4,9,6,11,4,9,1,5,9,1,2,6,10,7,11,4,9,1,5,10,7,8,5,10,7,8,5,10,7,11,3,7,11,3,0]","action_history":"[1,1,1,1,1,1,1,1,1,1,1,1,0,0,0,0,0,0,0,0,0,1,1,1,1,1,1,1,1,1,1,1,0,0,0,0,0,0,0,0,1,1,1,1,1,1,1,1,1,1,1,1,0,0,0,0,0,0,0,0,0,1,1,1,1,1,1,0]","mutagen_history":"[1,1,1,1,1,1,1,1,1,1,1,1,0,0,0,0,0,0,0,0,0,1,1,1,1,1,1,1,1,1,1,1,0,0,0,0,0,0,0,0,1,1,1,1,1,1,1,1,1,1,1,1,0,0,0,0,0,0,0,0,0,1,1,1,1,1,1,0]","location_rts":"[3994,1089,639,855,908,601,546,349,819,120,1241,1085,2208,1632,2503,123,4471,497,712,6209,14400,8220,1474,3067,421,519,344,301,228,239,1396,219,1486,270,47,580,141,29,2703,16,1844,14727,761,679,1134,678,5506,905,417,816,991,54,205,0,523,52840,528,642,694,526,1013,261,693,582,474,1458,222,757]","trial_type":"fractal-mutation","trial_index":70,"time_elapsed":6118347,"internal_node_id":"0.0-5.0-31.0"},{"group":"dicyclic group of order 12","fractal_assignment":["../images/gry_blk.png","../images/grn_prp.png","../images/grn_red.png","../images/pnk_blu.png","../images/ylw_pnk.png","../images/ylw_slt.png","../images/org_blu.png","../images/cyn_red.png","../images/red_prp.png","../images/grn_blu.png","../images/blu_wht.png","../images/wht_red.png"],"mutagen_generator_assignment":[0,1],"goal":11,"start":0,"action_noise":0.15,"location_history":"[0,1,5,10,7,11]","action_history":"[0,0,0,0,1]","mutagen_history":"[0,0,0,0,1]","location_rts":"[8681,259,326,1148,183]","trial_type":"fractal-mutation","trial_index":71,"time_elapsed":6137695,"internal_node_id":"0.0-5.0-32.0"},{"group":"dicyclic group of order 12","fractal_assignment":["../images/gry_blk.png","../images/grn_prp.png","../images/grn_red.png","../images/pnk_blu.png","../images/ylw_pnk.png","../images/ylw_slt.png","../images/org_blu.png","../images/cyn_red.png","../images/red_prp.png","../images/grn_blu.png","../images/blu_wht.png","../images/wht_red.png"],"mutagen_generator_assignment":[0,1],"goal":9,"start":11,"action_noise":0.15,"location_history":"[11,4,8,0,1,2,3,0,1,2,6,10,2,3,7,11,4,8,5,9]","action_history":"[0,1,1,0,0,0,0,0,0,1,1,1,1,1,1,1,1,0,0]","mutagen_history":"[0,1,1,0,0,0,0,0,0,1,1,1,1,1,1,1,1,0,0]","location_rts":"[700,1069,1161,22,196,1002,40,500,1111,494,903,419,374,378,81,292,313,432,353]","trial_type":"fractal-mutation","trial_index":72,"time_elapsed":6172156,"internal_node_id":"0.0-5.0-33.0"},{"group":"dicyclic group of order 12","fractal_assignment":["../images/gry_blk.png","../images/grn_prp.png","../images/grn_red.png","../images/pnk_blu.png","../images/ylw_pnk.png","../images/ylw_slt.png","../images/org_blu.png","../images/cyn_red.png","../images/red_prp.png","../images/grn_blu.png","../images/blu_wht.png","../images/wht_red.png"],"mutagen_generator_assignment":[0,1],"goal":5,"start":9,"action_noise":0.15,"location_history":"[9,6,10,7,11,4,8,0,1,2,3,0,1,5]","action_history":"[0,1,1,1,1,1,1,0,0,0,0,0,0]","mutagen_history":"[0,1,1,1,1,1,1,0,0,0,0,0,0]","location_rts":"[2783,1144,1053,1229,359,96,747,543,92,380,615,601,436]","trial_type":"fractal-mutation","trial_index":73,"time_elapsed":6200120,"internal_node_id":"0.0-5.0-34.0"},{"view_history":"[{\"page_index\":0,\"viewing_time\":6140}]","rt":6141,"trial_type":"instructions","trial_index":74,"time_elapsed":6207261,"internal_node_id":"0.0-6.0"},{"rt":3212,"responses":"{\"Q0\":\"\"}","trial_type":"survey-text","trial_index":75,"time_elapsed":6211478,"internal_node_id":"0.0-7.0"}]