[{"view_history":"[{\"page_index\":0,\"viewing_time\":287101},{\"page_index\":1,\"viewing_time\":12996}]","rt":300098,"trial_type":"instructions","trial_index":0,"time_elapsed":300098,"internal_node_id":"0.0-0.0"},{"view_history":"[{\"page_index\":0,\"viewing_time\":4147},{\"page_index\":1,\"viewing_time\":14137}]","rt":18284,"trial_type":"instructions","trial_index":1,"time_elapsed":319382,"internal_node_id":"0.0-1.0"},{"group":"dicyclic group of order 12","room_assignment":["yellow","ivory","orange","pink","green","brown","blue","olive","purple","grey","red","cyan"],"door_color_assignment":["white","black"],"door_generator_assignment":[1,0],"goal":7,"start":11,"action_noise":0.15,"location_history":"[11,4,8,5,9,6,11,3,7]","action_history":"[0,0,0,1,0,0,0,1]","door_history":"[1,1,1,0,1,1,1,0]","location_rts":"[2488,770,325,423,618,381,482,452]","trial_type":"two-door-navigation","trial_index":2,"time_elapsed":336879,"internal_node_id":"0.0-2.0-0.0"},{"group":"dicyclic group of order 12","room_assignment":["yellow","ivory","orange","pink","green","brown","blue","olive","purple","grey","red","cyan"],"door_color_assignment":["white","black"],"door_generator_assignment":[1,0],"goal":8,"start":7,"action_noise":0.15,"location_history":"[7,8]","action_history":"[0]","door_history":"[1]","location_rts":"[1531]","trial_type":"two-door-navigation","trial_index":3,"time_elapsed":342918,"internal_node_id":"0.0-2.0-1.0"},{"group":"dicyclic group of order 12","room_assignment":["yellow","ivory","orange","pink","green","brown","blue","olive","purple","grey","red","cyan"],"door_color_assignment":["white","black"],"door_generator_assignment":[1,0],"goal":4,"start":8,"action_noise":0.15,"location_history":"[8,5,10,2,3,0,1,5,10,7,8,0,1,2,3,0,1,2,3,0,1,2,3,0,1,2,6,11,4]","action_history":"[0,0,1,0,0,0,1,0,0,0,1,0,0,0,0,1,0,0,0,0,1,0,0,0,0,1,0,0]","door_history":"[1,1,0,1,1,1,0,1,1,1,0,1,1,1,1,0,1,1,1,1,0,1,1,1,1,0,1,1]","location_rts":"[1333,359,446,400,404,410,382,407,401,713,363,367,319,334,869,507,411,329,384,746,488,433,383,591,449,234,595,439]","trial_type":"two-door-navigation","trial_index":4,"time_elapsed":388097,"internal_node_id":"0.0-2.0-2.0"},{"group":"dicyclic group of order 12","room_assignment":["yellow","ivory","orange","pink","green","brown","blue","olive","purple","grey","red","cyan"],"door_color_assignment":["white","black"],"door_generator_assignment":[1,0],"goal":5,"start":4,"action_noise":0.15,"location_history":"[4,8,5]","action_history":"[1,0]","door_history":"[0,1]","location_rts":"[769,477]","trial_type":"two-door-navigation","trial_index":5,"time_elapsed":394855,"internal_node_id":"0.0-2.0-3.0"},{"group":"dicyclic group of order 12","room_assignment":["yellow","ivory","orange","pink","green","brown","blue","olive","purple","grey","red","cyan"],"door_color_assignment":["white","black"],"door_generator_assignment":[1,0],"goal":10,"start":5,"action_noise":0.15,"location_history":"[5,10]","action_history":"[0]","door_history":"[1]","location_rts":"[1947]","trial_type":"two-door-navigation","trial_index":6,"time_elapsed":401310,"internal_node_id":"0.0-2.0-4.0"},{"group":"dicyclic group of order 12","room_assignment":["yellow","ivory","orange","pink","green","brown","blue","olive","purple","grey","red","cyan"],"door_color_assignment":["white","black"],"door_generator_assignment":[1,0],"goal":1,"start":10,"action_noise":0.15,"location_history":"[10,7,8,0,4,8,5,9,6,11,3,7,8,0,1]","action_history":"[1,0,1,1,1,0,1,1,0,1,1,1,1,0]","door_history":"[0,1,0,0,0,1,0,0,1,0,0,0,0,1]","location_rts":"[2284,820,713,545,693,479,1546,743,601,1349,428,434,375,1006]","trial_type":"two-door-navigation","trial_index":7,"time_elapsed":430909,"internal_node_id":"0.0-2.0-5.0"},{"group":"dicyclic group of order 12","room_assignment":["yellow","ivory","orange","pink","green","brown","blue","olive","purple","grey","red","cyan"],"door_color_assignment":["white","black"],"door_generator_assignment":[1,0],"goal":6,"start":1,"action_noise":0.15,"location_history":"[1,2,3,7,11,3,0,4,8,0,4,9,1,5,9,6]","action_history":"[1,0,1,1,1,0,1,1,1,1,0,1,1,1,0]","door_history":"[0,1,0,0,0,1,0,0,0,0,1,0,0,0,1]","location_rts":"[2803,611,907,963,547,529,979,395,373,396,850,1396,1228,369,430]","trial_type":"two-door-navigation","trial_index":8,"time_elapsed":462265,"internal_node_id":"0.0-2.0-6.0"},{"group":"dicyclic group of order 12","room_assignment":["yellow","ivory","orange","pink","green","brown","blue","olive","purple","grey","red","cyan"],"door_color_assignment":["white","black"],"door_generator_assignment":[1,0],"goal":9,"start":6,"action_noise":0.15,"location_history":"[6,10,7,8,0,4,9]","action_history":"[1,0,0,0,1,1]","door_history":"[0,1,1,1,0,0]","location_rts":"[1151,415,613,420,510,354]","trial_type":"two-door-navigation","trial_index":9,"time_elapsed":475263,"internal_node_id":"0.0-2.0-7.0"},{"group":"dicyclic group of order 12","room_assignment":["yellow","ivory","orange","pink","green","brown","blue","olive","purple","grey","red","cyan"],"door_color_assignment":["white","black"],"door_generator_assignment":[1,0],"goal":2,"start":9,"action_noise":0.15,"location_history":"[9,1,5,9,1,5,9,1,2]","action_history":"[1,0,1,1,1,1,1,0]","door_history":"[0,1,0,0,0,0,0,1]","location_rts":"[1481,749,481,375,316,443,1063,974]","trial_type":"two-door-navigation","trial_index":10,"time_elapsed":492687,"internal_node_id":"0.0-2.0-8.0"},{"group":"dicyclic group of order 12","room_assignment":["yellow","ivory","orange","pink","green","brown","blue","olive","purple","grey","red","cyan"],"door_color_assignment":["white","black"],"door_generator_assignment":[1,0],"goal":0,"start":2,"action_noise":0.15,"location_history":"[2,3,0]","action_history":"[0,0]","door_history":"[1,1]","location_rts":"[2204,823]","trial_type":"two-door-navigation","trial_index":11,"time_elapsed":501230,"internal_node_id":"0.0-2.0-9.0"},{"group":"dicyclic group of order 12","room_assignment":["yellow","ivory","orange","pink","green","brown","blue","olive","purple","grey","red","cyan"],"door_color_assignment":["white","black"],"door_generator_assignment":[1,0],"goal":3,"start":0,"action_noise":0.15,"location_history":"[0,1,5,9,1,2,6,10,7,8,0,4,8,0,1,5,9,1,5,10,7,11,3]","action_history":"[0,1,1,1,0,1,1,0,0,1,1,1,1,0,1,1,1,1,0,1,1,1]","door_history":"[1,0,0,0,1,0,0,1,1,0,0,0,0,1,0,0,0,0,1,0,0,0]","location_rts":"[1268,422,395,446,615,449,406,654,846,1152,510,372,553,338,397,354,327,402,611,438,367,553]","trial_type":"two-door-navigation","trial_index":12,"time_elapsed":538731,"internal_node_id":"0.0-2.0-10.0"},{"group":"dicyclic group of order 12","room_assignment":["yellow","ivory","orange","pink","green","brown","blue","olive","purple","grey","red","cyan"],"door_color_assignment":["white","black"],"door_generator_assignment":[1,0],"goal":10,"start":3,"action_noise":0.15,"location_history":"[3,7,8,5,9,1,5,10]","action_history":"[1,0,1,1,1,1,0]","door_history":"[0,1,0,0,0,0,1]","location_rts":"[1163,636,924,373,518,509,656]","trial_type":"two-door-navigation","trial_index":13,"time_elapsed":554057,"internal_node_id":"0.0-2.0-11.0"},{"group":"dicyclic group of order 12","room_assignment":["yellow","ivory","orange","pink","green","brown","blue","olive","purple","grey","red","cyan"],"door_color_assignment":["white","black"],"door_generator_assignment":[1,0],"goal":8,"start":10,"action_noise":0.15,"location_history":"[10,7,8]","action_history":"[0,0]","door_history":"[1,1]","location_rts":"[1426,1802]","trial_type":"two-door-navigation","trial_index":14,"time_elapsed":562794,"internal_node_id":"0.0-2.0-12.0"},{"group":"dicyclic group of order 12","room_assignment":["yellow","ivory","orange","pink","green","brown","blue","olive","purple","grey","red","cyan"],"door_color_assignment":["white","black"],"door_generator_assignment":[1,0],"goal":4,"start":8,"action_noise":0.15,"location_history":"[8,5,10,7,8,0,1,5,10,2,3,7,11,3,0,4]","action_history":"[0,0,0,0,1,0,1,1,1,0,1,1,1,0,1]","door_history":"[1,1,1,1,0,1,0,0,0,1,0,0,0,1,0]","location_rts":"[16242,8315,4842,6149,10159,1650,935,367,359,674,531,707,330,306,647]","trial_type":"two-door-navigation","trial_index":15,"time_elapsed":633609,"internal_node_id":"0.0-2.0-13.0"},{"group":"dicyclic group of order 12","room_assignment":["yellow","ivory","orange","pink","green","brown","blue","olive","purple","grey","red","cyan"],"door_color_assignment":["white","black"],"door_generator_assignment":[1,0],"goal":0,"start":4,"action_noise":0.15,"location_history":"[4,8,5,10,2,3,7,11,3,7,11,3,0]","action_history":"[1,0,1,1,1,1,0,1,1,1,1,0]","door_history":"[0,1,0,0,0,0,1,0,0,0,0,1]","location_rts":"[2912,467,1921,970,515,328,161,272,295,386,850,302]","trial_type":"two-door-navigation","trial_index":16,"time_elapsed":658565,"internal_node_id":"0.0-2.0-14.0"},{"group":"dicyclic group of order 12","room_assignment":["yellow","ivory","orange","pink","green","brown","blue","olive","purple","grey","red","cyan"],"door_color_assignment":["white","black"],"door_generator_assignment":[1,0],"goal":11,"start":0,"action_noise":0.15,"location_history":"[0,1,5,10,2,6,10,7,11]","action_history":"[1,1,0,1,1,1,0,1]","door_history":"[0,0,1,0,0,0,1,0]","location_rts":"[1033,358,366,381,377,730,432,465]","trial_type":"two-door-navigation","trial_index":17,"time_elapsed":674260,"internal_node_id":"0.0-2.0-15.0"},{"group":"dicyclic group of order 12","room_assignment":["yellow","ivory","orange","pink","green","brown","blue","olive","purple","grey","red","cyan"],"door_color_assignment":["white","black"],"door_generator_assignment":[1,0],"goal":2,"start":11,"action_noise":0.15,"location_history":"[11,3,0,4,9,6,10,2]","action_history":"[1,0,1,0,0,1,1]","door_history":"[0,1,0,1,1,0,0]","location_rts":"[1878,563,530,519,397,1212,452]","trial_type":"two-door-navigation","trial_index":18,"time_elapsed":690357,"internal_node_id":"0.0-2.0-16.0"},{"group":"dicyclic group of order 12","room_assignment":["yellow","ivory","orange","pink","green","brown","blue","olive","purple","grey","red","cyan"],"door_color_assignment":["white","black"],"door_generator_assignment":[1,0],"goal":7,"start":2,"action_noise":0.15,"location_history":"[2,6,11,4,8,5,10,7]","action_history":"[0,0,0,1,0,0,0]","door_history":"[1,1,1,0,1,1,1]","location_rts":"[1371,482,2984,795,2634,496,1510]","trial_type":"two-door-navigation","trial_index":19,"time_elapsed":711168,"internal_node_id":"0.0-2.0-17.0"},{"group":"dicyclic group of order 12","room_assignment":["yellow","ivory","orange","pink","green","brown","blue","olive","purple","grey","red","cyan"],"door_color_assignment":["white","black"],"door_generator_assignment":[1,0],"goal":5,"start":7,"action_noise":0.15,"location_history":"[7,8,5]","action_history":"[0,0]","door_history":"[1,1]","location_rts":"[3581,409]","trial_type":"two-door-navigation","trial_index":20,"time_elapsed":720664,"internal_node_id":"0.0-2.0-18.0"},{"group":"dicyclic group of order 12","room_assignment":["yellow","ivory","orange","pink","green","brown","blue","olive","purple","grey","red","cyan"],"door_color_assignment":["white","black"],"door_generator_assignment":[1,0],"goal":6,"start":5,"action_noise":0.15,"location_history":"[5,10,2,6]","action_history":"[1,1,1]","door_history":"[0,0,0]","location_rts":"[9289,6283,4586]","trial_type":"two-door-navigation","trial_index":21,"time_elapsed":747349,"internal_node_id":"0.0-2.0-19.0"},{"group":"dicyclic group of order 12","room_assignment":["yellow","ivory","orange","pink","green","brown","blue","olive","purple","grey","red","cyan"],"door_color_assignment":["white","black"],"door_generator_assignment":[1,0],"goal":3,"start":6,"action_noise":0.15,"location_history":"[6,11,4,8,0,1,2,3]","action_history":"[0,0,1,1,0,0,0]","door_history":"[1,1,0,0,1,1,1]","location_rts":"[2158,3162,13404,7347,2716,584,1436]","trial_type":"two-door-navigation","trial_index":22,"time_elapsed":788694,"internal_node_id":"0.0-2.0-20.0"},{"group":"dicyclic group of order 12","room_assignment":["yellow","ivory","orange","pink","green","brown","blue","olive","purple","grey","red","cyan"],"door_color_assignment":["white","black"],"door_generator_assignment":[1,0],"goal":1,"start":3,"action_noise":0.15,"location_history":"[3,7,11,4,9,6,11,4,9,1]","action_history":"[1,1,0,0,0,1,1,0,1]","door_history":"[0,0,1,1,1,0,0,1,0]","location_rts":"[2658,1530,7035,5674,6129,4725,960,360,575]","trial_type":"two-door-navigation","trial_index":23,"time_elapsed":830893,"internal_node_id":"0.0-2.0-21.0"},{"group":"dicyclic group of order 12","room_assignment":["yellow","ivory","orange","pink","green","brown","blue","olive","purple","grey","red","cyan"],"door_color_assignment":["white","black"],"door_generator_assignment":[1,0],"goal":9,"start":1,"action_noise":0.15,"location_history":"[1,2,6,11,4,9]","action_history":"[1,1,0,0,0]","door_history":"[0,0,1,1,1]","location_rts":"[15212,1738,577,7492,533]","trial_type":"two-door-navigation","trial_index":24,"time_elapsed":864972,"internal_node_id":"0.0-2.0-22.0"},{"group":"dicyclic group of order 12","room_assignment":["yellow","ivory","orange","pink","green","brown","blue","olive","purple","grey","red","cyan"],"door_color_assignment":["white","black"],"door_generator_assignment":[1,0],"goal":3,"start":9,"action_noise":0.15,"location_history":"[9,1,5,10,2,6,10,2,3]","action_history":"[1,1,0,1,1,1,1,0]","door_history":"[0,0,1,0,0,0,0,1]","location_rts":"[3557,797,12247,402,690,351,366,296]","trial_type":"two-door-navigation","trial_index":25,"time_elapsed":895237,"internal_node_id":"0.0-2.0-23.0"},{"group":"dicyclic group of order 12","room_assignment":["yellow","ivory","orange","pink","green","brown","blue","olive","purple","grey","red","cyan"],"door_color_assignment":["white","black"],"door_generator_assignment":[1,0],"goal":4,"start":3,"action_noise":0.15,"location_history":"[3,0,4]","action_history":"[0,0]","door_history":"[1,1]","location_rts":"[8535,10555]","trial_type":"two-door-navigation","trial_index":26,"time_elapsed":919838,"internal_node_id":"0.0-2.0-24.0"},{"group":"dicyclic group of order 12","room_assignment":["yellow","ivory","orange","pink","green","brown","blue","olive","purple","grey","red","cyan"],"door_color_assignment":["white","black"],"door_generator_assignment":[1,0],"goal":2,"start":4,"action_noise":0.15,"location_history":"[4,8,0,1,2]","action_history":"[0,0,0,0]","door_history":"[1,1,1,1]","location_rts":"[17675,3453,2757,3595]","trial_type":"two-door-navigation","trial_index":27,"time_elapsed":954843,"internal_node_id":"0.0-2.0-25.0"},{"group":"dicyclic group of order 12","room_assignment":["yellow","ivory","orange","pink","green","brown","blue","olive","purple","grey","red","cyan"],"door_color_assignment":["white","black"],"door_generator_assignment":[1,0],"goal":1,"start":2,"action_noise":0.15,"location_history":"[2,3,7,8,5,9,1]","action_history":"[0,1,1,0,1,1]","door_history":"[1,0,0,1,0,0]","location_rts":"[4501,4462,1437,601,13137,309]","trial_type":"two-door-navigation","trial_index":28,"time_elapsed":988840,"internal_node_id":"0.0-2.0-26.0"},{"group":"dicyclic group of order 12","room_assignment":["yellow","ivory","orange","pink","green","brown","blue","olive","purple","grey","red","cyan"],"door_color_assignment":["white","black"],"door_generator_assignment":[1,0],"goal":8,"start":1,"action_noise":0.15,"location_history":"[1,5,10,7,8]","action_history":"[1,0,0,0]","door_history":"[0,1,1,1]","location_rts":"[4388,2208,305,375]","trial_type":"two-door-navigation","trial_index":29,"time_elapsed":1003642,"internal_node_id":"0.0-2.0-27.0"},{"group":"dicyclic group of order 12","room_assignment":["yellow","ivory","orange","pink","green","brown","blue","olive","purple","grey","red","cyan"],"door_color_assignment":["white","black"],"door_generator_assignment":[1,0],"goal":10,"start":8,"action_noise":0.15,"location_history":"[8,5,9,6,11,4,9,6,11,4,8,5,10]","action_history":"[0,0,0,0,0,0,0,0,0,1,0,0]","door_history":"[1,1,1,1,1,1,1,1,1,0,1,1]","location_rts":"[2715,316,303,422,1408,549,875,660,487,370,795,850]","trial_type":"two-door-navigation","trial_index":30,"time_elapsed":1028953,"internal_node_id":"0.0-2.0-28.0"},{"group":"dicyclic group of order 12","room_assignment":["yellow","ivory","orange","pink","green","brown","blue","olive","purple","grey","red","cyan"],"door_color_assignment":["white","black"],"door_generator_assignment":[1,0],"goal":7,"start":10,"action_noise":0.15,"location_history":"[10,7]","action_history":"[0]","door_history":"[1]","location_rts":"[1940]","trial_type":"two-door-navigation","trial_index":31,"time_elapsed":1035400,"internal_node_id":"0.0-2.0-29.0"},{"group":"dicyclic group of order 12","room_assignment":["yellow","ivory","orange","pink","green","brown","blue","olive","purple","grey","red","cyan"],"door_color_assignment":["white","black"],"door_generator_assignment":[1,0],"goal":6,"start":7,"action_noise":0.15,"location_history":"[7,11,4,9,1,5,10,2,6]","action_history":"[1,0,0,0,1,0,1,1]","door_history":"[0,1,1,1,0,1,0,0]","location_rts":"[5473,806,3090,676,1075,5122,2446,1364]","trial_type":"two-door-navigation","trial_index":32,"time_elapsed":1067011,"internal_node_id":"0.0-2.0-30.0"},{"group":"dicyclic group of order 12","room_assignment":["yellow","ivory","orange","pink","green","brown","blue","olive","purple","grey","red","cyan"],"door_color_assignment":["white","black"],"door_generator_assignment":[1,0],"goal":0,"start":6,"action_noise":0.15,"location_history":"[6,10,2,3,0]","action_history":"[1,1,0,0]","door_history":"[0,0,1,1]","location_rts":"[9479,3817,772,568]","trial_type":"two-door-navigation","trial_index":33,"time_elapsed":1089167,"internal_node_id":"0.0-2.0-31.0"},{"group":"dicyclic group of order 12","room_assignment":["yellow","ivory","orange","pink","green","brown","blue","olive","purple","grey","red","cyan"],"door_color_assignment":["white","black"],"door_generator_assignment":[1,0],"goal":11,"start":0,"action_noise":0.15,"location_history":"[0,1,5,9,6,11]","action_history":"[0,1,1,0,0]","door_history":"[1,0,0,1,1]","location_rts":"[3777,1412,1884,2995,564]","trial_type":"two-door-navigation","trial_index":34,"time_elapsed":1108322,"internal_node_id":"0.0-2.0-32.0"},{"group":"dicyclic group of order 12","room_assignment":["yellow","ivory","orange","pink","green","brown","blue","olive","purple","grey","red","cyan"],"door_color_assignment":["white","black"],"door_generator_assignment":[1,0],"goal":9,"start":11,"action_noise":0.15,"location_history":"[11,4,9]","action_history":"[0,0]","door_history":"[1,1]","location_rts":"[3830,440]","trial_type":"two-door-navigation","trial_index":35,"time_elapsed":1118107,"internal_node_id":"0.0-2.0-33.0"},{"group":"dicyclic group of order 12","room_assignment":["yellow","ivory","orange","pink","green","brown","blue","olive","purple","grey","red","cyan"],"door_color_assignment":["white","black"],"door_generator_assignment":[1,0],"goal":5,"start":9,"action_noise":0.15,"location_history":"[9,1,2,6,10,2,3,0,4,8,5]","action_history":"[1,1,1,1,0,0,0,0,1,0]","door_history":"[0,0,0,0,1,1,1,1,0,1]","location_rts":"[6373,2779,771,1362,1660,649,119,430,620,2033]","trial_type":"two-door-navigation","trial_index":36,"time_elapsed":1148478,"internal_node_id":"0.0-2.0-34.0"},{"view_history":"[{\"page_index\":0,\"viewing_time\":4925}]","rt":4925,"trial_type":"instructions","trial_index":37,"time_elapsed":1154403,"internal_node_id":"0.0-3.0"},{"view_history":"[{\"page_index\":0,\"viewing_time\":3247},{\"page_index\":1,\"viewing_time\":10141}]","rt":13388,"trial_type":"instructions","trial_index":38,"time_elapsed":1168792,"internal_node_id":"0.0-4.0"},{"group":"dicyclic group of order 12","fractal_assignment":["../images/grn_blu.png","../images/wht_red.png","../images/org_blu.png","../images/grn_red.png","../images/red_prp.png","../images/gry_blk.png","../images/ylw_pnk.png","../images/pnk_blu.png","../images/ylw_slt.png","../images/blu_wht.png","../images/grn_prp.png","../images/cyn_red.png"],"mutagen_generator_assignment":[1,0],"goal":7,"start":11,"action_noise":0.15,"location_history":"[11,4,8,5,10,7]","action_history":"[0,1,0,0,0]","mutagen_history":"[1,0,1,1,1]","location_rts":"[7647,872,493,552,530]","trial_type":"fractal-mutation","trial_index":39,"time_elapsed":1188564,"internal_node_id":"0.0-5.0-0.0"},{"group":"dicyclic group of order 12","fractal_assignment":["../images/grn_blu.png","../images/wht_red.png","../images/org_blu.png","../images/grn_red.png","../images/red_prp.png","../images/gry_blk.png","../images/ylw_pnk.png","../images/pnk_blu.png","../images/ylw_slt.png","../images/blu_wht.png","../images/grn_prp.png","../images/cyn_red.png"],"mutagen_generator_assignment":[1,0],"goal":8,"start":7,"action_noise":0.15,"location_history":"[7,8]","action_history":"[0]","mutagen_history":"[1]","location_rts":"[2413]","trial_type":"fractal-mutation","trial_index":40,"time_elapsed":1195680,"internal_node_id":"0.0-5.0-1.0"},{"group":"dicyclic group of order 12","fractal_assignment":["../images/grn_blu.png","../images/wht_red.png","../images/org_blu.png","../images/grn_red.png","../images/red_prp.png","../images/gry_blk.png","../images/ylw_pnk.png","../images/pnk_blu.png","../images/ylw_slt.png","../images/blu_wht.png","../images/grn_prp.png","../images/cyn_red.png"],"mutagen_generator_assignment":[1,0],"goal":4,"start":8,"action_noise":0.15,"location_history":"[8,0,1,2,6,10,2,3,0,4]","action_history":"[0,0,0,1,1,0,0,0,1]","mutagen_history":"[1,1,1,0,0,1,1,1,0]","location_rts":"[16921,7269,18184,800,610,518,951,517,456]","trial_type":"fractal-mutation","trial_index":41,"time_elapsed":1256242,"internal_node_id":"0.0-5.0-2.0"},{"group":"dicyclic group of order 12","fractal_assignment":["../images/grn_blu.png","../images/wht_red.png","../images/org_blu.png","../images/grn_red.png","../images/red_prp.png","../images/gry_blk.png","../images/ylw_pnk.png","../images/pnk_blu.png","../images/ylw_slt.png","../images/blu_wht.png","../images/grn_prp.png","../images/cyn_red.png"],"mutagen_generator_assignment":[1,0],"goal":5,"start":4,"action_noise":0.15,"location_history":"[4,9,6,11,4,8,0,4,8,5]","action_history":"[1,0,0,0,1,1,1,0,0]","mutagen_history":"[0,1,1,1,0,0,0,1,1]","location_rts":"[1489,505,383,444,433,2700,1657,485,452]","trial_type":"fractal-mutation","trial_index":42,"time_elapsed":1279028,"internal_node_id":"0.0-5.0-3.0"},{"group":"dicyclic group of order 12","fractal_assignment":["../images/grn_blu.png","../images/wht_red.png","../images/org_blu.png","../images/grn_red.png","../images/red_prp.png","../images/gry_blk.png","../images/ylw_pnk.png","../images/pnk_blu.png","../images/ylw_slt.png","../images/blu_wht.png","../images/grn_prp.png","../images/cyn_red.png"],"mutagen_generator_assignment":[1,0],"goal":10,"start":5,"action_noise":0.15,"location_history":"[5,10]","action_history":"[0]","mutagen_history":"[1]","location_rts":"[1087]","trial_type":"fractal-mutation","trial_index":43,"time_elapsed":1284887,"internal_node_id":"0.0-5.0-4.0"},{"group":"dicyclic group of order 12","fractal_assignment":["../images/grn_blu.png","../images/wht_red.png","../images/org_blu.png","../images/grn_red.png","../images/red_prp.png","../images/gry_blk.png","../images/ylw_pnk.png","../images/pnk_blu.png","../images/ylw_slt.png","../images/blu_wht.png","../images/grn_prp.png","../images/cyn_red.png"],"mutagen_generator_assignment":[1,0],"goal":1,"start":10,"action_noise":0.15,"location_history":"[10,7,8,0,1]","action_history":"[0,0,1,0]","mutagen_history":"[1,1,0,1]","location_rts":"[1279,557,708,2562]","trial_type":"fractal-mutation","trial_index":44,"time_elapsed":1298385,"internal_node_id":"0.0-5.0-5.0"},{"group":"dicyclic group of order 12","fractal_assignment":["../images/grn_blu.png","../images/wht_red.png","../images/org_blu.png","../images/grn_red.png","../images/red_prp.png","../images/gry_blk.png","../images/ylw_pnk.png","../images/pnk_blu.png","../images/ylw_slt.png","../images/blu_wht.png","../images/grn_prp.png","../images/cyn_red.png"],"mutagen_generator_assignment":[1,0],"goal":6,"start":1,"action_noise":0.15,"location_history":"[1,5,9,6]","action_history":"[1,0,1]","mutagen_history":"[0,1,0]","location_rts":"[8237,27692,19383]","trial_type":"fractal-mutation","trial_index":45,"time_elapsed":1360550,"internal_node_id":"0.0-5.0-6.0"},{"group":"dicyclic group of order 12","fractal_assignment":["../images/grn_blu.png","../images/wht_red.png","../images/org_blu.png","../images/grn_red.png","../images/red_prp.png","../images/gry_blk.png","../images/ylw_pnk.png","../images/pnk_blu.png","../images/ylw_slt.png","../images/blu_wht.png","../images/grn_prp.png","../images/cyn_red.png"],"mutagen_generator_assignment":[1,0],"goal":9,"start":6,"action_noise":0.15,"location_history":"[6,11,4,9]","action_history":"[0,0,0]","mutagen_history":"[1,1,1]","location_rts":"[15630,408,643]","trial_type":"fractal-mutation","trial_index":46,"time_elapsed":1384382,"internal_node_id":"0.0-5.0-7.0"},{"group":"dicyclic group of order 12","fractal_assignment":["../images/grn_blu.png","../images/wht_red.png","../images/org_blu.png","../images/grn_red.png","../images/red_prp.png","../images/gry_blk.png","../images/ylw_pnk.png","../images/pnk_blu.png","../images/ylw_slt.png","../images/blu_wht.png","../images/grn_prp.png","../images/cyn_red.png"],"mutagen_generator_assignment":[1,0],"goal":2,"start":9,"action_noise":0.15,"location_history":"[9,1,5,9,1,2]","action_history":"[1,1,1,1,0]","mutagen_history":"[0,0,0,0,1]","location_rts":"[1838,2041,1011,1203,432]","trial_type":"fractal-mutation","trial_index":47,"time_elapsed":1399767,"internal_node_id":"0.0-5.0-8.0"},{"group":"dicyclic group of order 12","fractal_assignment":["../images/grn_blu.png","../images/wht_red.png","../images/org_blu.png","../images/grn_red.png","../images/red_prp.png","../images/gry_blk.png","../images/ylw_pnk.png","../images/pnk_blu.png","../images/ylw_slt.png","../images/blu_wht.png","../images/grn_prp.png","../images/cyn_red.png"],"mutagen_generator_assignment":[1,0],"goal":0,"start":2,"action_noise":0.15,"location_history":"[2,3,0]","action_history":"[0,0]","mutagen_history":"[1,1]","location_rts":"[3175,1304]","trial_type":"fractal-mutation","trial_index":48,"time_elapsed":1410264,"internal_node_id":"0.0-5.0-9.0"},{"group":"dicyclic group of order 12","fractal_assignment":["../images/grn_blu.png","../images/wht_red.png","../images/org_blu.png","../images/grn_red.png","../images/red_prp.png","../images/gry_blk.png","../images/ylw_pnk.png","../images/pnk_blu.png","../images/ylw_slt.png","../images/blu_wht.png","../images/grn_prp.png","../images/cyn_red.png"],"mutagen_generator_assignment":[1,0],"goal":3,"start":0,"action_noise":0.15,"location_history":"[0,4,8,0,4,9,1,5,10,7,11,3]","action_history":"[1,1,1,1,0,1,1,0,0,1,0]","mutagen_history":"[0,0,0,0,1,0,0,1,1,0,1]","location_rts":"[2185,16958,1140,1597,3171,946,1409,642,412,315,408]","trial_type":"fractal-mutation","trial_index":49,"time_elapsed":1455418,"internal_node_id":"0.0-5.0-10.0"},{"group":"dicyclic group of order 12","fractal_assignment":["../images/grn_blu.png","../images/wht_red.png","../images/org_blu.png","../images/grn_red.png","../images/red_prp.png","../images/gry_blk.png","../images/ylw_pnk.png","../images/pnk_blu.png","../images/ylw_slt.png","../images/blu_wht.png","../images/grn_prp.png","../images/cyn_red.png"],"mutagen_generator_assignment":[1,0],"goal":10,"start":3,"action_noise":0.15,"location_history":"[3,0,4,9,6,10]","action_history":"[0,1,1,0,0]","mutagen_history":"[1,0,0,1,1]","location_rts":"[1730,892,616,471,1100]","trial_type":"fractal-mutation","trial_index":50,"time_elapsed":1469783,"internal_node_id":"0.0-5.0-11.0"},{"group":"dicyclic group of order 12","fractal_assignment":["../images/grn_blu.png","../images/wht_red.png","../images/org_blu.png","../images/grn_red.png","../images/red_prp.png","../images/gry_blk.png","../images/ylw_pnk.png","../images/pnk_blu.png","../images/ylw_slt.png","../images/blu_wht.png","../images/grn_prp.png","../images/cyn_red.png"],"mutagen_generator_assignment":[1,0],"goal":8,"start":10,"action_noise":0.15,"location_history":"[10,7,11,3,0,1,2,3,0,1,5,10,7,8]","action_history":"[0,0,1,1,0,0,0,0,0,1,0,0,0]","mutagen_history":"[1,1,0,0,1,1,1,1,1,0,1,1,1]","location_rts":"[21235,865,461,370,4227,309,392,418,471,460,501,928,684]","trial_type":"fractal-mutation","trial_index":51,"time_elapsed":1520544,"internal_node_id":"0.0-5.0-12.0"},{"group":"dicyclic group of order 12","fractal_assignment":["../images/grn_blu.png","../images/wht_red.png","../images/org_blu.png","../images/grn_red.png","../images/red_prp.png","../images/gry_blk.png","../images/ylw_pnk.png","../images/pnk_blu.png","../images/ylw_slt.png","../images/blu_wht.png","../images/grn_prp.png","../images/cyn_red.png"],"mutagen_generator_assignment":[1,0],"goal":4,"start":8,"action_noise":0.15,"location_history":"[8,5,10,2,6,11,3,0,4]","action_history":"[0,0,0,1,0,1,0,1]","mutagen_history":"[1,1,1,0,1,0,1,0]","location_rts":"[630,2345,1263,428,699,735,806,2587]","trial_type":"fractal-mutation","trial_index":52,"time_elapsed":1543136,"internal_node_id":"0.0-5.0-13.0"},{"group":"dicyclic group of order 12","fractal_assignment":["../images/grn_blu.png","../images/wht_red.png","../images/org_blu.png","../images/grn_red.png","../images/red_prp.png","../images/gry_blk.png","../images/ylw_pnk.png","../images/pnk_blu.png","../images/ylw_slt.png","../images/blu_wht.png","../images/grn_prp.png","../images/cyn_red.png"],"mutagen_generator_assignment":[1,0],"goal":0,"start":4,"action_noise":0.15,"location_history":"[4,9,1,2,3,0]","action_history":"[1,1,0,0,0]","mutagen_history":"[0,0,1,1,1]","location_rts":"[7392,3312,539,852,654]","trial_type":"fractal-mutation","trial_index":53,"time_elapsed":1565214,"internal_node_id":"0.0-5.0-14.0"},{"group":"dicyclic group of order 12","fractal_assignment":["../images/grn_blu.png","../images/wht_red.png","../images/org_blu.png","../images/grn_red.png","../images/red_prp.png","../images/gry_blk.png","../images/ylw_pnk.png","../images/pnk_blu.png","../images/ylw_slt.png","../images/blu_wht.png","../images/grn_prp.png","../images/cyn_red.png"],"mutagen_generator_assignment":[1,0],"goal":11,"start":0,"action_noise":0.15,"location_history":"[0,4,8,0,4,9,1,5,10,7,11]","action_history":"[1,1,1,1,0,1,0,0,0,1]","mutagen_history":"[0,0,0,0,1,0,1,1,1,0]","location_rts":"[1962,4989,1973,665,423,480,607,519,513,455]","trial_type":"fractal-mutation","trial_index":54,"time_elapsed":1592620,"internal_node_id":"0.0-5.0-15.0"},{"group":"dicyclic group of order 12","fractal_assignment":["../images/grn_blu.png","../images/wht_red.png","../images/org_blu.png","../images/grn_red.png","../images/red_prp.png","../images/gry_blk.png","../images/ylw_pnk.png","../images/pnk_blu.png","../images/ylw_slt.png","../images/blu_wht.png","../images/grn_prp.png","../images/cyn_red.png"],"mutagen_generator_assignment":[1,0],"goal":2,"start":11,"action_noise":0.15,"location_history":"[11,4,8,5,9,6,11,3,0,4,9,1,2]","action_history":"[0,1,1,1,0,0,1,1,1,0,1,1]","mutagen_history":"[1,0,0,0,1,1,0,0,0,1,0,0]","location_rts":"[1042,555,648,457,343,699,1162,457,582,818,808,952]","trial_type":"fractal-mutation","trial_index":55,"time_elapsed":1618664,"internal_node_id":"0.0-5.0-16.0"},{"group":"dicyclic group of order 12","fractal_assignment":["../images/grn_blu.png","../images/wht_red.png","../images/org_blu.png","../images/grn_red.png","../images/red_prp.png","../images/gry_blk.png","../images/ylw_pnk.png","../images/pnk_blu.png","../images/ylw_slt.png","../images/blu_wht.png","../images/grn_prp.png","../images/cyn_red.png"],"mutagen_generator_assignment":[1,0],"goal":7,"start":2,"action_noise":0.15,"location_history":"[2,6,10,2,6,10,7]","action_history":"[0,0,1,1,0,0]","mutagen_history":"[1,1,0,0,1,1]","location_rts":"[1471,602,476,488,702,1232]","trial_type":"fractal-mutation","trial_index":56,"time_elapsed":1634275,"internal_node_id":"0.0-5.0-17.0"},{"group":"dicyclic group of order 12","fractal_assignment":["../images/grn_blu.png","../images/wht_red.png","../images/org_blu.png","../images/grn_red.png","../images/red_prp.png","../images/gry_blk.png","../images/ylw_pnk.png","../images/pnk_blu.png","../images/ylw_slt.png","../images/blu_wht.png","../images/grn_prp.png","../images/cyn_red.png"],"mutagen_generator_assignment":[1,0],"goal":5,"start":7,"action_noise":0.15,"location_history":"[7,8,5]","action_history":"[0,0]","mutagen_history":"[1,1]","location_rts":"[20955,2925]","trial_type":"fractal-mutation","trial_index":57,"time_elapsed":1664082,"internal_node_id":"0.0-5.0-18.0"},{"group":"dicyclic group of order 12","fractal_assignment":["../images/grn_blu.png","../images/wht_red.png","../images/org_blu.png","../images/grn_red.png","../images/red_prp.png","../images/gry_blk.png","../images/ylw_pnk.png","../images/pnk_blu.png","../images/ylw_slt.png","../images/blu_wht.png","../images/grn_prp.png","../images/cyn_red.png"],"mutagen_generator_assignment":[1,0],"goal":6,"start":5,"action_noise":0.15,"location_history":"[5,10,2,3,0,1,5,10,2,6]","action_history":"[0,0,0,0,1,0,0,1,1]","mutagen_history":"[1,1,1,1,0,1,1,0,0]","location_rts":"[6852,322,437,595,614,635,568,443,702]","trial_type":"fractal-mutation","trial_index":58,"time_elapsed":1689511,"internal_node_id":"0.0-5.0-19.0"},{"group":"dicyclic group of order 12","fractal_assignment":["../images/grn_blu.png","../images/wht_red.png","../images/org_blu.png","../images/grn_red.png","../images/red_prp.png","../images/gry_blk.png","../images/ylw_pnk.png","../images/pnk_blu.png","../images/ylw_slt.png","../images/blu_wht.png","../images/grn_prp.png","../images/cyn_red.png"],"mutagen_generator_assignment":[1,0],"goal":3,"start":6,"action_noise":0.15,"location_history":"[6,10,2,6,10,2,6,11,4,8,5,9,1,5,10,7,11,4,8,0,1,2,3]","action_history":"[0,1,1,0,1,1,0,0,1,0,1,1,1,1,0,0,0,1,1,0,0,0]","mutagen_history":"[1,0,0,1,0,0,1,1,0,1,0,0,0,0,1,1,1,0,0,1,1,1]","location_rts":"[805,841,2240,943,720,637,716,715,788,693,481,416,367,409,592,682,786,1472,1106,584,502,517]","trial_type":"fractal-mutation","trial_index":59,"time_elapsed":1736188,"internal_node_id":"0.0-5.0-20.0"},{"group":"dicyclic group of order 12","fractal_assignment":["../images/grn_blu.png","../images/wht_red.png","../images/org_blu.png","../images/grn_red.png","../images/red_prp.png","../images/gry_blk.png","../images/ylw_pnk.png","../images/pnk_blu.png","../images/ylw_slt.png","../images/blu_wht.png","../images/grn_prp.png","../images/cyn_red.png"],"mutagen_generator_assignment":[1,0],"goal":1,"start":3,"action_noise":0.15,"location_history":"[3,7,11,3,7,11,4,8,0,1]","action_history":"[0,1,1,1,1,0,1,1,1]","mutagen_history":"[1,0,0,0,0,1,0,0,0]","location_rts":"[1705,538,1306,1359,1248,757,4100,410,1171]","trial_type":"fractal-mutation","trial_index":60,"time_elapsed":1762630,"internal_node_id":"0.0-5.0-21.0"},{"group":"dicyclic group of order 12","fractal_assignment":["../images/grn_blu.png","../images/wht_red.png","../images/org_blu.png","../images/grn_red.png","../images/red_prp.png","../images/gry_blk.png","../images/ylw_pnk.png","../images/pnk_blu.png","../images/ylw_slt.png","../images/blu_wht.png","../images/grn_prp.png","../images/cyn_red.png"],"mutagen_generator_assignment":[1,0],"goal":9,"start":1,"action_noise":0.15,"location_history":"[1,5,10,2,3,7,8,5,9]","action_history":"[1,0,1,0,0,0,1,1]","mutagen_history":"[0,1,0,1,1,1,0,0]","location_rts":"[2952,4330,6117,775,680,1110,834,2592]","trial_type":"fractal-mutation","trial_index":61,"time_elapsed":1794937,"internal_node_id":"0.0-5.0-22.0"},{"group":"dicyclic group of order 12","fractal_assignment":["../images/grn_blu.png","../images/wht_red.png","../images/org_blu.png","../images/grn_red.png","../images/red_prp.png","../images/gry_blk.png","../images/ylw_pnk.png","../images/pnk_blu.png","../images/ylw_slt.png","../images/blu_wht.png","../images/grn_prp.png","../images/cyn_red.png"],"mutagen_generator_assignment":[1,0],"goal":3,"start":9,"action_noise":0.15,"location_history":"[9,1,5,9,6,10,2,6,10,7,11,3]","action_history":"[1,1,1,0,1,1,1,0,0,1,1]","mutagen_history":"[0,0,0,1,0,0,0,1,1,0,0]","location_rts":"[5312,441,362,1405,396,526,489,331,777,495,569]","trial_type":"fractal-mutation","trial_index":62,"time_elapsed":1822002,"internal_node_id":"0.0-5.0-23.0"},{"group":"dicyclic group of order 12","fractal_assignment":["../images/grn_blu.png","../images/wht_red.png","../images/org_blu.png","../images/grn_red.png","../images/red_prp.png","../images/gry_blk.png","../images/ylw_pnk.png","../images/pnk_blu.png","../images/ylw_slt.png","../images/blu_wht.png","../images/grn_prp.png","../images/cyn_red.png"],"mutagen_generator_assignment":[1,0],"goal":4,"start":3,"action_noise":0.15,"location_history":"[3,0,4]","action_history":"[0,1]","mutagen_history":"[1,0]","location_rts":"[2137,2690]","trial_type":"fractal-mutation","trial_index":63,"time_elapsed":1832693,"internal_node_id":"0.0-5.0-24.0"},{"group":"dicyclic group of order 12","fractal_assignment":["../images/grn_blu.png","../images/wht_red.png","../images/org_blu.png","../images/grn_red.png","../images/red_prp.png","../images/gry_blk.png","../images/ylw_pnk.png","../images/pnk_blu.png","../images/ylw_slt.png","../images/blu_wht.png","../images/grn_prp.png","../images/cyn_red.png"],"mutagen_generator_assignment":[1,0],"goal":2,"start":4,"action_noise":0.15,"location_history":"[4,9,6,11,3,0,4,9,1,5,9,1,2]","action_history":"[0,0,0,1,1,1,0,1,1,1,0,0]","mutagen_history":"[1,1,1,0,0,0,1,0,0,0,1,1]","location_rts":"[1942,8310,7546,737,1098,419,872,494,1124,814,385,1049]","trial_type":"fractal-mutation","trial_index":64,"time_elapsed":1875266,"internal_node_id":"0.0-5.0-25.0"},{"group":"dicyclic group of order 12","fractal_assignment":["../images/grn_blu.png","../images/wht_red.png","../images/org_blu.png","../images/grn_red.png","../images/red_prp.png","../images/gry_blk.png","../images/ylw_pnk.png","../images/pnk_blu.png","../images/ylw_slt.png","../images/blu_wht.png","../images/grn_prp.png","../images/cyn_red.png"],"mutagen_generator_assignment":[1,0],"goal":1,"start":2,"action_noise":0.15,"location_history":"[2,3,0,1]","action_history":"[0,0,0]","mutagen_history":"[1,1,1]","location_rts":"[5224,328,466]","trial_type":"fractal-mutation","trial_index":65,"time_elapsed":1888535,"internal_node_id":"0.0-5.0-26.0"},{"group":"dicyclic group of order 12","fractal_assignment":["../images/grn_blu.png","../images/wht_red.png","../images/org_blu.png","../images/grn_red.png","../images/red_prp.png","../images/gry_blk.png","../images/ylw_pnk.png","../images/pnk_blu.png","../images/ylw_slt.png","../images/blu_wht.png","../images/grn_prp.png","../images/cyn_red.png"],"mutagen_generator_assignment":[1,0],"goal":8,"start":1,"action_noise":0.15,"location_history":"[1,5,9,1,5,10,7,8]","action_history":"[1,1,0,1,0,0,0]","mutagen_history":"[0,0,1,0,1,1,1]","location_rts":"[8395,1105,3857,646,423,700,3406]","trial_type":"fractal-mutation","trial_index":66,"time_elapsed":1918727,"internal_node_id":"0.0-5.0-27.0"},{"group":"dicyclic group of order 12","fractal_assignment":["../images/grn_blu.png","../images/wht_red.png","../images/org_blu.png","../images/grn_red.png","../images/red_prp.png","../images/gry_blk.png","../images/ylw_pnk.png","../images/pnk_blu.png","../images/ylw_slt.png","../images/blu_wht.png","../images/grn_prp.png","../images/cyn_red.png"],"mutagen_generator_assignment":[1,0],"goal":10,"start":8,"action_noise":0.15,"location_history":"[8,5,9,1,2,3,0,4,8,5,10]","action_history":"[1,1,1,0,0,0,1,1,0,0]","mutagen_history":"[0,0,0,1,1,1,0,0,1,1]","location_rts":"[3579,2253,988,814,5533,515,1198,1182,397,408]","trial_type":"fractal-mutation","trial_index":67,"time_elapsed":1950520,"internal_node_id":"0.0-5.0-28.0"},{"group":"dicyclic group of order 12","fractal_assignment":["../images/grn_blu.png","../images/wht_red.png","../images/org_blu.png","../images/grn_red.png","../images/red_prp.png","../images/gry_blk.png","../images/ylw_pnk.png","../images/pnk_blu.png","../images/ylw_slt.png","../images/blu_wht.png","../images/grn_prp.png","../images/cyn_red.png"],"mutagen_generator_assignment":[1,0],"goal":7,"start":10,"action_noise":0.15,"location_history":"[10,7]","action_history":"[0]","mutagen_history":"[1]","location_rts":"[5033]","trial_type":"fractal-mutation","trial_index":68,"time_elapsed":1960313,"internal_node_id":"0.0-5.0-29.0"},{"group":"dicyclic group of order 12","fractal_assignment":["../images/grn_blu.png","../images/wht_red.png","../images/org_blu.png","../images/grn_red.png","../images/red_prp.png","../images/gry_blk.png","../images/ylw_pnk.png","../images/pnk_blu.png","../images/ylw_slt.png","../images/blu_wht.png","../images/grn_prp.png","../images/cyn_red.png"],"mutagen_generator_assignment":[1,0],"goal":6,"start":7,"action_noise":0.15,"location_history":"[7,8,5,9,1,5,9,6]","action_history":"[0,0,1,1,1,1,1]","mutagen_history":"[1,1,0,0,0,0,0]","location_rts":"[1148,563,2902,1946,1590,1784,2686]","trial_type":"fractal-mutation","trial_index":69,"time_elapsed":1984637,"internal_node_id":"0.0-5.0-30.0"},{"group":"dicyclic group of order 12","fractal_assignment":["../images/grn_blu.png","../images/wht_red.png","../images/org_blu.png","../images/grn_red.png","../images/red_prp.png","../images/gry_blk.png","../images/ylw_pnk.png","../images/pnk_blu.png","../images/ylw_slt.png","../images/blu_wht.png","../images/grn_prp.png","../images/cyn_red.png"],"mutagen_generator_assignment":[1,0],"goal":0,"start":6,"action_noise":0.15,"location_history":"[6,10,2,3,7,11,3,0]","action_history":"[0,1,0,1,1,1,0]","mutagen_history":"[1,0,1,0,0,0,1]","location_rts":"[1242,3940,946,634,485,497,740]","trial_type":"fractal-mutation","trial_index":70,"time_elapsed":2004915,"internal_node_id":"0.0-5.0-31.0"},{"group":"dicyclic group of order 12","fractal_assignment":["../images/grn_blu.png","../images/wht_red.png","../images/org_blu.png","../images/grn_red.png","../images/red_prp.png","../images/gry_blk.png","../images/ylw_pnk.png","../images/pnk_blu.png","../images/ylw_slt.png","../images/blu_wht.png","../images/grn_prp.png","../images/cyn_red.png"],"mutagen_generator_assignment":[1,0],"goal":11,"start":0,"action_noise":0.15,"location_history":"[0,1,5,10,7,11]","action_history":"[0,1,0,0,1]","mutagen_history":"[1,0,1,1,0]","location_rts":"[1926,1973,2051,1660,1597]","trial_type":"fractal-mutation","trial_index":71,"time_elapsed":2023698,"internal_node_id":"0.0-5.0-32.0"},{"group":"dicyclic group of order 12","fractal_assignment":["../images/grn_blu.png","../images/wht_red.png","../images/org_blu.png","../images/grn_red.png","../images/red_prp.png","../images/gry_blk.png","../images/ylw_pnk.png","../images/pnk_blu.png","../images/ylw_slt.png","../images/blu_wht.png","../images/grn_prp.png","../images/cyn_red.png"],"mutagen_generator_assignment":[1,0],"goal":9,"start":11,"action_noise":0.15,"location_history":"[11,4,9]","action_history":"[0,0]","mutagen_history":"[1,1]","location_rts":"[2539,2777]","trial_type":"fractal-mutation","trial_index":72,"time_elapsed":2034924,"internal_node_id":"0.0-5.0-33.0"},{"group":"dicyclic group of order 12","fractal_assignment":["../images/grn_blu.png","../images/wht_red.png","../images/org_blu.png","../images/grn_red.png","../images/red_prp.png","../images/gry_blk.png","../images/ylw_pnk.png","../images/pnk_blu.png","../images/ylw_slt.png","../images/blu_wht.png","../images/grn_prp.png","../images/cyn_red.png"],"mutagen_generator_assignment":[1,0],"goal":5,"start":9,"action_noise":0.15,"location_history":"[9,6,11,4,8,5]","action_history":"[0,0,0,1,0]","mutagen_history":"[1,1,1,0,1]","location_rts":"[2369,836,645,1482,2347]","trial_type":"fractal-mutation","trial_index":73,"time_elapsed":2052262,"internal_node_id":"0.0-5.0-34.0"},{"view_history":"[{\"page_index\":0,\"viewing_time\":5905}]","rt":5905,"trial_type":"instructions","trial_index":74,"time_elapsed":2059167,"internal_node_id":"0.0-6.0"},{"rt":12163,"responses":"{\"Q0\":\"A lot of fun, thanks!\"}","trial_type":"survey-text","trial_index":75,"time_elapsed":2072335,"internal_node_id":"0.0-7.0"}]