[{"view_history":"[{\"page_index\":0,\"viewing_time\":1649028},{\"page_index\":1,\"viewing_time\":641929}]","rt":2290959,"trial_type":"instructions","trial_index":0,"time_elapsed":2290962,"internal_node_id":"0.0-0.0"},{"view_history":"[{\"page_index\":0,\"viewing_time\":1202},{\"page_index\":1,\"viewing_time\":6985}]","rt":8188,"trial_type":"instructions","trial_index":1,"time_elapsed":2300153,"internal_node_id":"0.0-1.0"},{"group":"dicyclic group of order 12","room_assignment":["red","pink","blue","purple","grey","green","orange","cyan","olive","ivory","brown","yellow"],"door_color_assignment":["white","black"],"door_generator_assignment":[1,0],"goal":7,"start":11,"action_noise":0.15,"location_history":"[11,3,7]","action_history":"[1,1]","door_history":"[0,0]","location_rts":"[1845,1071]","trial_type":"two-door-navigation","trial_index":2,"time_elapsed":2308755,"internal_node_id":"0.0-2.0-0.0"},{"group":"dicyclic group of order 12","room_assignment":["red","pink","blue","purple","grey","green","orange","cyan","olive","ivory","brown","yellow"],"door_color_assignment":["white","black"],"door_generator_assignment":[1,0],"goal":8,"start":7,"action_noise":0.15,"location_history":"[7,8]","action_history":"[1]","door_history":"[0]","location_rts":"[382]","trial_type":"two-door-navigation","trial_index":3,"time_elapsed":2313654,"internal_node_id":"0.0-2.0-1.0"},{"group":"dicyclic group of order 12","room_assignment":["red","pink","blue","purple","grey","green","orange","cyan","olive","ivory","brown","yellow"],"door_color_assignment":["white","black"],"door_generator_assignment":[1,0],"goal":4,"start":8,"action_noise":0.15,"location_history":"[8,0,4]","action_history":"[1,1]","door_history":"[0,0]","location_rts":"[404,4105]","trial_type":"two-door-navigation","trial_index":4,"time_elapsed":2323773,"internal_node_id":"0.0-2.0-2.0"},{"group":"dicyclic group of order 12","room_assignment":["red","pink","blue","purple","grey","green","orange","cyan","olive","ivory","brown","yellow"],"door_color_assignment":["white","black"],"door_generator_assignment":[1,0],"goal":5,"start":4,"action_noise":0.15,"location_history":"[4,9,1,5]","action_history":"[1,1,1]","door_history":"[0,0,0]","location_rts":"[3046,183,316]","trial_type":"two-door-navigation","trial_index":5,"time_elapsed":2334102,"internal_node_id":"0.0-2.0-3.0"},{"group":"dicyclic group of order 12","room_assignment":["red","pink","blue","purple","grey","green","orange","cyan","olive","ivory","brown","yellow"],"door_color_assignment":["white","black"],"door_generator_assignment":[1,0],"goal":10,"start":5,"action_noise":0.15,"location_history":"[5,9,6,10]","action_history":"[1,1,0]","door_history":"[0,0,1]","location_rts":"[325,352,76]","trial_type":"two-door-navigation","trial_index":6,"time_elapsed":2341487,"internal_node_id":"0.0-2.0-4.0"},{"group":"dicyclic group of order 12","room_assignment":["red","pink","blue","purple","grey","green","orange","cyan","olive","ivory","brown","yellow"],"door_color_assignment":["white","black"],"door_generator_assignment":[1,0],"goal":1,"start":10,"action_noise":0.15,"location_history":"[10,2,6,10,7,11,3,7,8,5,10,7,11,4,8,5,9,6,10,2,6,10,7,8,5,10,7,11,4,8,5,9,1]","action_history":"[1,1,1,0,1,1,1,0,0,0,0,1,0,0,0,0,0,1,1,1,1,1,0,1,0,0,1,0,0,0,1,1]","door_history":"[0,0,0,1,0,0,0,1,1,1,1,0,1,1,1,1,1,0,0,0,0,0,1,0,1,1,0,1,1,1,0,0]","location_rts":"[838,47,306,427,770,19,431,390,257,379,1319,73,278,111,79,81,141,136,18,8,53,325,308,124,294,144,6,812,273,281,370,65]","trial_type":"two-door-navigation","trial_index":7,"time_elapsed":2387287,"internal_node_id":"0.0-2.0-5.0"},{"group":"dicyclic group of order 12","room_assignment":["red","pink","blue","purple","grey","green","orange","cyan","olive","ivory","brown","yellow"],"door_color_assignment":["white","black"],"door_generator_assignment":[1,0],"goal":6,"start":1,"action_noise":0.15,"location_history":"[1,5,9,6]","action_history":"[1,1,1]","door_history":"[0,0,0]","location_rts":"[719,78,386]","trial_type":"two-door-navigation","trial_index":8,"time_elapsed":2395166,"internal_node_id":"0.0-2.0-6.0"},{"group":"dicyclic group of order 12","room_assignment":["red","pink","blue","purple","grey","green","orange","cyan","olive","ivory","brown","yellow"],"door_color_assignment":["white","black"],"door_generator_assignment":[1,0],"goal":9,"start":6,"action_noise":0.15,"location_history":"[6,10,7,8,0,1,5,9]","action_history":"[1,0,1,1,1,1,1]","door_history":"[0,1,0,0,0,0,0]","location_rts":"[311,247,56,114,338,45,260]","trial_type":"two-door-navigation","trial_index":9,"time_elapsed":2407291,"internal_node_id":"0.0-2.0-7.0"},{"group":"dicyclic group of order 12","room_assignment":["red","pink","blue","purple","grey","green","orange","cyan","olive","ivory","brown","yellow"],"door_color_assignment":["white","black"],"door_generator_assignment":[1,0],"goal":2,"start":9,"action_noise":0.15,"location_history":"[9,1,5,10,2]","action_history":"[1,1,1,1]","door_history":"[0,0,0,0]","location_rts":"[594,247,965,349]","trial_type":"two-door-navigation","trial_index":10,"time_elapsed":2416973,"internal_node_id":"0.0-2.0-8.0"},{"group":"dicyclic group of order 12","room_assignment":["red","pink","blue","purple","grey","green","orange","cyan","olive","ivory","brown","yellow"],"door_color_assignment":["white","black"],"door_generator_assignment":[1,0],"goal":0,"start":2,"action_noise":0.15,"location_history":"[2,6,10,7,8,5,9,6,10,2,6,11,4,9,6,11,4,9,1,5,9,1,5,10,2,6,11,4,8,5,10,7,8,5,9,6,11,3,0]","action_history":"[1,1,0,0,0,0,0,1,1,1,1,0,0,0,0,0,0,1,1,1,1,1,0,1,1,0,0,1,0,1,0,1,0,1,0,0,1,0]","door_history":"[0,0,1,1,1,1,1,0,0,0,0,1,1,1,1,1,1,0,0,0,0,0,1,0,0,1,1,0,1,0,1,0,1,0,1,1,0,1]","location_rts":"[407,572,425,544,311,372,313,639,380,348,268,554,771,111,49,334,457,137,189,327,186,104,895,5137,434,183,230,296,125,523,431,162,44,34,16,42,38,211]","trial_type":"two-door-navigation","trial_index":11,"time_elapsed":2476052,"internal_node_id":"0.0-2.0-9.0"},{"group":"dicyclic group of order 12","room_assignment":["red","pink","blue","purple","grey","green","orange","cyan","olive","ivory","brown","yellow"],"door_color_assignment":["white","black"],"door_generator_assignment":[1,0],"goal":3,"start":0,"action_noise":0.15,"location_history":"[0,4,9,6,10,2,6,11,3]","action_history":"[1,0,0,1,0,1,0,1]","door_history":"[0,1,1,0,1,0,1,0]","location_rts":"[422,3585,134,320,277,42,300,77]","trial_type":"two-door-navigation","trial_index":12,"time_elapsed":2493163,"internal_node_id":"0.0-2.0-10.0"},{"group":"dicyclic group of order 12","room_assignment":["red","pink","blue","purple","grey","green","orange","cyan","olive","ivory","brown","yellow"],"door_color_assignment":["white","black"],"door_generator_assignment":[1,0],"goal":10,"start":3,"action_noise":0.15,"location_history":"[3,0,4,8,0,4,9,6,10]","action_history":"[0,1,1,1,1,0,1,1]","door_history":"[1,0,0,0,0,1,0,0]","location_rts":"[671,366,76,471,322,102,140,667]","trial_type":"two-door-navigation","trial_index":13,"time_elapsed":2507622,"internal_node_id":"0.0-2.0-11.0"},{"group":"dicyclic group of order 12","room_assignment":["red","pink","blue","purple","grey","green","orange","cyan","olive","ivory","brown","yellow"],"door_color_assignment":["white","black"],"door_generator_assignment":[1,0],"goal":8,"start":10,"action_noise":0.15,"location_history":"[10,2,6,10,2,6,11,4,8]","action_history":"[1,1,1,1,1,0,0,0]","door_history":"[0,0,0,0,0,1,1,1]","location_rts":"[303,497,327,178,201,72,205,42]","trial_type":"two-door-navigation","trial_index":14,"time_elapsed":2521399,"internal_node_id":"0.0-2.0-12.0"},{"group":"dicyclic group of order 12","room_assignment":["red","pink","blue","purple","grey","green","orange","cyan","olive","ivory","brown","yellow"],"door_color_assignment":["white","black"],"door_generator_assignment":[1,0],"goal":4,"start":8,"action_noise":0.15,"location_history":"[8,0,1,5,10,7,8,5,10,7,11,3,0,1,5,10,7,8,0,1,5,10,7,11,3,7,8,0,1,5,10,2,3,7,11,3,0,1,5,9,1,2,3,0,1,5,10,7,8,5,10,7,8,0,4]","action_history":"[1,1,1,0,0,0,0,0,0,1,1,0,0,0,0,0,0,1,0,1,0,0,1,1,0,0,0,0,1,0,1,0,1,1,1,0,0,1,1,1,0,0,0,1,0,0,0,0,0,0,0,0,1,1]","door_history":"[0,0,0,1,1,1,1,1,1,0,0,1,1,1,1,1,1,0,1,0,1,1,0,0,1,1,1,1,0,1,0,1,0,0,0,1,1,0,0,0,1,1,1,0,1,1,1,1,1,1,1,1,0,0]","location_rts":"[601,147,204,214,235,48,85,77,297,613,149,247,175,21,68,53,115,25,69,305,39,11,483,100,15,98,407,387,372,388,72,57,11,45,18,456,315,809,345,38,4,291,315,366,210,105,173,45,89,18,43,58,246,56]","trial_type":"two-door-navigation","trial_index":15,"time_elapsed":2591041,"internal_node_id":"0.0-2.0-13.0"},{"group":"dicyclic group of order 12","room_assignment":["red","pink","blue","purple","grey","green","orange","cyan","olive","ivory","brown","yellow"],"door_color_assignment":["white","black"],"door_generator_assignment":[1,0],"goal":0,"start":4,"action_noise":0.15,"location_history":"[4,8,5,10,2,3,7,11,3,0]","action_history":"[1,0,0,1,1,1,1,1,1]","door_history":"[0,1,1,0,0,0,0,0,0]","location_rts":"[593,421,226,561,7,1189,828,363,3]","trial_type":"two-door-navigation","trial_index":16,"time_elapsed":2608042,"internal_node_id":"0.0-2.0-14.0"},{"group":"dicyclic group of order 12","room_assignment":["red","pink","blue","purple","grey","green","orange","cyan","olive","ivory","brown","yellow"],"door_color_assignment":["white","black"],"door_generator_assignment":[1,0],"goal":11,"start":0,"action_noise":0.15,"location_history":"[0,4,8,5,10,7,8,5,10,2,6,10,2,6,11]","action_history":"[1,1,0,0,0,0,0,0,0,1,1,1,1,1]","door_history":"[0,0,1,1,1,1,1,1,1,0,0,0,0,0]","location_rts":"[961,4223,347,220,22,144,305,650,826,338,426,360,157,279]","trial_type":"two-door-navigation","trial_index":17,"time_elapsed":2635141,"internal_node_id":"0.0-2.0-15.0"},{"group":"dicyclic group of order 12","room_assignment":["red","pink","blue","purple","grey","green","orange","cyan","olive","ivory","brown","yellow"],"door_color_assignment":["white","black"],"door_generator_assignment":[1,0],"goal":2,"start":11,"action_noise":0.15,"location_history":"[11,4,8,0,4,8,0,4,9,6,11,4,9,1,5,9,1,5,10,7,8,5,10,7,11,4,8,0,1,2]","action_history":"[0,1,0,1,1,1,1,0,0,0,0,0,1,1,1,1,1,0,0,0,0,0,1,1,1,1,1,0,0]","door_history":"[1,0,1,0,0,0,0,1,1,1,1,1,0,0,0,0,0,1,1,1,1,1,0,0,0,0,0,1,1]","location_rts":"[409,450,301,373,89,166,15,286,64,297,148,336,442,248,304,350,429,353,416,295,86,315,100,451,3271,18,78,335,192]","trial_type":"two-door-navigation","trial_index":18,"time_elapsed":2679565,"internal_node_id":"0.0-2.0-16.0"},{"group":"dicyclic group of order 12","room_assignment":["red","pink","blue","purple","grey","green","orange","cyan","olive","ivory","brown","yellow"],"door_color_assignment":["white","black"],"door_generator_assignment":[1,0],"goal":7,"start":2,"action_noise":0.15,"location_history":"[2,6,10,2,3,7]","action_history":"[1,1,1,0,1]","door_history":"[0,0,0,1,0]","location_rts":"[511,153,374,150,5987]","trial_type":"two-door-navigation","trial_index":19,"time_elapsed":2695326,"internal_node_id":"0.0-2.0-17.0"},{"group":"dicyclic group of order 12","room_assignment":["red","pink","blue","purple","grey","green","orange","cyan","olive","ivory","brown","yellow"],"door_color_assignment":["white","black"],"door_generator_assignment":[1,0],"goal":5,"start":7,"action_noise":0.15,"location_history":"[7,11,3,0,1,2,3,0,4,8,0,1,5]","action_history":"[1,1,0,0,0,0,0,1,0,0,0,1]","door_history":"[0,0,1,1,1,1,1,0,1,1,1,0]","location_rts":"[616,384,536,424,157,207,192,352,81,141,33,264]","trial_type":"two-door-navigation","trial_index":20,"time_elapsed":2714500,"internal_node_id":"0.0-2.0-18.0"},{"group":"dicyclic group of order 12","room_assignment":["red","pink","blue","purple","grey","green","orange","cyan","olive","ivory","brown","yellow"],"door_color_assignment":["white","black"],"door_generator_assignment":[1,0],"goal":6,"start":5,"action_noise":0.15,"location_history":"[5,10,2,6]","action_history":"[0,1,1]","door_history":"[1,0,0]","location_rts":"[598,276,77]","trial_type":"two-door-navigation","trial_index":21,"time_elapsed":2722021,"internal_node_id":"0.0-2.0-19.0"},{"group":"dicyclic group of order 12","room_assignment":["red","pink","blue","purple","grey","green","orange","cyan","olive","ivory","brown","yellow"],"door_color_assignment":["white","black"],"door_generator_assignment":[1,0],"goal":3,"start":6,"action_noise":0.15,"location_history":"[6,10,7,11,4,9,1,5,9,1,5,10,7,8,5,10,2,6,11,4,9,1,2,6,11,3]","action_history":"[1,0,1,0,1,1,0,1,1,1,0,0,0,0,0,1,1,1,1,0,1,0,1,0,1]","door_history":"[0,1,0,1,0,0,1,0,0,0,1,1,1,1,1,0,0,0,0,1,0,1,0,1,0]","location_rts":"[2612,59,57,414,37,217,465,70,281,493,465,119,118,12,120,345,3091,3069,379,69,112,67,102,46,119]","trial_type":"two-door-navigation","trial_index":22,"time_elapsed":2763963,"internal_node_id":"0.0-2.0-20.0"},{"group":"dicyclic group of order 12","room_assignment":["red","pink","blue","purple","grey","green","orange","cyan","olive","ivory","brown","yellow"],"door_color_assignment":["white","black"],"door_generator_assignment":[1,0],"goal":1,"start":3,"action_noise":0.15,"location_history":"[3,0,4,8,0,1]","action_history":"[1,1,1,1,0]","door_history":"[0,0,0,0,1]","location_rts":"[753,69,165,67,508]","trial_type":"two-door-navigation","trial_index":23,"time_elapsed":2774075,"internal_node_id":"0.0-2.0-21.0"},{"group":"dicyclic group of order 12","room_assignment":["red","pink","blue","purple","grey","green","orange","cyan","olive","ivory","brown","yellow"],"door_color_assignment":["white","black"],"door_generator_assignment":[1,0],"goal":9,"start":1,"action_noise":0.15,"location_history":"[1,5,9]","action_history":"[1,1]","door_history":"[0,0]","location_rts":"[537,85]","trial_type":"two-door-navigation","trial_index":24,"time_elapsed":2780226,"internal_node_id":"0.0-2.0-22.0"},{"group":"dicyclic group of order 12","room_assignment":["red","pink","blue","purple","grey","green","orange","cyan","olive","ivory","brown","yellow"],"door_color_assignment":["white","black"],"door_generator_assignment":[1,0],"goal":3,"start":9,"action_noise":0.15,"location_history":"[9,1,2,6,10,7,11,4,9,6,10,7,11,4,8,5,10,2,3]","action_history":"[1,1,1,1,0,1,1,0,1,1,0,1,0,1,0,0,1,1]","door_history":"[0,0,0,0,1,0,0,1,0,0,1,0,1,0,1,1,0,0]","location_rts":"[501,22,100,95,196,3709,6084,218,1,624,20,2303,59,725,1403,81,340,861]","trial_type":"two-door-navigation","trial_index":25,"time_elapsed":2821408,"internal_node_id":"0.0-2.0-23.0"},{"group":"dicyclic group of order 12","room_assignment":["red","pink","blue","purple","grey","green","orange","cyan","olive","ivory","brown","yellow"],"door_color_assignment":["white","black"],"door_generator_assignment":[1,0],"goal":4,"start":3,"action_noise":0.15,"location_history":"[3,7,8,0,4]","action_history":"[1,0,1,1]","door_history":"[0,1,0,0]","location_rts":"[599,27,63,17]","trial_type":"two-door-navigation","trial_index":26,"time_elapsed":2829748,"internal_node_id":"0.0-2.0-24.0"},{"group":"dicyclic group of order 12","room_assignment":["red","pink","blue","purple","grey","green","orange","cyan","olive","ivory","brown","yellow"],"door_color_assignment":["white","black"],"door_generator_assignment":[1,0],"goal":2,"start":4,"action_noise":0.15,"location_history":"[4,8,0,4,9,1,5,9,6,10,7,11,4,8,0,4,8,5,9,6,10,2]","action_history":"[1,0,1,0,1,1,1,0,1,0,1,1,1,1,1,1,0,1,0,1,1]","door_history":"[0,1,0,1,0,0,0,1,0,1,0,0,0,0,0,0,1,0,1,0,0]","location_rts":"[457,89,54,73,436,337,24,231,286,81,66,91,10,4175,178,348,7,421,436,311,184]","trial_type":"two-door-navigation","trial_index":27,"time_elapsed":2863361,"internal_node_id":"0.0-2.0-25.0"},{"group":"dicyclic group of order 12","room_assignment":["red","pink","blue","purple","grey","green","orange","cyan","olive","ivory","brown","yellow"],"door_color_assignment":["white","black"],"door_generator_assignment":[1,0],"goal":1,"start":2,"action_noise":0.15,"location_history":"[2,6,11,4,9,6,10,2,6,10,2,6,10,2,3,0,4,8,0,1]","action_history":"[1,0,0,0,0,1,1,1,1,0,1,1,1,0,0,1,1,1,0]","door_history":"[0,1,1,1,1,0,0,0,0,1,0,0,0,1,1,0,0,0,1]","location_rts":"[348,429,362,13,293,361,367,40,37,345,127,118,350,500,198,224,596,210,392]","trial_type":"two-door-navigation","trial_index":28,"time_elapsed":2892002,"internal_node_id":"0.0-2.0-26.0"},{"group":"dicyclic group of order 12","room_assignment":["red","pink","blue","purple","grey","green","orange","cyan","olive","ivory","brown","yellow"],"door_color_assignment":["white","black"],"door_generator_assignment":[1,0],"goal":8,"start":1,"action_noise":0.15,"location_history":"[1,5,10,7,8]","action_history":"[1,0,0,0]","door_history":"[0,1,1,1]","location_rts":"[812,464,255,249]","trial_type":"two-door-navigation","trial_index":29,"time_elapsed":2901553,"internal_node_id":"0.0-2.0-27.0"},{"group":"dicyclic group of order 12","room_assignment":["red","pink","blue","purple","grey","green","orange","cyan","olive","ivory","brown","yellow"],"door_color_assignment":["white","black"],"door_generator_assignment":[1,0],"goal":10,"start":8,"action_noise":0.15,"location_history":"[8,0,1,5,10]","action_history":"[1,0,0,0]","door_history":"[0,1,1,1]","location_rts":"[572,603,516,268]","trial_type":"two-door-navigation","trial_index":30,"time_elapsed":2911048,"internal_node_id":"0.0-2.0-28.0"},{"group":"dicyclic group of order 12","room_assignment":["red","pink","blue","purple","grey","green","orange","cyan","olive","ivory","brown","yellow"],"door_color_assignment":["white","black"],"door_generator_assignment":[1,0],"goal":7,"start":10,"action_noise":0.15,"location_history":"[10,7]","action_history":"[0]","door_history":"[1]","location_rts":"[740]","trial_type":"two-door-navigation","trial_index":31,"time_elapsed":2916304,"internal_node_id":"0.0-2.0-29.0"},{"group":"dicyclic group of order 12","room_assignment":["red","pink","blue","purple","grey","green","orange","cyan","olive","ivory","brown","yellow"],"door_color_assignment":["white","black"],"door_generator_assignment":[1,0],"goal":6,"start":7,"action_noise":0.15,"location_history":"[7,11,3,7,11,3,7,11,3,7,11,3,0,1,2,6]","action_history":"[1,1,1,1,0,1,1,1,0,1,1,0,0,1,1]","door_history":"[0,0,0,0,1,0,0,0,1,0,0,1,1,0,0]","location_rts":"[1351,490,204,46,585,562,107,342,127,381,345,453,309,2151,333]","trial_type":"two-door-navigation","trial_index":32,"time_elapsed":2943022,"internal_node_id":"0.0-2.0-30.0"},{"group":"dicyclic group of order 12","room_assignment":["red","pink","blue","purple","grey","green","orange","cyan","olive","ivory","brown","yellow"],"door_color_assignment":["white","black"],"door_generator_assignment":[1,0],"goal":0,"start":6,"action_noise":0.15,"location_history":"[6,10,2,6,10,7,11,3,7,11,3,7,11,3,0]","action_history":"[1,1,1,1,0,1,1,1,1,0,1,1,1,0]","door_history":"[0,0,0,0,1,0,0,0,0,1,0,0,0,1]","location_rts":"[951,381,359,374,382,222,124,246,452,52,623,577,431,68]","trial_type":"two-door-navigation","trial_index":33,"time_elapsed":2966198,"internal_node_id":"0.0-2.0-31.0"},{"group":"dicyclic group of order 12","room_assignment":["red","pink","blue","purple","grey","green","orange","cyan","olive","ivory","brown","yellow"],"door_color_assignment":["white","black"],"door_generator_assignment":[1,0],"goal":11,"start":0,"action_noise":0.15,"location_history":"[0,4,9,1,5,9,6,10,2,6,10,2,3,7,11]","action_history":"[1,1,1,1,1,0,1,1,1,1,1,0,1,1]","door_history":"[0,0,0,0,0,1,0,0,0,0,0,1,0,0]","location_rts":"[607,278,297,374,770,704,427,308,122,193,316,25,587,96]","trial_type":"two-door-navigation","trial_index":34,"time_elapsed":2989270,"internal_node_id":"0.0-2.0-32.0"},{"group":"dicyclic group of order 12","room_assignment":["red","pink","blue","purple","grey","green","orange","cyan","olive","ivory","brown","yellow"],"door_color_assignment":["white","black"],"door_generator_assignment":[1,0],"goal":9,"start":11,"action_noise":0.15,"location_history":"[11,3,7,11,3,7,8,0,4,8,5,9]","action_history":"[1,1,1,1,1,0,1,1,1,1,1]","door_history":"[0,0,0,0,0,1,0,0,0,0,0]","location_rts":"[1019,70,146,297,333,1013,288,236,668,384,377]","trial_type":"two-door-navigation","trial_index":35,"time_elapsed":3009074,"internal_node_id":"0.0-2.0-33.0"},{"group":"dicyclic group of order 12","room_assignment":["red","pink","blue","purple","grey","green","orange","cyan","olive","ivory","brown","yellow"],"door_color_assignment":["white","black"],"door_generator_assignment":[1,0],"goal":5,"start":9,"action_noise":0.15,"location_history":"[9,6,10,2,6,10,2,6,10,2,3,7,11,3,0,4,8,0,1,5]","action_history":"[1,1,1,1,1,1,1,1,1,0,1,1,1,0,1,1,1,1,1]","door_history":"[0,0,0,0,0,0,0,0,0,1,0,0,0,1,0,0,0,0,0]","location_rts":"[1035,651,849,1212,458,607,422,338,402,256,34,175,222,572,190,346,137,260,120]","trial_type":"two-door-navigation","trial_index":36,"time_elapsed":3040548,"internal_node_id":"0.0-2.0-34.0"},{"view_history":"[{\"page_index\":0,\"viewing_time\":1947}]","rt":1948,"trial_type":"instructions","trial_index":37,"time_elapsed":3043496,"internal_node_id":"0.0-3.0"},{"view_history":"[{\"page_index\":0,\"viewing_time\":1502},{\"page_index\":1,\"viewing_time\":6937}]","rt":8442,"trial_type":"instructions","trial_index":38,"time_elapsed":3052938,"internal_node_id":"0.0-4.0"},{"group":"dicyclic group of order 12","fractal_assignment":["../images/cyn_red.png","../images/pnk_blu.png","../images/blu_wht.png","../images/grn_prp.png","../images/ylw_pnk.png","../images/grn_blu.png","../images/ylw_slt.png","../images/grn_red.png","../images/org_blu.png","../images/gry_blk.png","../images/wht_red.png","../images/red_prp.png"],"mutagen_generator_assignment":[0,1],"goal":7,"start":11,"action_noise":0.15,"location_history":"[11,4,9,6,11,4,8,5,9,6,11,4,9,6,11,4,8,0,1,2,3,7]","action_history":"[0,0,0,0,0,1,1,0,0,0,0,1,0,0,0,1,1,0,0,0,0]","mutagen_history":"[0,0,0,0,0,1,1,0,0,0,0,1,0,0,0,1,1,0,0,0,0]","location_rts":"[3593,901,1346,212,476,399,474,868,407,345,449,123,237,301,405,402,243,577,432,389,576]","trial_type":"fractal-mutation","trial_index":39,"time_elapsed":3099128,"internal_node_id":"0.0-5.0-0.0"},{"group":"dicyclic group of order 12","fractal_assignment":["../images/cyn_red.png","../images/pnk_blu.png","../images/blu_wht.png","../images/grn_prp.png","../images/ylw_pnk.png","../images/grn_blu.png","../images/ylw_slt.png","../images/grn_red.png","../images/org_blu.png","../images/gry_blk.png","../images/wht_red.png","../images/red_prp.png"],"mutagen_generator_assignment":[0,1],"goal":8,"start":7,"action_noise":0.15,"location_history":"[7,8]","action_history":"[0]","mutagen_history":"[0]","location_rts":"[725]","trial_type":"fractal-mutation","trial_index":40,"time_elapsed":3104427,"internal_node_id":"0.0-5.0-1.0"},{"group":"dicyclic group of order 12","fractal_assignment":["../images/cyn_red.png","../images/pnk_blu.png","../images/blu_wht.png","../images/grn_prp.png","../images/ylw_pnk.png","../images/grn_blu.png","../images/ylw_slt.png","../images/grn_red.png","../images/org_blu.png","../images/gry_blk.png","../images/wht_red.png","../images/red_prp.png"],"mutagen_generator_assignment":[0,1],"goal":4,"start":8,"action_noise":0.15,"location_history":"[8,5,10,7,8,5,10,7,8,0,1,2,3,0,4]","action_history":"[0,0,0,0,0,1,0,0,1,0,0,0,0,0]","mutagen_history":"[0,0,0,0,0,1,0,0,1,0,0,0,0,0]","location_rts":"[2942,463,393,387,553,544,337,443,123,434,430,379,342,336]","trial_type":"fractal-mutation","trial_index":41,"time_elapsed":3134474,"internal_node_id":"0.0-5.0-2.0"},{"group":"dicyclic group of order 12","fractal_assignment":["../images/cyn_red.png","../images/pnk_blu.png","../images/blu_wht.png","../images/grn_prp.png","../images/ylw_pnk.png","../images/grn_blu.png","../images/ylw_slt.png","../images/grn_red.png","../images/org_blu.png","../images/gry_blk.png","../images/wht_red.png","../images/red_prp.png"],"mutagen_generator_assignment":[0,1],"goal":5,"start":4,"action_noise":0.15,"location_history":"[4,9,6,11,4,9,6,11,3,0,1,2,6,11,4,9,6,10,7,8,5]","action_history":"[0,0,0,0,0,0,0,1,0,0,0,0,0,0,0,1,1,0,0,0]","mutagen_history":"[0,0,0,0,0,0,0,1,0,0,0,0,0,0,0,1,1,0,0,0]","location_rts":"[75,385,371,383,408,425,471,599,268,402,386,359,481,486,736,301,513,495,485,327]","trial_type":"fractal-mutation","trial_index":42,"time_elapsed":3172221,"internal_node_id":"0.0-5.0-3.0"},{"group":"dicyclic group of order 12","fractal_assignment":["../images/cyn_red.png","../images/pnk_blu.png","../images/blu_wht.png","../images/grn_prp.png","../images/ylw_pnk.png","../images/grn_blu.png","../images/ylw_slt.png","../images/grn_red.png","../images/org_blu.png","../images/gry_blk.png","../images/wht_red.png","../images/red_prp.png"],"mutagen_generator_assignment":[0,1],"goal":10,"start":5,"action_noise":0.15,"location_history":"[5,10]","action_history":"[0]","mutagen_history":"[0]","location_rts":"[566]","trial_type":"fractal-mutation","trial_index":43,"time_elapsed":3177732,"internal_node_id":"0.0-5.0-4.0"},{"group":"dicyclic group of order 12","fractal_assignment":["../images/cyn_red.png","../images/pnk_blu.png","../images/blu_wht.png","../images/grn_prp.png","../images/ylw_pnk.png","../images/grn_blu.png","../images/ylw_slt.png","../images/grn_red.png","../images/org_blu.png","../images/gry_blk.png","../images/wht_red.png","../images/red_prp.png"],"mutagen_generator_assignment":[0,1],"goal":1,"start":10,"action_noise":0.15,"location_history":"[10,7,8,0,1]","action_history":"[0,0,0,0]","mutagen_history":"[0,0,0,0]","location_rts":"[455,890,391,1525]","trial_type":"fractal-mutation","trial_index":44,"time_elapsed":3188914,"internal_node_id":"0.0-5.0-5.0"},{"group":"dicyclic group of order 12","fractal_assignment":["../images/cyn_red.png","../images/pnk_blu.png","../images/blu_wht.png","../images/grn_prp.png","../images/ylw_pnk.png","../images/grn_blu.png","../images/ylw_slt.png","../images/grn_red.png","../images/org_blu.png","../images/gry_blk.png","../images/wht_red.png","../images/red_prp.png"],"mutagen_generator_assignment":[0,1],"goal":6,"start":1,"action_noise":0.15,"location_history":"[1,2,3,0,4,8,5,10,7,8,5,9,6]","action_history":"[0,0,0,0,1,0,0,0,0,0,1,1]","mutagen_history":"[0,0,0,0,1,0,0,0,0,0,1,1]","location_rts":"[515,373,281,474,511,174,374,461,408,482,786,2075]","trial_type":"fractal-mutation","trial_index":45,"time_elapsed":3214957,"internal_node_id":"0.0-5.0-6.0"},{"group":"dicyclic group of order 12","fractal_assignment":["../images/cyn_red.png","../images/pnk_blu.png","../images/blu_wht.png","../images/grn_prp.png","../images/ylw_pnk.png","../images/grn_blu.png","../images/ylw_slt.png","../images/grn_red.png","../images/org_blu.png","../images/gry_blk.png","../images/wht_red.png","../images/red_prp.png"],"mutagen_generator_assignment":[0,1],"goal":9,"start":6,"action_noise":0.15,"location_history":"[6,11,4,8,0,1,2,3,0,4,9]","action_history":"[0,0,0,0,0,0,0,0,1,0]","mutagen_history":"[0,0,0,0,0,0,0,0,1,0]","location_rts":"[654,376,369,374,449,743,419,361,730,32858]","trial_type":"fractal-mutation","trial_index":46,"time_elapsed":3271356,"internal_node_id":"0.0-5.0-7.0"},{"group":"dicyclic group of order 12","fractal_assignment":["../images/cyn_red.png","../images/pnk_blu.png","../images/blu_wht.png","../images/grn_prp.png","../images/ylw_pnk.png","../images/grn_blu.png","../images/ylw_slt.png","../images/grn_red.png","../images/org_blu.png","../images/gry_blk.png","../images/wht_red.png","../images/red_prp.png"],"mutagen_generator_assignment":[0,1],"goal":2,"start":9,"action_noise":0.15,"location_history":"[9,6,11,4,8,5,10,7,8,0,1,2]","action_history":"[0,0,0,0,1,0,0,0,0,0,0]","mutagen_history":"[0,0,0,0,1,0,0,0,0,0,0]","location_rts":"[965,322,313,371,469,205,387,312,323,449,222]","trial_type":"fractal-mutation","trial_index":47,"time_elapsed":3293538,"internal_node_id":"0.0-5.0-8.0"},{"group":"dicyclic group of order 12","fractal_assignment":["../images/cyn_red.png","../images/pnk_blu.png","../images/blu_wht.png","../images/grn_prp.png","../images/ylw_pnk.png","../images/grn_blu.png","../images/ylw_slt.png","../images/grn_red.png","../images/org_blu.png","../images/gry_blk.png","../images/wht_red.png","../images/red_prp.png"],"mutagen_generator_assignment":[0,1],"goal":0,"start":2,"action_noise":0.15,"location_history":"[2,3,7,8,5,9,6,11,3,7,11,3,7,8,5,10,2,3,0]","action_history":"[0,0,0,0,0,0,0,0,0,0,0,1,0,0,0,0,0,0]","mutagen_history":"[0,0,0,0,0,0,0,0,0,0,0,1,0,0,0,0,0,0]","location_rts":"[140,219,457,376,384,361,453,364,8592,402,412,265,456,380,347,948,378,418]","trial_type":"fractal-mutation","trial_index":48,"time_elapsed":3333841,"internal_node_id":"0.0-5.0-9.0"},{"group":"dicyclic group of order 12","fractal_assignment":["../images/cyn_red.png","../images/pnk_blu.png","../images/blu_wht.png","../images/grn_prp.png","../images/ylw_pnk.png","../images/grn_blu.png","../images/ylw_slt.png","../images/grn_red.png","../images/org_blu.png","../images/gry_blk.png","../images/wht_red.png","../images/red_prp.png"],"mutagen_generator_assignment":[0,1],"goal":3,"start":0,"action_noise":0.15,"location_history":"[0,1,5,10,7,8,0,4,9,6,11,4,8,5,10,7,8,5,9,6,11,3]","action_history":"[0,0,0,0,0,0,0,1,0,0,0,1,0,0,0,0,0,0,0,0,0]","mutagen_history":"[0,0,0,0,0,0,0,1,0,0,0,1,0,0,0,0,0,0,0,0,0]","location_rts":"[1273,310,741,300,309,403,520,470,767,405,125,463,217,192,325,505,422,470,487,382,387]","trial_type":"fractal-mutation","trial_index":49,"time_elapsed":3373703,"internal_node_id":"0.0-5.0-10.0"},{"group":"dicyclic group of order 12","fractal_assignment":["../images/cyn_red.png","../images/pnk_blu.png","../images/blu_wht.png","../images/grn_prp.png","../images/ylw_pnk.png","../images/grn_blu.png","../images/ylw_slt.png","../images/grn_red.png","../images/org_blu.png","../images/gry_blk.png","../images/wht_red.png","../images/red_prp.png"],"mutagen_generator_assignment":[0,1],"goal":10,"start":3,"action_noise":0.15,"location_history":"[3,7,8,5,10]","action_history":"[0,0,0,0]","mutagen_history":"[0,0,0,0]","location_rts":"[541,254,290,495]","trial_type":"fractal-mutation","trial_index":50,"time_elapsed":3382971,"internal_node_id":"0.0-5.0-11.0"},{"group":"dicyclic group of order 12","fractal_assignment":["../images/cyn_red.png","../images/pnk_blu.png","../images/blu_wht.png","../images/grn_prp.png","../images/ylw_pnk.png","../images/grn_blu.png","../images/ylw_slt.png","../images/grn_red.png","../images/org_blu.png","../images/gry_blk.png","../images/wht_red.png","../images/red_prp.png"],"mutagen_generator_assignment":[0,1],"goal":8,"start":10,"action_noise":0.15,"location_history":"[10,2,3,0,4,9,6,10,7,8]","action_history":"[0,0,0,0,0,0,0,0,0]","mutagen_history":"[0,0,0,0,0,0,0,0,0]","location_rts":"[425,127,260,303,394,346,322,539,405]","trial_type":"fractal-mutation","trial_index":51,"time_elapsed":3400527,"internal_node_id":"0.0-5.0-12.0"},{"group":"dicyclic group of order 12","fractal_assignment":["../images/cyn_red.png","../images/pnk_blu.png","../images/blu_wht.png","../images/grn_prp.png","../images/ylw_pnk.png","../images/grn_blu.png","../images/ylw_slt.png","../images/grn_red.png","../images/org_blu.png","../images/gry_blk.png","../images/wht_red.png","../images/red_prp.png"],"mutagen_generator_assignment":[0,1],"goal":4,"start":8,"action_noise":0.15,"location_history":"[8,5,10,7,8,5,10,7,8,5,9,6,11,4]","action_history":"[0,0,0,0,0,0,0,0,0,1,0,0,0]","mutagen_history":"[0,0,0,0,0,0,0,0,0,1,0,0,0]","location_rts":"[3693,106,244,253,324,281,341,34,80,595,150,211,26]","trial_type":"fractal-mutation","trial_index":52,"time_elapsed":3425700,"internal_node_id":"0.0-5.0-13.0"},{"group":"dicyclic group of order 12","fractal_assignment":["../images/cyn_red.png","../images/pnk_blu.png","../images/blu_wht.png","../images/grn_prp.png","../images/ylw_pnk.png","../images/grn_blu.png","../images/ylw_slt.png","../images/grn_red.png","../images/org_blu.png","../images/gry_blk.png","../images/wht_red.png","../images/red_prp.png"],"mutagen_generator_assignment":[0,1],"goal":0,"start":4,"action_noise":0.15,"location_history":"[4,9,1,2,3,0]","action_history":"[0,1,0,0,0]","mutagen_history":"[0,1,0,0,0]","location_rts":"[317,566,51,90,278]","trial_type":"fractal-mutation","trial_index":53,"time_elapsed":3437249,"internal_node_id":"0.0-5.0-14.0"},{"group":"dicyclic group of order 12","fractal_assignment":["../images/cyn_red.png","../images/pnk_blu.png","../images/blu_wht.png","../images/grn_prp.png","../images/ylw_pnk.png","../images/grn_blu.png","../images/ylw_slt.png","../images/grn_red.png","../images/org_blu.png","../images/gry_blk.png","../images/wht_red.png","../images/red_prp.png"],"mutagen_generator_assignment":[0,1],"goal":11,"start":0,"action_noise":0.15,"location_history":"[0,1,5,10,7,8,5,10,7,8,0,1,2,6,11]","action_history":"[0,1,0,0,0,0,0,0,0,0,0,1,1,0]","mutagen_history":"[0,1,0,0,0,0,0,0,0,0,0,1,1,0]","location_rts":"[532,664,135,126,306,342,359,449,385,546,1377,381,1261,568]","trial_type":"fractal-mutation","trial_index":54,"time_elapsed":3467335,"internal_node_id":"0.0-5.0-15.0"},{"group":"dicyclic group of order 12","fractal_assignment":["../images/cyn_red.png","../images/pnk_blu.png","../images/blu_wht.png","../images/grn_prp.png","../images/ylw_pnk.png","../images/grn_blu.png","../images/ylw_slt.png","../images/grn_red.png","../images/org_blu.png","../images/gry_blk.png","../images/wht_red.png","../images/red_prp.png"],"mutagen_generator_assignment":[0,1],"goal":2,"start":11,"action_noise":0.15,"location_history":"[11,4,8,5,10,7,8,0,1,2]","action_history":"[0,1,0,0,0,0,0,0,0]","mutagen_history":"[0,1,0,0,0,0,0,0,0]","location_rts":"[443,393,713,361,357,670,543,444,78]","trial_type":"fractal-mutation","trial_index":55,"time_elapsed":3486824,"internal_node_id":"0.0-5.0-16.0"},{"group":"dicyclic group of order 12","fractal_assignment":["../images/cyn_red.png","../images/pnk_blu.png","../images/blu_wht.png","../images/grn_prp.png","../images/ylw_pnk.png","../images/grn_blu.png","../images/ylw_slt.png","../images/grn_red.png","../images/org_blu.png","../images/gry_blk.png","../images/wht_red.png","../images/red_prp.png"],"mutagen_generator_assignment":[0,1],"goal":7,"start":2,"action_noise":0.15,"location_history":"[2,3,7]","action_history":"[0,0]","mutagen_history":"[0,0]","location_rts":"[757,298]","trial_type":"fractal-mutation","trial_index":56,"time_elapsed":3493618,"internal_node_id":"0.0-5.0-17.0"},{"group":"dicyclic group of order 12","fractal_assignment":["../images/cyn_red.png","../images/pnk_blu.png","../images/blu_wht.png","../images/grn_prp.png","../images/ylw_pnk.png","../images/grn_blu.png","../images/ylw_slt.png","../images/grn_red.png","../images/org_blu.png","../images/gry_blk.png","../images/wht_red.png","../images/red_prp.png"],"mutagen_generator_assignment":[0,1],"goal":5,"start":7,"action_noise":0.15,"location_history":"[7,8,5]","action_history":"[0,0]","mutagen_history":"[0,0]","location_rts":"[515,172]","trial_type":"fractal-mutation","trial_index":57,"time_elapsed":3500324,"internal_node_id":"0.0-5.0-18.0"},{"group":"dicyclic group of order 12","fractal_assignment":["../images/cyn_red.png","../images/pnk_blu.png","../images/blu_wht.png","../images/grn_prp.png","../images/ylw_pnk.png","../images/grn_blu.png","../images/ylw_slt.png","../images/grn_red.png","../images/org_blu.png","../images/gry_blk.png","../images/wht_red.png","../images/red_prp.png"],"mutagen_generator_assignment":[0,1],"goal":6,"start":5,"action_noise":0.15,"location_history":"[5,10,7,8,5,10,2,3,0,1,2,3,0,4,9,6]","action_history":"[0,0,0,0,0,1,0,1,0,0,0,0,0,0,0]","mutagen_history":"[0,0,0,0,0,1,0,1,0,0,0,0,0,0,0]","location_rts":"[993,0,213,103,170,517,475,459,106,149,116,432,405,68,323]","trial_type":"fractal-mutation","trial_index":58,"time_elapsed":3528743,"internal_node_id":"0.0-5.0-19.0"},{"group":"dicyclic group of order 12","fractal_assignment":["../images/cyn_red.png","../images/pnk_blu.png","../images/blu_wht.png","../images/grn_prp.png","../images/ylw_pnk.png","../images/grn_blu.png","../images/ylw_slt.png","../images/grn_red.png","../images/org_blu.png","../images/gry_blk.png","../images/wht_red.png","../images/red_prp.png"],"mutagen_generator_assignment":[0,1],"goal":3,"start":6,"action_noise":0.15,"location_history":"[6,11,4,9,6,11,4,8,5,10,7,8,5,10,7,11,3]","action_history":"[0,0,0,0,0,0,1,0,0,0,0,0,0,0,1,1]","mutagen_history":"[0,0,0,0,0,0,1,0,0,0,0,0,0,0,1,1]","location_rts":"[545,396,500,358,471,555,340,465,232,255,307,366,417,363,304,411]","trial_type":"fractal-mutation","trial_index":59,"time_elapsed":3559520,"internal_node_id":"0.0-5.0-20.0"},{"group":"dicyclic group of order 12","fractal_assignment":["../images/cyn_red.png","../images/pnk_blu.png","../images/blu_wht.png","../images/grn_prp.png","../images/ylw_pnk.png","../images/grn_blu.png","../images/ylw_slt.png","../images/grn_red.png","../images/org_blu.png","../images/gry_blk.png","../images/wht_red.png","../images/red_prp.png"],"mutagen_generator_assignment":[0,1],"goal":1,"start":3,"action_noise":0.15,"location_history":"[3,0,1]","action_history":"[0,0]","mutagen_history":"[0,0]","location_rts":"[678,446]","trial_type":"fractal-mutation","trial_index":60,"time_elapsed":3566243,"internal_node_id":"0.0-5.0-21.0"},{"group":"dicyclic group of order 12","fractal_assignment":["../images/cyn_red.png","../images/pnk_blu.png","../images/blu_wht.png","../images/grn_prp.png","../images/ylw_pnk.png","../images/grn_blu.png","../images/ylw_slt.png","../images/grn_red.png","../images/org_blu.png","../images/gry_blk.png","../images/wht_red.png","../images/red_prp.png"],"mutagen_generator_assignment":[0,1],"goal":9,"start":1,"action_noise":0.15,"location_history":"[1,2,3,0,4,9]","action_history":"[0,0,0,1,0]","mutagen_history":"[0,0,0,1,0]","location_rts":"[535,301,398,745,426]","trial_type":"fractal-mutation","trial_index":61,"time_elapsed":3578985,"internal_node_id":"0.0-5.0-22.0"},{"group":"dicyclic group of order 12","fractal_assignment":["../images/cyn_red.png","../images/pnk_blu.png","../images/blu_wht.png","../images/grn_prp.png","../images/ylw_pnk.png","../images/grn_blu.png","../images/ylw_slt.png","../images/grn_red.png","../images/org_blu.png","../images/gry_blk.png","../images/wht_red.png","../images/red_prp.png"],"mutagen_generator_assignment":[0,1],"goal":3,"start":9,"action_noise":0.15,"location_history":"[9,6,11,3]","action_history":"[0,0,1]","mutagen_history":"[0,0,1]","location_rts":"[577,435,784]","trial_type":"fractal-mutation","trial_index":62,"time_elapsed":3587962,"internal_node_id":"0.0-5.0-23.0"},{"group":"dicyclic group of order 12","fractal_assignment":["../images/cyn_red.png","../images/pnk_blu.png","../images/blu_wht.png","../images/grn_prp.png","../images/ylw_pnk.png","../images/grn_blu.png","../images/ylw_slt.png","../images/grn_red.png","../images/org_blu.png","../images/gry_blk.png","../images/wht_red.png","../images/red_prp.png"],"mutagen_generator_assignment":[0,1],"goal":4,"start":3,"action_noise":0.15,"location_history":"[3,0,1,5,10,7,8,0,1,2,6,11,4]","action_history":"[0,0,0,0,0,0,0,1,0,0,0,0]","mutagen_history":"[0,0,0,0,0,0,0,1,0,0,0,0]","location_rts":"[482,317,223,41,438,382,340,721,349,59,158,380]","trial_type":"fractal-mutation","trial_index":63,"time_elapsed":3610978,"internal_node_id":"0.0-5.0-24.0"},{"group":"dicyclic group of order 12","fractal_assignment":["../images/cyn_red.png","../images/pnk_blu.png","../images/blu_wht.png","../images/grn_prp.png","../images/ylw_pnk.png","../images/grn_blu.png","../images/ylw_slt.png","../images/grn_red.png","../images/org_blu.png","../images/gry_blk.png","../images/wht_red.png","../images/red_prp.png"],"mutagen_generator_assignment":[0,1],"goal":2,"start":4,"action_noise":0.15,"location_history":"[4,9,6,11,3,0,4,9,6,11,3,0,1,2]","action_history":"[0,1,0,0,0,0,0,0,0,0,0,0,0]","mutagen_history":"[0,1,0,0,0,0,0,0,0,0,0,0,0]","location_rts":"[1444,599,433,416,91,131,627,392,343,155,414,506,76]","trial_type":"fractal-mutation","trial_index":64,"time_elapsed":3637480,"internal_node_id":"0.0-5.0-25.0"},{"group":"dicyclic group of order 12","fractal_assignment":["../images/cyn_red.png","../images/pnk_blu.png","../images/blu_wht.png","../images/grn_prp.png","../images/ylw_pnk.png","../images/grn_blu.png","../images/ylw_slt.png","../images/grn_red.png","../images/org_blu.png","../images/gry_blk.png","../images/wht_red.png","../images/red_prp.png"],"mutagen_generator_assignment":[0,1],"goal":1,"start":2,"action_noise":0.15,"location_history":"[2,6,10,2,3,0,1]","action_history":"[1,1,1,0,0,0]","mutagen_history":"[1,1,1,0,0,0]","location_rts":"[1569,1629,439,852,341,292]","trial_type":"fractal-mutation","trial_index":65,"time_elapsed":3655301,"internal_node_id":"0.0-5.0-26.0"},{"group":"dicyclic group of order 12","fractal_assignment":["../images/cyn_red.png","../images/pnk_blu.png","../images/blu_wht.png","../images/grn_prp.png","../images/ylw_pnk.png","../images/grn_blu.png","../images/ylw_slt.png","../images/grn_red.png","../images/org_blu.png","../images/gry_blk.png","../images/wht_red.png","../images/red_prp.png"],"mutagen_generator_assignment":[0,1],"goal":8,"start":1,"action_noise":0.15,"location_history":"[1,5,10,7,8]","action_history":"[0,0,0,0]","mutagen_history":"[0,0,0,0]","location_rts":"[995,843,439,643]","trial_type":"fractal-mutation","trial_index":66,"time_elapsed":3666101,"internal_node_id":"0.0-5.0-27.0"},{"group":"dicyclic group of order 12","fractal_assignment":["../images/cyn_red.png","../images/pnk_blu.png","../images/blu_wht.png","../images/grn_prp.png","../images/ylw_pnk.png","../images/grn_blu.png","../images/ylw_slt.png","../images/grn_red.png","../images/org_blu.png","../images/gry_blk.png","../images/wht_red.png","../images/red_prp.png"],"mutagen_generator_assignment":[0,1],"goal":10,"start":8,"action_noise":0.15,"location_history":"[8,0,1,5,10]","action_history":"[0,0,0,0]","mutagen_history":"[0,0,0,0]","location_rts":"[875,352,361,110]","trial_type":"fractal-mutation","trial_index":67,"time_elapsed":3675645,"internal_node_id":"0.0-5.0-28.0"},{"group":"dicyclic group of order 12","fractal_assignment":["../images/cyn_red.png","../images/pnk_blu.png","../images/blu_wht.png","../images/grn_prp.png","../images/ylw_pnk.png","../images/grn_blu.png","../images/ylw_slt.png","../images/grn_red.png","../images/org_blu.png","../images/gry_blk.png","../images/wht_red.png","../images/red_prp.png"],"mutagen_generator_assignment":[0,1],"goal":7,"start":10,"action_noise":0.15,"location_history":"[10,7]","action_history":"[0]","mutagen_history":"[0]","location_rts":"[602]","trial_type":"fractal-mutation","trial_index":68,"time_elapsed":3680985,"internal_node_id":"0.0-5.0-29.0"},{"group":"dicyclic group of order 12","fractal_assignment":["../images/cyn_red.png","../images/pnk_blu.png","../images/blu_wht.png","../images/grn_prp.png","../images/ylw_pnk.png","../images/grn_blu.png","../images/ylw_slt.png","../images/grn_red.png","../images/org_blu.png","../images/gry_blk.png","../images/wht_red.png","../images/red_prp.png"],"mutagen_generator_assignment":[0,1],"goal":6,"start":7,"action_noise":0.15,"location_history":"[7,8,5,9,6]","action_history":"[0,0,1,0]","mutagen_history":"[0,0,1,0]","location_rts":"[550,516,526,531]","trial_type":"fractal-mutation","trial_index":69,"time_elapsed":3691722,"internal_node_id":"0.0-5.0-30.0"},{"group":"dicyclic group of order 12","fractal_assignment":["../images/cyn_red.png","../images/pnk_blu.png","../images/blu_wht.png","../images/grn_prp.png","../images/ylw_pnk.png","../images/grn_blu.png","../images/ylw_slt.png","../images/grn_red.png","../images/org_blu.png","../images/gry_blk.png","../images/wht_red.png","../images/red_prp.png"],"mutagen_generator_assignment":[0,1],"goal":0,"start":6,"action_noise":0.15,"location_history":"[6,11,4,9,6,10,2,3,0]","action_history":"[0,0,0,0,0,0,0,0]","mutagen_history":"[0,0,0,0,0,0,0,0]","location_rts":"[1080,405,338,448,374,372,831,461]","trial_type":"fractal-mutation","trial_index":70,"time_elapsed":3708077,"internal_node_id":"0.0-5.0-31.0"},{"group":"dicyclic group of order 12","fractal_assignment":["../images/cyn_red.png","../images/pnk_blu.png","../images/blu_wht.png","../images/grn_prp.png","../images/ylw_pnk.png","../images/grn_blu.png","../images/ylw_slt.png","../images/grn_red.png","../images/org_blu.png","../images/gry_blk.png","../images/wht_red.png","../images/red_prp.png"],"mutagen_generator_assignment":[0,1],"goal":11,"start":0,"action_noise":0.15,"location_history":"[0,1,2,6,11]","action_history":"[0,0,0,0]","mutagen_history":"[0,0,0,0]","location_rts":"[469,249,274,343]","trial_type":"fractal-mutation","trial_index":71,"time_elapsed":3717119,"internal_node_id":"0.0-5.0-32.0"},{"group":"dicyclic group of order 12","fractal_assignment":["../images/cyn_red.png","../images/pnk_blu.png","../images/blu_wht.png","../images/grn_prp.png","../images/ylw_pnk.png","../images/grn_blu.png","../images/ylw_slt.png","../images/grn_red.png","../images/org_blu.png","../images/gry_blk.png","../images/wht_red.png","../images/red_prp.png"],"mutagen_generator_assignment":[0,1],"goal":9,"start":11,"action_noise":0.15,"location_history":"[11,4,9]","action_history":"[0,0]","mutagen_history":"[0,0]","location_rts":"[1264,358]","trial_type":"fractal-mutation","trial_index":72,"time_elapsed":3724423,"internal_node_id":"0.0-5.0-33.0"},{"group":"dicyclic group of order 12","fractal_assignment":["../images/cyn_red.png","../images/pnk_blu.png","../images/blu_wht.png","../images/grn_prp.png","../images/ylw_pnk.png","../images/grn_blu.png","../images/ylw_slt.png","../images/grn_red.png","../images/org_blu.png","../images/gry_blk.png","../images/wht_red.png","../images/red_prp.png"],"mutagen_generator_assignment":[0,1],"goal":5,"start":9,"action_noise":0.15,"location_history":"[9,6,11,4,8,5]","action_history":"[0,0,0,1,0]","mutagen_history":"[0,0,0,1,0]","location_rts":"[782,345,360,614,489]","trial_type":"fractal-mutation","trial_index":73,"time_elapsed":3736922,"internal_node_id":"0.0-5.0-34.0"},{"view_history":"[{\"page_index\":0,\"viewing_time\":6791}]","rt":6793,"trial_type":"instructions","trial_index":74,"time_elapsed":3744715,"internal_node_id":"0.0-6.0"},{"rt":2965,"responses":"{\"Q0\":\"n\"}","trial_type":"survey-text","trial_index":75,"time_elapsed":3748693,"internal_node_id":"0.0-7.0"}]