[{"view_history":"[{\"page_index\":0,\"viewing_time\":410398},{\"page_index\":1,\"viewing_time\":7484}]","rt":417882,"trial_type":"instructions","trial_index":0,"time_elapsed":417885,"internal_node_id":"0.0-0.0"},{"view_history":"[{\"page_index\":0,\"viewing_time\":2013},{\"page_index\":1,\"viewing_time\":11433}]","rt":13446,"trial_type":"instructions","trial_index":1,"time_elapsed":432333,"internal_node_id":"0.0-1.0"},{"group":"dihedral group of order 12","room_assignment":["red","cyan","green","pink","blue","grey","yellow","olive","brown","orange","ivory","purple"],"door_color_assignment":["white","black"],"door_generator_assignment":[0,1],"goal":7,"start":11,"action_noise":0.15,"location_history":"[11,10,4,10,9,3,9,8,2,8,2,3,4,5,0,6,0,6,11,5,11,10,4,10,4,5,0,1,7]","action_history":"[0,1,1,0,1,1,0,1,1,1,0,1,0,1,1,1,1,0,1,1,0,1,1,0,0,0,0,1]","door_history":"[0,1,1,0,1,1,0,1,1,1,0,1,0,1,1,1,1,0,1,1,0,1,1,0,0,0,0,1]","location_rts":"[1472,479,302,682,287,300,366,315,296,484,631,336,510,789,509,1068,639,621,486,372,353,397,984,102,1469,1098,1008,1237]","trial_type":"two-door-navigation","trial_index":2,"time_elapsed":481963,"internal_node_id":"0.0-2.0-0.0"},{"group":"dihedral group of order 12","room_assignment":["red","cyan","green","pink","blue","grey","yellow","olive","brown","orange","ivory","purple"],"door_color_assignment":["white","black"],"door_generator_assignment":[0,1],"goal":8,"start":7,"action_noise":0.15,"location_history":"[7,6,0,6,0,6,0,1,7,1,2,8]","action_history":"[0,1,1,0,1,1,0,1,1,0,1]","door_history":"[0,1,1,0,1,1,0,1,1,0,1]","location_rts":"[552,261,264,670,282,818,172,380,291,854,484]","trial_type":"two-door-navigation","trial_index":3,"time_elapsed":501703,"internal_node_id":"0.0-2.0-1.0"},{"group":"dihedral group of order 12","room_assignment":["red","cyan","green","pink","blue","grey","yellow","olive","brown","orange","ivory","purple"],"door_color_assignment":["white","black"],"door_generator_assignment":[0,1],"goal":4,"start":8,"action_noise":0.15,"location_history":"[8,7,1,7,6,11,5,0,6,0,6,0,1,2,8,7,6,11,10,4]","action_history":"[0,1,1,0,1,1,0,1,1,0,1,1,0,1,0,0,0,1,1]","door_history":"[0,1,1,0,1,1,0,1,1,0,1,1,0,1,0,0,0,1,1]","location_rts":"[283,268,434,428,301,372,420,531,698,248,362,366,31,710,1082,1174,1048,748,363]","trial_type":"two-door-navigation","trial_index":4,"time_elapsed":534412,"internal_node_id":"0.0-2.0-2.0"},{"group":"dihedral group of order 12","room_assignment":["red","cyan","green","pink","blue","grey","yellow","olive","brown","orange","ivory","purple"],"door_color_assignment":["white","black"],"door_generator_assignment":[0,1],"goal":5,"start":4,"action_noise":0.15,"location_history":"[4,5]","action_history":"[0]","door_history":"[0]","location_rts":"[434]","trial_type":"two-door-navigation","trial_index":5,"time_elapsed":539369,"internal_node_id":"0.0-2.0-3.0"},{"group":"dihedral group of order 12","room_assignment":["red","cyan","green","pink","blue","grey","yellow","olive","brown","orange","ivory","purple"],"door_color_assignment":["white","black"],"door_generator_assignment":[0,1],"goal":10,"start":5,"action_noise":0.15,"location_history":"[5,0,6,0,6,0,6,11,5,0,6,0,1,7,1,2,8,2,8,2,8,7,1,7,6,11,10]","action_history":"[0,1,1,0,1,1,0,1,1,1,1,0,1,1,0,1,1,0,1,1,0,1,1,0,1,1]","door_history":"[0,1,1,0,1,1,0,1,1,1,1,0,1,1,0,1,1,0,1,1,0,1,1,0,1,1]","location_rts":"[647,332,269,559,291,259,195,481,304,670,685,792,650,446,678,504,356,1120,357,202,176,1963,506,430,709,298]","trial_type":"two-door-navigation","trial_index":6,"time_elapsed":583207,"internal_node_id":"0.0-2.0-4.0"},{"group":"dihedral group of order 12","room_assignment":["red","cyan","green","pink","blue","grey","yellow","olive","brown","orange","ivory","purple"],"door_color_assignment":["white","black"],"door_generator_assignment":[0,1],"goal":1,"start":10,"action_noise":0.15,"location_history":"[10,9,3,9,3,4,10,4,5,11,10,9,3,9,8,2,8,7,1]","action_history":"[0,1,1,1,0,1,1,0,1,1,0,1,1,0,1,1,0,1]","door_history":"[0,1,1,1,0,1,1,0,1,1,0,1,1,0,1,1,0,1]","location_rts":"[737,249,193,547,288,226,238,567,537,269,520,303,343,626,339,188,916,542]","trial_type":"two-door-navigation","trial_index":7,"time_elapsed":612637,"internal_node_id":"0.0-2.0-5.0"},{"group":"dihedral group of order 12","room_assignment":["red","cyan","green","pink","blue","grey","yellow","olive","brown","orange","ivory","purple"],"door_color_assignment":["white","black"],"door_generator_assignment":[0,1],"goal":6,"start":1,"action_noise":0.15,"location_history":"[1,7,1,7,6]","action_history":"[0,1,1,0]","door_history":"[0,1,1,0]","location_rts":"[470,379,243,237]","trial_type":"two-door-navigation","trial_index":8,"time_elapsed":621546,"internal_node_id":"0.0-2.0-6.0"},{"group":"dihedral group of order 12","room_assignment":["red","cyan","green","pink","blue","grey","yellow","olive","brown","orange","ivory","purple"],"door_color_assignment":["white","black"],"door_generator_assignment":[0,1],"goal":9,"start":6,"action_noise":0.15,"location_history":"[6,11,5,11,5,11,5,11,5,11,10,4,10,9]","action_history":"[0,1,0,1,1,1,0,1,1,0,1,1,0]","door_history":"[0,1,0,1,1,1,0,1,1,0,1,1,0]","location_rts":"[1996,311,231,361,191,277,331,309,237,94,1125,504,344]","trial_type":"two-door-navigation","trial_index":9,"time_elapsed":644595,"internal_node_id":"0.0-2.0-7.0"},{"group":"dihedral group of order 12","room_assignment":["red","cyan","green","pink","blue","grey","yellow","olive","brown","orange","ivory","purple"],"door_color_assignment":["white","black"],"door_generator_assignment":[0,1],"goal":2,"start":9,"action_noise":0.15,"location_history":"[9,8,2]","action_history":"[0,1]","door_history":"[0,1]","location_rts":"[1018,69]","trial_type":"two-door-navigation","trial_index":10,"time_elapsed":651225,"internal_node_id":"0.0-2.0-8.0"},{"group":"dihedral group of order 12","room_assignment":["red","cyan","green","pink","blue","grey","yellow","olive","brown","orange","ivory","purple"],"door_color_assignment":["white","black"],"door_generator_assignment":[0,1],"goal":0,"start":2,"action_noise":0.15,"location_history":"[2,3,9,3,4,10,4,5,11,5,0]","action_history":"[0,1,1,0,1,1,0,1,1,0]","door_history":"[0,1,1,0,1,1,0,1,1,0]","location_rts":"[239,200,140,317,221,341,357,519,378,296]","trial_type":"two-door-navigation","trial_index":11,"time_elapsed":667915,"internal_node_id":"0.0-2.0-9.0"},{"group":"dihedral group of order 12","room_assignment":["red","cyan","green","pink","blue","grey","yellow","olive","brown","orange","ivory","purple"],"door_color_assignment":["white","black"],"door_generator_assignment":[0,1],"goal":3,"start":0,"action_noise":0.15,"location_history":"[0,1,7,1,2,8,2,3]","action_history":"[0,1,1,0,1,1,0]","door_history":"[0,1,1,0,1,1,0]","location_rts":"[2029,283,227,433,273,305,259]","trial_type":"two-door-navigation","trial_index":12,"time_elapsed":682351,"internal_node_id":"0.0-2.0-10.0"},{"group":"dihedral group of order 12","room_assignment":["red","cyan","green","pink","blue","grey","yellow","olive","brown","orange","ivory","purple"],"door_color_assignment":["white","black"],"door_generator_assignment":[0,1],"goal":10,"start":3,"action_noise":0.15,"location_history":"[3,4,10]","action_history":"[0,1]","door_history":"[0,1]","location_rts":"[564,192]","trial_type":"two-door-navigation","trial_index":13,"time_elapsed":688648,"internal_node_id":"0.0-2.0-11.0"},{"group":"dihedral group of order 12","room_assignment":["red","cyan","green","pink","blue","grey","yellow","olive","brown","orange","ivory","purple"],"door_color_assignment":["white","black"],"door_generator_assignment":[0,1],"goal":8,"start":10,"action_noise":0.15,"location_history":"[10,9,3,9,8]","action_history":"[0,1,1,0]","door_history":"[0,1,1,0]","location_rts":"[315,208,192,247]","trial_type":"two-door-navigation","trial_index":14,"time_elapsed":697207,"internal_node_id":"0.0-2.0-12.0"},{"group":"dihedral group of order 12","room_assignment":["red","cyan","green","pink","blue","grey","yellow","olive","brown","orange","ivory","purple"],"door_color_assignment":["white","black"],"door_generator_assignment":[0,1],"goal":4,"start":8,"action_noise":0.15,"location_history":"[8,7,1,7,6,0,6,11,5,11,10,4]","action_history":"[0,1,1,0,1,1,0,1,1,0,1]","door_history":"[0,1,1,0,1,1,0,1,1,0,1]","location_rts":"[293,192,190,303,299,282,232,304,282,437,508]","trial_type":"two-door-navigation","trial_index":15,"time_elapsed":715227,"internal_node_id":"0.0-2.0-13.0"},{"group":"dihedral group of order 12","room_assignment":["red","cyan","green","pink","blue","grey","yellow","olive","brown","orange","ivory","purple"],"door_color_assignment":["white","black"],"door_generator_assignment":[0,1],"goal":0,"start":4,"action_noise":0.15,"location_history":"[4,5,0]","action_history":"[0,1]","door_history":"[0,1]","location_rts":"[250,369]","trial_type":"two-door-navigation","trial_index":16,"time_elapsed":721389,"internal_node_id":"0.0-2.0-14.0"},{"group":"dihedral group of order 12","room_assignment":["red","cyan","green","pink","blue","grey","yellow","olive","brown","orange","ivory","purple"],"door_color_assignment":["white","black"],"door_generator_assignment":[0,1],"goal":11,"start":0,"action_noise":0.15,"location_history":"[0,1,7,1,2,8,2,3,9,8,7,6,11]","action_history":"[0,1,1,0,1,1,0,1,1,0,0,1]","door_history":"[0,1,1,0,1,1,0,1,1,0,0,1]","location_rts":"[336,102,214,191,230,215,244,405,199,291,458,627]","trial_type":"two-door-navigation","trial_index":17,"time_elapsed":740626,"internal_node_id":"0.0-2.0-15.0"},{"group":"dihedral group of order 12","room_assignment":["red","cyan","green","pink","blue","grey","yellow","olive","brown","orange","ivory","purple"],"door_color_assignment":["white","black"],"door_generator_assignment":[0,1],"goal":2,"start":11,"action_noise":0.15,"location_history":"[11,10,4,10,9,3,9,8,7,1,2]","action_history":"[0,1,1,0,1,1,0,1,1,0]","door_history":"[0,1,1,0,1,1,0,1,1,0]","location_rts":"[627,180,300,243,297,330,315,378,667,221]","trial_type":"two-door-navigation","trial_index":18,"time_elapsed":757854,"internal_node_id":"0.0-2.0-16.0"},{"group":"dihedral group of order 12","room_assignment":["red","cyan","green","pink","blue","grey","yellow","olive","brown","orange","ivory","purple"],"door_color_assignment":["white","black"],"door_generator_assignment":[0,1],"goal":7,"start":2,"action_noise":0.15,"location_history":"[2,3,9,3,4,10,4,5,0,6,11,5,11,5,0,1,7]","action_history":"[0,1,1,0,1,1,0,1,1,0,1,1,1,0,1,1]","door_history":"[0,1,1,0,1,1,0,1,1,0,1,1,1,0,1,1]","location_rts":"[349,196,267,265,287,273,252,304,212,208,705,495,355,193,731,319]","trial_type":"two-door-navigation","trial_index":19,"time_elapsed":783070,"internal_node_id":"0.0-2.0-17.0"},{"group":"dihedral group of order 12","room_assignment":["red","cyan","green","pink","blue","grey","yellow","olive","brown","orange","ivory","purple"],"door_color_assignment":["white","black"],"door_generator_assignment":[0,1],"goal":5,"start":7,"action_noise":0.15,"location_history":"[7,1,7,6,0,6,11,5]","action_history":"[0,1,1,1,1,0,1]","door_history":"[0,1,1,1,1,0,1]","location_rts":"[2731,272,253,666,699,1147,409]","trial_type":"two-door-navigation","trial_index":20,"time_elapsed":799881,"internal_node_id":"0.0-2.0-18.0"},{"group":"dihedral group of order 12","room_assignment":["red","cyan","green","pink","blue","grey","yellow","olive","brown","orange","ivory","purple"],"door_color_assignment":["white","black"],"door_generator_assignment":[0,1],"goal":6,"start":5,"action_noise":0.15,"location_history":"[5,0,6]","action_history":"[0,1]","door_history":"[0,1]","location_rts":"[283,47]","trial_type":"two-door-navigation","trial_index":21,"time_elapsed":805750,"internal_node_id":"0.0-2.0-19.0"},{"group":"dihedral group of order 12","room_assignment":["red","cyan","green","pink","blue","grey","yellow","olive","brown","orange","ivory","purple"],"door_color_assignment":["white","black"],"door_generator_assignment":[0,1],"goal":3,"start":6,"action_noise":0.15,"location_history":"[6,11,5,11,10,9,3]","action_history":"[0,1,1,1,0,1]","door_history":"[0,1,1,1,0,1]","location_rts":"[761,192,282,385,229,244]","trial_type":"two-door-navigation","trial_index":22,"time_elapsed":817446,"internal_node_id":"0.0-2.0-20.0"},{"group":"dihedral group of order 12","room_assignment":["red","cyan","green","pink","blue","grey","yellow","olive","brown","orange","ivory","purple"],"door_color_assignment":["white","black"],"door_generator_assignment":[0,1],"goal":1,"start":3,"action_noise":0.15,"location_history":"[3,4,5,11,10,9,3,9,8,2,8,7,1]","action_history":"[0,1,1,0,1,1,1,0,1,1,0,1]","door_history":"[0,1,1,0,1,1,1,0,1,1,0,1]","location_rts":"[472,60,163,363,269,211,819,882,232,218,1056,253]","trial_type":"two-door-navigation","trial_index":23,"time_elapsed":838170,"internal_node_id":"0.0-2.0-21.0"},{"group":"dihedral group of order 12","room_assignment":["red","cyan","green","pink","blue","grey","yellow","olive","brown","orange","ivory","purple"],"door_color_assignment":["white","black"],"door_generator_assignment":[0,1],"goal":9,"start":1,"action_noise":0.15,"location_history":"[1,7,1,7,6,0,6,11,10,9]","action_history":"[0,1,1,0,1,1,0,1,1]","door_history":"[0,1,1,0,1,1,0,1,1]","location_rts":"[307,67,182,344,297,204,374,305,236]","trial_type":"two-door-navigation","trial_index":24,"time_elapsed":853140,"internal_node_id":"0.0-2.0-22.0"},{"group":"dihedral group of order 12","room_assignment":["red","cyan","green","pink","blue","grey","yellow","olive","brown","orange","ivory","purple"],"door_color_assignment":["white","black"],"door_generator_assignment":[0,1],"goal":3,"start":9,"action_noise":0.15,"location_history":"[9,8,7,1,7,6,0,6,0,6,0,1,2,8,2,8,2,3]","action_history":"[0,1,1,1,0,1,1,0,1,1,0,1,1,1,1,1,0]","door_history":"[0,1,1,1,0,1,1,0,1,1,0,1,1,1,1,1,0]","location_rts":"[369,201,212,549,773,301,212,418,345,178,63,560,345,396,349,467,3]","trial_type":"two-door-navigation","trial_index":25,"time_elapsed":879679,"internal_node_id":"0.0-2.0-23.0"},{"group":"dihedral group of order 12","room_assignment":["red","cyan","green","pink","blue","grey","yellow","olive","brown","orange","ivory","purple"],"door_color_assignment":["white","black"],"door_generator_assignment":[0,1],"goal":4,"start":3,"action_noise":0.15,"location_history":"[3,4]","action_history":"[0]","door_history":"[0]","location_rts":"[1007]","trial_type":"two-door-navigation","trial_index":26,"time_elapsed":885204,"internal_node_id":"0.0-2.0-24.0"},{"group":"dihedral group of order 12","room_assignment":["red","cyan","green","pink","blue","grey","yellow","olive","brown","orange","ivory","purple"],"door_color_assignment":["white","black"],"door_generator_assignment":[0,1],"goal":2,"start":4,"action_noise":0.15,"location_history":"[4,5,11,10,4,10,9,3,9,8,2]","action_history":"[0,1,0,1,1,0,1,1,0,1]","door_history":"[0,1,0,1,1,0,1,1,0,1]","location_rts":"[339,451,469,572,123,385,250,250,419,249]","trial_type":"two-door-navigation","trial_index":27,"time_elapsed":902399,"internal_node_id":"0.0-2.0-25.0"},{"group":"dihedral group of order 12","room_assignment":["red","cyan","green","pink","blue","grey","yellow","olive","brown","orange","ivory","purple"],"door_color_assignment":["white","black"],"door_generator_assignment":[0,1],"goal":1,"start":2,"action_noise":0.15,"location_history":"[2,8,2,8,7,1]","action_history":"[0,1,1,0,1]","door_history":"[0,1,1,0,1]","location_rts":"[590,395,377,607,206]","trial_type":"two-door-navigation","trial_index":28,"time_elapsed":913163,"internal_node_id":"0.0-2.0-26.0"},{"group":"dihedral group of order 12","room_assignment":["red","cyan","green","pink","blue","grey","yellow","olive","brown","orange","ivory","purple"],"door_color_assignment":["white","black"],"door_generator_assignment":[0,1],"goal":8,"start":1,"action_noise":0.15,"location_history":"[1,2,8]","action_history":"[0,1]","door_history":"[0,1]","location_rts":"[345,136]","trial_type":"two-door-navigation","trial_index":29,"time_elapsed":919178,"internal_node_id":"0.0-2.0-27.0"},{"group":"dihedral group of order 12","room_assignment":["red","cyan","green","pink","blue","grey","yellow","olive","brown","orange","ivory","purple"],"door_color_assignment":["white","black"],"door_generator_assignment":[0,1],"goal":10,"start":8,"action_noise":0.15,"location_history":"[8,7,1,7,1,7,1,2,8,2,3,9,3,4,10]","action_history":"[0,1,1,0,1,1,0,1,1,0,1,1,0,1]","door_history":"[0,1,1,0,1,1,0,1,1,0,1,1,0,1]","location_rts":"[390,290,181,492,220,331,6,502,299,370,327,302,546,307]","trial_type":"two-door-navigation","trial_index":30,"time_elapsed":941489,"internal_node_id":"0.0-2.0-28.0"},{"group":"dihedral group of order 12","room_assignment":["red","cyan","green","pink","blue","grey","yellow","olive","brown","orange","ivory","purple"],"door_color_assignment":["white","black"],"door_generator_assignment":[0,1],"goal":7,"start":10,"action_noise":0.15,"location_history":"[10,9,3,9,8,2,8,7]","action_history":"[0,1,1,0,1,1,0]","door_history":"[0,1,1,0,1,1,0]","location_rts":"[344,152,285,515,336,385,470]","trial_type":"two-door-navigation","trial_index":31,"time_elapsed":954605,"internal_node_id":"0.0-2.0-29.0"},{"group":"dihedral group of order 12","room_assignment":["red","cyan","green","pink","blue","grey","yellow","olive","brown","orange","ivory","purple"],"door_color_assignment":["white","black"],"door_generator_assignment":[0,1],"goal":6,"start":7,"action_noise":0.15,"location_history":"[7,1,7,1,2,8,7,1,7,6]","action_history":"[0,1,1,0,1,1,1,1,0]","door_history":"[0,1,1,0,1,1,1,1,0]","location_rts":"[280,163,292,578,282,241,801,885,726]","trial_type":"two-door-navigation","trial_index":32,"time_elapsed":971509,"internal_node_id":"0.0-2.0-30.0"},{"group":"dihedral group of order 12","room_assignment":["red","cyan","green","pink","blue","grey","yellow","olive","brown","orange","ivory","purple"],"door_color_assignment":["white","black"],"door_generator_assignment":[0,1],"goal":0,"start":6,"action_noise":0.15,"location_history":"[6,0]","action_history":"[0]","door_history":"[0]","location_rts":"[709]","trial_type":"two-door-navigation","trial_index":33,"time_elapsed":976739,"internal_node_id":"0.0-2.0-31.0"},{"group":"dihedral group of order 12","room_assignment":["red","cyan","green","pink","blue","grey","yellow","olive","brown","orange","ivory","purple"],"door_color_assignment":["white","black"],"door_generator_assignment":[0,1],"goal":11,"start":0,"action_noise":0.15,"location_history":"[0,1,7,6,0,6,0,6,0,1,7,1,2,8,2,3,4,10,4,10,9,3,4,5,11]","action_history":"[0,1,1,1,1,0,1,1,0,1,1,0,1,1,0,1,1,1,1,0,1,1,1,1]","door_history":"[0,1,1,1,1,0,1,1,0,1,1,0,1,1,0,1,1,1,1,0,1,1,1,1]","location_rts":"[329,218,213,573,933,1071,350,162,204,1170,262,606,294,228,329,519,289,963,641,422,344,502,1010,1184]","trial_type":"two-door-navigation","trial_index":34,"time_elapsed":1017489,"internal_node_id":"0.0-2.0-32.0"},{"group":"dihedral group of order 12","room_assignment":["red","cyan","green","pink","blue","grey","yellow","olive","brown","orange","ivory","purple"],"door_color_assignment":["white","black"],"door_generator_assignment":[0,1],"goal":9,"start":11,"action_noise":0.15,"location_history":"[11,10,4,10,9]","action_history":"[0,1,1,0]","door_history":"[0,1,1,0]","location_rts":"[815,8,194,357]","trial_type":"two-door-navigation","trial_index":35,"time_elapsed":1026438,"internal_node_id":"0.0-2.0-33.0"},{"group":"dihedral group of order 12","room_assignment":["red","cyan","green","pink","blue","grey","yellow","olive","brown","orange","ivory","purple"],"door_color_assignment":["white","black"],"door_generator_assignment":[0,1],"goal":5,"start":9,"action_noise":0.15,"location_history":"[9,8,2,8,2,8,2,3,9,3,4,5]","action_history":"[0,1,1,0,1,1,0,1,1,0,1]","door_history":"[0,1,1,0,1,1,0,1,1,0,1]","location_rts":"[330,118,234,656,234,343,41,500,219,490,294]","trial_type":"two-door-navigation","trial_index":36,"time_elapsed":1044594,"internal_node_id":"0.0-2.0-34.0"},{"view_history":"[{\"page_index\":0,\"viewing_time\":1828}]","rt":1828,"trial_type":"instructions","trial_index":37,"time_elapsed":1047423,"internal_node_id":"0.0-3.0"},{"view_history":"[{\"page_index\":0,\"viewing_time\":2055},{\"page_index\":1,\"viewing_time\":13189}]","rt":15245,"trial_type":"instructions","trial_index":38,"time_elapsed":1063669,"internal_node_id":"0.0-4.0"},{"group":"dihedral group of order 12","fractal_assignment":["../images/grn_prp.png","../images/pnk_blu.png","../images/grn_blu.png","../images/blu_wht.png","../images/ylw_pnk.png","../images/ylw_slt.png","../images/gry_blk.png","../images/cyn_red.png","../images/grn_red.png","../images/wht_red.png","../images/red_prp.png","../images/org_blu.png"],"mutagen_generator_assignment":[1,0],"goal":7,"start":11,"action_noise":0.15,"location_history":"[11,5,0,1,7]","action_history":"[1,0,0,1]","mutagen_history":"[0,1,1,0]","location_rts":"[2678,527,760,1187]","trial_type":"fractal-mutation","trial_index":39,"time_elapsed":1076807,"internal_node_id":"0.0-5.0-0.0"},{"group":"dihedral group of order 12","fractal_assignment":["../images/grn_prp.png","../images/pnk_blu.png","../images/grn_blu.png","../images/blu_wht.png","../images/ylw_pnk.png","../images/ylw_slt.png","../images/gry_blk.png","../images/cyn_red.png","../images/grn_red.png","../images/wht_red.png","../images/red_prp.png","../images/org_blu.png"],"mutagen_generator_assignment":[1,0],"goal":8,"start":7,"action_noise":0.15,"location_history":"[7,1,2,8]","action_history":"[1,0,1]","mutagen_history":"[0,1,0]","location_rts":"[1913,778,788]","trial_type":"fractal-mutation","trial_index":40,"time_elapsed":1087078,"internal_node_id":"0.0-5.0-1.0"},{"group":"dihedral group of order 12","fractal_assignment":["../images/grn_prp.png","../images/pnk_blu.png","../images/grn_blu.png","../images/blu_wht.png","../images/ylw_pnk.png","../images/ylw_slt.png","../images/gry_blk.png","../images/cyn_red.png","../images/grn_red.png","../images/wht_red.png","../images/red_prp.png","../images/org_blu.png"],"mutagen_generator_assignment":[1,0],"goal":4,"start":8,"action_noise":0.15,"location_history":"[8,7,6,0,1,2,8,7,1,7,6,11,10,9,8,7,1,2,8,2,8,2,3,4]","action_history":"[0,0,0,0,0,0,0,1,0,0,1,0,0,0,0,1,1,1,1,1,0,1,0]","mutagen_history":"[1,1,1,1,1,1,1,0,1,1,0,1,1,1,1,0,0,0,0,0,1,0,1]","location_rts":"[1292,493,95,359,284,260,247,593,512,1102,175,971,479,621,1390,612,653,635,592,187,275,800,1066]","trial_type":"fractal-mutation","trial_index":41,"time_elapsed":1130476,"internal_node_id":"0.0-5.0-2.0"},{"group":"dihedral group of order 12","fractal_assignment":["../images/grn_prp.png","../images/pnk_blu.png","../images/grn_blu.png","../images/blu_wht.png","../images/ylw_pnk.png","../images/ylw_slt.png","../images/gry_blk.png","../images/cyn_red.png","../images/grn_red.png","../images/wht_red.png","../images/red_prp.png","../images/org_blu.png"],"mutagen_generator_assignment":[1,0],"goal":5,"start":4,"action_noise":0.15,"location_history":"[4,10,4,10,4,5]","action_history":"[1,0,0,1,1]","mutagen_history":"[0,1,1,0,0]","location_rts":"[1512,2651,579,775,865]","trial_type":"fractal-mutation","trial_index":42,"time_elapsed":1145885,"internal_node_id":"0.0-5.0-3.0"},{"group":"dihedral group of order 12","fractal_assignment":["../images/grn_prp.png","../images/pnk_blu.png","../images/grn_blu.png","../images/blu_wht.png","../images/ylw_pnk.png","../images/ylw_slt.png","../images/gry_blk.png","../images/cyn_red.png","../images/grn_red.png","../images/wht_red.png","../images/red_prp.png","../images/org_blu.png"],"mutagen_generator_assignment":[1,0],"goal":10,"start":5,"action_noise":0.15,"location_history":"[5,11,5,0,6,0,1,2,8,2,8,7,1,2,3,4,10]","action_history":"[1,0,0,0,0,0,0,1,1,0,0,1,0,0,0,1]","mutagen_history":"[0,1,1,1,1,1,1,0,0,1,1,0,1,1,1,0]","location_rts":"[602,505,618,493,477,551,847,551,510,505,596,763,468,456,179,850]","trial_type":"fractal-mutation","trial_index":43,"time_elapsed":1176481,"internal_node_id":"0.0-5.0-4.0"},{"group":"dihedral group of order 12","fractal_assignment":["../images/grn_prp.png","../images/pnk_blu.png","../images/grn_blu.png","../images/blu_wht.png","../images/ylw_pnk.png","../images/ylw_slt.png","../images/gry_blk.png","../images/cyn_red.png","../images/grn_red.png","../images/wht_red.png","../images/red_prp.png","../images/org_blu.png"],"mutagen_generator_assignment":[1,0],"goal":1,"start":10,"action_noise":0.15,"location_history":"[10,4,10,9,3,4,10,4,5,0,1]","action_history":"[0,1,1,1,1,1,1,0,0,0]","mutagen_history":"[1,0,0,0,0,0,0,1,1,1]","location_rts":"[1512,942,888,873,866,949,606,618,820,710]","trial_type":"fractal-mutation","trial_index":44,"time_elapsed":1199966,"internal_node_id":"0.0-5.0-5.0"},{"group":"dihedral group of order 12","fractal_assignment":["../images/grn_prp.png","../images/pnk_blu.png","../images/grn_blu.png","../images/blu_wht.png","../images/ylw_pnk.png","../images/ylw_slt.png","../images/gry_blk.png","../images/cyn_red.png","../images/grn_red.png","../images/wht_red.png","../images/red_prp.png","../images/org_blu.png"],"mutagen_generator_assignment":[1,0],"goal":6,"start":1,"action_noise":0.15,"location_history":"[1,2,3,4,5,0,1,7,1,2,3,4,5,0,1,7,6]","action_history":"[0,0,0,0,0,0,0,0,0,0,0,0,0,1,1,0]","mutagen_history":"[1,1,1,1,1,1,1,1,1,1,1,1,1,0,0,1]","location_rts":"[432,200,157,237,105,337,324,561,297,300,329,603,434,205,889,523]","trial_type":"fractal-mutation","trial_index":45,"time_elapsed":1227850,"internal_node_id":"0.0-5.0-6.0"},{"group":"dihedral group of order 12","fractal_assignment":["../images/grn_prp.png","../images/pnk_blu.png","../images/grn_blu.png","../images/blu_wht.png","../images/ylw_pnk.png","../images/ylw_slt.png","../images/gry_blk.png","../images/cyn_red.png","../images/grn_red.png","../images/wht_red.png","../images/red_prp.png","../images/org_blu.png"],"mutagen_generator_assignment":[1,0],"goal":9,"start":6,"action_noise":0.15,"location_history":"[6,11,10,9]","action_history":"[1,0,0]","mutagen_history":"[0,1,1]","location_rts":"[1432,1472,390]","trial_type":"fractal-mutation","trial_index":46,"time_elapsed":1237992,"internal_node_id":"0.0-5.0-7.0"},{"group":"dihedral group of order 12","fractal_assignment":["../images/grn_prp.png","../images/pnk_blu.png","../images/grn_blu.png","../images/blu_wht.png","../images/ylw_pnk.png","../images/ylw_slt.png","../images/gry_blk.png","../images/cyn_red.png","../images/grn_red.png","../images/wht_red.png","../images/red_prp.png","../images/org_blu.png"],"mutagen_generator_assignment":[1,0],"goal":2,"start":9,"action_noise":0.15,"location_history":"[9,8,2]","action_history":"[0,1]","mutagen_history":"[1,0]","location_rts":"[2915,1093]","trial_type":"fractal-mutation","trial_index":47,"time_elapsed":1247761,"internal_node_id":"0.0-5.0-8.0"},{"group":"dihedral group of order 12","fractal_assignment":["../images/grn_prp.png","../images/pnk_blu.png","../images/grn_blu.png","../images/blu_wht.png","../images/ylw_pnk.png","../images/ylw_slt.png","../images/gry_blk.png","../images/cyn_red.png","../images/grn_red.png","../images/wht_red.png","../images/red_prp.png","../images/org_blu.png"],"mutagen_generator_assignment":[1,0],"goal":0,"start":2,"action_noise":0.15,"location_history":"[2,8,2,8,2,3,9,8,7,1,7,6,11,5,11,5,0]","action_history":"[1,1,1,1,0,1,1,1,1,1,0,1,1,1,0,0]","mutagen_history":"[0,0,0,0,1,0,0,0,0,0,1,0,0,0,1,1]","location_rts":"[2188,218,340,216,82,789,391,688,601,740,808,1040,822,547,411,1614]","trial_type":"fractal-mutation","trial_index":48,"time_elapsed":1280268,"internal_node_id":"0.0-5.0-9.0"},{"group":"dihedral group of order 12","fractal_assignment":["../images/grn_prp.png","../images/pnk_blu.png","../images/grn_blu.png","../images/blu_wht.png","../images/ylw_pnk.png","../images/ylw_slt.png","../images/gry_blk.png","../images/cyn_red.png","../images/grn_red.png","../images/wht_red.png","../images/red_prp.png","../images/org_blu.png"],"mutagen_generator_assignment":[1,0],"goal":3,"start":0,"action_noise":0.15,"location_history":"[0,6,0,1,7,1,2,8,2,3]","action_history":"[1,1,0,1,1,0,1,1,0]","mutagen_history":"[0,0,1,0,0,1,0,0,1]","location_rts":"[1466,812,984,804,1011,673,377,422,458]","trial_type":"fractal-mutation","trial_index":49,"time_elapsed":1300683,"internal_node_id":"0.0-5.0-10.0"},{"group":"dihedral group of order 12","fractal_assignment":["../images/grn_prp.png","../images/pnk_blu.png","../images/grn_blu.png","../images/blu_wht.png","../images/ylw_pnk.png","../images/ylw_slt.png","../images/gry_blk.png","../images/cyn_red.png","../images/grn_red.png","../images/wht_red.png","../images/red_prp.png","../images/org_blu.png"],"mutagen_generator_assignment":[1,0],"goal":10,"start":3,"action_noise":0.15,"location_history":"[3,4,5,0,1,2,3,4,10]","action_history":"[0,0,0,0,0,1,0,1]","mutagen_history":"[1,1,1,1,1,0,1,0]","location_rts":"[613,325,332,1442,999,2053,649,711]","trial_type":"fractal-mutation","trial_index":50,"time_elapsed":1320471,"internal_node_id":"0.0-5.0-11.0"},{"group":"dihedral group of order 12","fractal_assignment":["../images/grn_prp.png","../images/pnk_blu.png","../images/grn_blu.png","../images/blu_wht.png","../images/ylw_pnk.png","../images/ylw_slt.png","../images/gry_blk.png","../images/cyn_red.png","../images/grn_red.png","../images/wht_red.png","../images/red_prp.png","../images/org_blu.png"],"mutagen_generator_assignment":[1,0],"goal":8,"start":10,"action_noise":0.15,"location_history":"[10,9,8]","action_history":"[0,0]","mutagen_history":"[1,1]","location_rts":"[2231,55]","trial_type":"fractal-mutation","trial_index":51,"time_elapsed":1328594,"internal_node_id":"0.0-5.0-12.0"},{"group":"dihedral group of order 12","fractal_assignment":["../images/grn_prp.png","../images/pnk_blu.png","../images/grn_blu.png","../images/blu_wht.png","../images/ylw_pnk.png","../images/ylw_slt.png","../images/gry_blk.png","../images/cyn_red.png","../images/grn_red.png","../images/wht_red.png","../images/red_prp.png","../images/org_blu.png"],"mutagen_generator_assignment":[1,0],"goal":4,"start":8,"action_noise":0.15,"location_history":"[8,7,6,11,5,11,10,9,8,7,6,11,5,0,6,0,1,2,3,9,3,4]","action_history":"[0,0,0,0,0,0,0,0,0,0,0,1,0,1,1,0,0,0,1,1,0]","mutagen_history":"[1,1,1,1,1,1,1,1,1,1,1,0,1,0,0,1,1,1,0,0,1]","location_rts":"[645,62,91,103,72,0,817,339,340,360,528,744,169,646,938,292,687,416,113,885,894]","trial_type":"fractal-mutation","trial_index":52,"time_elapsed":1365267,"internal_node_id":"0.0-5.0-13.0"},{"group":"dihedral group of order 12","fractal_assignment":["../images/grn_prp.png","../images/pnk_blu.png","../images/grn_blu.png","../images/blu_wht.png","../images/ylw_pnk.png","../images/ylw_slt.png","../images/gry_blk.png","../images/cyn_red.png","../images/grn_red.png","../images/wht_red.png","../images/red_prp.png","../images/org_blu.png"],"mutagen_generator_assignment":[1,0],"goal":0,"start":4,"action_noise":0.15,"location_history":"[4,10,9,8,2,3,4,10,9,3,4,10,4,10,9,8,2,8,7,1,7,1,2,8,2,3,4,5,11,10,9,8,2,3,4,5,11,5,0]","action_history":"[0,0,0,1,0,1,1,0,1,1,1,1,1,0,1,1,1,0,1,1,1,0,1,1,0,1,1,1,0,0,0,1,0,0,0,1,1,0]","mutagen_history":"[1,1,1,0,1,0,0,1,0,0,0,0,0,1,0,0,0,1,0,0,0,1,0,0,1,0,0,0,1,1,1,0,1,1,1,0,0,1]","location_rts":"[2163,1739,609,231,772,196,807,98,654,403,515,638,370,207,453,774,211,96,541,504,603,42,543,184,19,769,412,1879,183,341,520,711,316,790,743,426,505,519]","trial_type":"fractal-mutation","trial_index":53,"time_elapsed":1432874,"internal_node_id":"0.0-5.0-14.0"},{"group":"dihedral group of order 12","fractal_assignment":["../images/grn_prp.png","../images/pnk_blu.png","../images/grn_blu.png","../images/blu_wht.png","../images/ylw_pnk.png","../images/ylw_slt.png","../images/gry_blk.png","../images/cyn_red.png","../images/grn_red.png","../images/wht_red.png","../images/red_prp.png","../images/org_blu.png"],"mutagen_generator_assignment":[1,0],"goal":11,"start":0,"action_noise":0.15,"location_history":"[0,6,11]","action_history":"[1,1]","mutagen_history":"[0,0]","location_rts":"[1785,1792]","trial_type":"fractal-mutation","trial_index":54,"time_elapsed":1442002,"internal_node_id":"0.0-5.0-15.0"},{"group":"dihedral group of order 12","fractal_assignment":["../images/grn_prp.png","../images/pnk_blu.png","../images/grn_blu.png","../images/blu_wht.png","../images/ylw_pnk.png","../images/ylw_slt.png","../images/gry_blk.png","../images/cyn_red.png","../images/grn_red.png","../images/wht_red.png","../images/red_prp.png","../images/org_blu.png"],"mutagen_generator_assignment":[1,0],"goal":2,"start":11,"action_noise":0.15,"location_history":"[11,10,9,8,2]","action_history":"[0,0,0,1]","mutagen_history":"[1,1,1,0]","location_rts":"[3104,592,622,663]","trial_type":"fractal-mutation","trial_index":55,"time_elapsed":1455061,"internal_node_id":"0.0-5.0-16.0"},{"group":"dihedral group of order 12","fractal_assignment":["../images/grn_prp.png","../images/pnk_blu.png","../images/grn_blu.png","../images/blu_wht.png","../images/ylw_pnk.png","../images/ylw_slt.png","../images/gry_blk.png","../images/cyn_red.png","../images/grn_red.png","../images/wht_red.png","../images/red_prp.png","../images/org_blu.png"],"mutagen_generator_assignment":[1,0],"goal":7,"start":2,"action_noise":0.15,"location_history":"[2,8,7]","action_history":"[1,0]","mutagen_history":"[0,1]","location_rts":"[2530,1034]","trial_type":"fractal-mutation","trial_index":56,"time_elapsed":1464306,"internal_node_id":"0.0-5.0-17.0"},{"group":"dihedral group of order 12","fractal_assignment":["../images/grn_prp.png","../images/pnk_blu.png","../images/grn_blu.png","../images/blu_wht.png","../images/ylw_pnk.png","../images/ylw_slt.png","../images/gry_blk.png","../images/cyn_red.png","../images/grn_red.png","../images/wht_red.png","../images/red_prp.png","../images/org_blu.png"],"mutagen_generator_assignment":[1,0],"goal":5,"start":7,"action_noise":0.15,"location_history":"[7,6,11,5]","action_history":"[0,0,1]","mutagen_history":"[1,1,0]","location_rts":"[1186,301,426]","trial_type":"fractal-mutation","trial_index":57,"time_elapsed":1473135,"internal_node_id":"0.0-5.0-18.0"},{"group":"dihedral group of order 12","fractal_assignment":["../images/grn_prp.png","../images/pnk_blu.png","../images/grn_blu.png","../images/blu_wht.png","../images/ylw_pnk.png","../images/ylw_slt.png","../images/gry_blk.png","../images/cyn_red.png","../images/grn_red.png","../images/wht_red.png","../images/red_prp.png","../images/org_blu.png"],"mutagen_generator_assignment":[1,0],"goal":6,"start":5,"action_noise":0.15,"location_history":"[5,0,1,2,3,4,10,9,8,7,6]","action_history":"[0,0,0,0,0,0,0,0,0,0]","mutagen_history":"[1,1,1,1,1,1,1,1,1,1]","location_rts":"[1974,499,503,16,983,573,568,516,1019,783]","trial_type":"fractal-mutation","trial_index":58,"time_elapsed":1495692,"internal_node_id":"0.0-5.0-19.0"},{"group":"dihedral group of order 12","fractal_assignment":["../images/grn_prp.png","../images/pnk_blu.png","../images/grn_blu.png","../images/blu_wht.png","../images/ylw_pnk.png","../images/ylw_slt.png","../images/gry_blk.png","../images/cyn_red.png","../images/grn_red.png","../images/wht_red.png","../images/red_prp.png","../images/org_blu.png"],"mutagen_generator_assignment":[1,0],"goal":3,"start":6,"action_noise":0.15,"location_history":"[6,0,1,7,6,0,1,2,3]","action_history":"[1,1,1,0,1,0,0,0]","mutagen_history":"[0,0,0,1,0,1,1,1]","location_rts":"[3859,623,827,850,861,560,592,185]","trial_type":"fractal-mutation","trial_index":59,"time_elapsed":1516380,"internal_node_id":"0.0-5.0-20.0"},{"group":"dihedral group of order 12","fractal_assignment":["../images/grn_prp.png","../images/pnk_blu.png","../images/grn_blu.png","../images/blu_wht.png","../images/ylw_pnk.png","../images/ylw_slt.png","../images/gry_blk.png","../images/cyn_red.png","../images/grn_red.png","../images/wht_red.png","../images/red_prp.png","../images/org_blu.png"],"mutagen_generator_assignment":[1,0],"goal":1,"start":3,"action_noise":0.15,"location_history":"[3,9,3,4,10,9,8,7,6,11,10,9,8,2,8,7,6,0,6,0,1]","action_history":"[1,1,0,0,0,0,0,0,0,0,0,0,1,1,0,1,1,1,1,0]","mutagen_history":"[0,0,1,1,1,1,1,1,1,1,1,1,0,0,1,0,0,0,0,1]","location_rts":"[3867,537,344,470,67,0,309,390,636,71,31,389,706,396,208,176,532,623,492,216]","trial_type":"fractal-mutation","trial_index":60,"time_elapsed":1552888,"internal_node_id":"0.0-5.0-21.0"},{"group":"dihedral group of order 12","fractal_assignment":["../images/grn_prp.png","../images/pnk_blu.png","../images/grn_blu.png","../images/blu_wht.png","../images/ylw_pnk.png","../images/ylw_slt.png","../images/gry_blk.png","../images/cyn_red.png","../images/grn_red.png","../images/wht_red.png","../images/red_prp.png","../images/org_blu.png"],"mutagen_generator_assignment":[1,0],"goal":9,"start":1,"action_noise":0.15,"location_history":"[1,7,6,11,10,9]","action_history":"[0,0,0,0,0]","mutagen_history":"[1,1,1,1,1]","location_rts":"[2159,221,528,399,6]","trial_type":"fractal-mutation","trial_index":61,"time_elapsed":1565505,"internal_node_id":"0.0-5.0-22.0"},{"group":"dihedral group of order 12","fractal_assignment":["../images/grn_prp.png","../images/pnk_blu.png","../images/grn_blu.png","../images/blu_wht.png","../images/ylw_pnk.png","../images/ylw_slt.png","../images/gry_blk.png","../images/cyn_red.png","../images/grn_red.png","../images/wht_red.png","../images/red_prp.png","../images/org_blu.png"],"mutagen_generator_assignment":[1,0],"goal":3,"start":9,"action_noise":0.15,"location_history":"[9,3]","action_history":"[1]","mutagen_history":"[0]","location_rts":"[2304]","trial_type":"fractal-mutation","trial_index":62,"time_elapsed":1572338,"internal_node_id":"0.0-5.0-23.0"},{"group":"dihedral group of order 12","fractal_assignment":["../images/grn_prp.png","../images/pnk_blu.png","../images/grn_blu.png","../images/blu_wht.png","../images/ylw_pnk.png","../images/ylw_slt.png","../images/gry_blk.png","../images/cyn_red.png","../images/grn_red.png","../images/wht_red.png","../images/red_prp.png","../images/org_blu.png"],"mutagen_generator_assignment":[1,0],"goal":4,"start":3,"action_noise":0.15,"location_history":"[3,9,8,7,6,11,10,4]","action_history":"[1,0,0,0,0,0,0]","mutagen_history":"[0,1,1,1,1,1,1]","location_rts":"[2311,368,37,41,67,69,88]","trial_type":"fractal-mutation","trial_index":63,"time_elapsed":1586812,"internal_node_id":"0.0-5.0-24.0"},{"group":"dihedral group of order 12","fractal_assignment":["../images/grn_prp.png","../images/pnk_blu.png","../images/grn_blu.png","../images/blu_wht.png","../images/ylw_pnk.png","../images/ylw_slt.png","../images/gry_blk.png","../images/cyn_red.png","../images/grn_red.png","../images/wht_red.png","../images/red_prp.png","../images/org_blu.png"],"mutagen_generator_assignment":[1,0],"goal":2,"start":4,"action_noise":0.15,"location_history":"[4,5,11,10,9,8,2]","action_history":"[0,0,0,0,0,1]","mutagen_history":"[1,1,1,1,1,0]","location_rts":"[1188,45,543,211,389,526]","trial_type":"fractal-mutation","trial_index":64,"time_elapsed":1600115,"internal_node_id":"0.0-5.0-25.0"},{"group":"dihedral group of order 12","fractal_assignment":["../images/grn_prp.png","../images/pnk_blu.png","../images/grn_blu.png","../images/blu_wht.png","../images/ylw_pnk.png","../images/ylw_slt.png","../images/gry_blk.png","../images/cyn_red.png","../images/grn_red.png","../images/wht_red.png","../images/red_prp.png","../images/org_blu.png"],"mutagen_generator_assignment":[1,0],"goal":1,"start":2,"action_noise":0.15,"location_history":"[2,3,9,3,4,10,4,10,9,8,2,8,2,3,4,10,9,8,2,8,2,3,4,10,4,10,4,10,4,10,9,8,2,8,7,1]","action_history":"[0,1,1,0,1,1,0,0,1,1,1,0,0,0,0,0,0,0,1,1,0,1,1,1,1,0,1,1,0,0,1,1,1,0,1]","mutagen_history":"[1,0,0,1,0,0,1,1,0,0,0,1,1,1,1,1,1,1,0,0,1,0,0,0,0,1,0,0,1,1,0,0,0,1,0]","location_rts":"[287,1939,778,1007,465,359,372,773,952,386,116,115,606,809,718,726,492,1359,671,347,90,1112,356,522,359,678,207,751,413,713,771,434,1097,563,743]","trial_type":"fractal-mutation","trial_index":65,"time_elapsed":1665077,"internal_node_id":"0.0-5.0-26.0"},{"group":"dihedral group of order 12","fractal_assignment":["../images/grn_prp.png","../images/pnk_blu.png","../images/grn_blu.png","../images/blu_wht.png","../images/ylw_pnk.png","../images/ylw_slt.png","../images/gry_blk.png","../images/cyn_red.png","../images/grn_red.png","../images/wht_red.png","../images/red_prp.png","../images/org_blu.png"],"mutagen_generator_assignment":[1,0],"goal":8,"start":1,"action_noise":0.15,"location_history":"[1,2,3,9,3,4,5,0,1,2,8]","action_history":"[0,1,1,1,0,0,0,1,0,1]","mutagen_history":"[1,0,0,0,1,1,1,0,1,0]","location_rts":"[1360,927,2421,564,712,342,408,832,561,978]","trial_type":"fractal-mutation","trial_index":66,"time_elapsed":1688957,"internal_node_id":"0.0-5.0-27.0"},{"group":"dihedral group of order 12","fractal_assignment":["../images/grn_prp.png","../images/pnk_blu.png","../images/grn_blu.png","../images/blu_wht.png","../images/ylw_pnk.png","../images/ylw_slt.png","../images/gry_blk.png","../images/cyn_red.png","../images/grn_red.png","../images/wht_red.png","../images/red_prp.png","../images/org_blu.png"],"mutagen_generator_assignment":[1,0],"goal":10,"start":8,"action_noise":0.15,"location_history":"[8,7,6,11,10]","action_history":"[0,0,0,0]","mutagen_history":"[1,1,1,1]","location_rts":"[992,343,772,264]","trial_type":"fractal-mutation","trial_index":67,"time_elapsed":1699469,"internal_node_id":"0.0-5.0-28.0"},{"group":"dihedral group of order 12","fractal_assignment":["../images/grn_prp.png","../images/pnk_blu.png","../images/grn_blu.png","../images/blu_wht.png","../images/ylw_pnk.png","../images/ylw_slt.png","../images/gry_blk.png","../images/cyn_red.png","../images/grn_red.png","../images/wht_red.png","../images/red_prp.png","../images/org_blu.png"],"mutagen_generator_assignment":[1,0],"goal":7,"start":10,"action_noise":0.15,"location_history":"[10,9,8,7]","action_history":"[0,0,0]","mutagen_history":"[1,1,1]","location_rts":"[1266,365,1095]","trial_type":"fractal-mutation","trial_index":68,"time_elapsed":1709171,"internal_node_id":"0.0-5.0-29.0"},{"group":"dihedral group of order 12","fractal_assignment":["../images/grn_prp.png","../images/pnk_blu.png","../images/grn_blu.png","../images/blu_wht.png","../images/ylw_pnk.png","../images/ylw_slt.png","../images/gry_blk.png","../images/cyn_red.png","../images/grn_red.png","../images/wht_red.png","../images/red_prp.png","../images/org_blu.png"],"mutagen_generator_assignment":[1,0],"goal":6,"start":7,"action_noise":0.15,"location_history":"[7,1,2,3,4,5,0,1,2,3,9,8,7,6]","action_history":"[0,0,0,0,0,0,0,0,0,1,0,0,0]","mutagen_history":"[1,1,1,1,1,1,1,1,1,0,1,1,1]","location_rts":"[1027,149,185,226,315,270,294,319,657,450,612,105,21]","trial_type":"fractal-mutation","trial_index":69,"time_elapsed":1732313,"internal_node_id":"0.0-5.0-30.0"},{"group":"dihedral group of order 12","fractal_assignment":["../images/grn_prp.png","../images/pnk_blu.png","../images/grn_blu.png","../images/blu_wht.png","../images/ylw_pnk.png","../images/ylw_slt.png","../images/gry_blk.png","../images/cyn_red.png","../images/grn_red.png","../images/wht_red.png","../images/red_prp.png","../images/org_blu.png"],"mutagen_generator_assignment":[1,0],"goal":0,"start":6,"action_noise":0.15,"location_history":"[6,11,10,9,3,4,5,0]","action_history":"[0,0,0,1,0,0,0]","mutagen_history":"[1,1,1,0,1,1,1]","location_rts":"[1839,2183,1178,603,1216,886,991]","trial_type":"fractal-mutation","trial_index":70,"time_elapsed":1752763,"internal_node_id":"0.0-5.0-31.0"},{"group":"dihedral group of order 12","fractal_assignment":["../images/grn_prp.png","../images/pnk_blu.png","../images/grn_blu.png","../images/blu_wht.png","../images/ylw_pnk.png","../images/ylw_slt.png","../images/gry_blk.png","../images/cyn_red.png","../images/grn_red.png","../images/wht_red.png","../images/red_prp.png","../images/org_blu.png"],"mutagen_generator_assignment":[1,0],"goal":11,"start":0,"action_noise":0.15,"location_history":"[0,1,2,3,4,5,11]","action_history":"[0,0,0,0,0,0]","mutagen_history":"[1,1,1,1,1,1]","location_rts":"[1203,480,490,509,492,434]","trial_type":"fractal-mutation","trial_index":71,"time_elapsed":1766842,"internal_node_id":"0.0-5.0-32.0"},{"group":"dihedral group of order 12","fractal_assignment":["../images/grn_prp.png","../images/pnk_blu.png","../images/grn_blu.png","../images/blu_wht.png","../images/ylw_pnk.png","../images/ylw_slt.png","../images/gry_blk.png","../images/cyn_red.png","../images/grn_red.png","../images/wht_red.png","../images/red_prp.png","../images/org_blu.png"],"mutagen_generator_assignment":[1,0],"goal":9,"start":11,"action_noise":0.15,"location_history":"[11,10,9]","action_history":"[0,0]","mutagen_history":"[1,1]","location_rts":"[1296,99]","trial_type":"fractal-mutation","trial_index":72,"time_elapsed":1774067,"internal_node_id":"0.0-5.0-33.0"},{"group":"dihedral group of order 12","fractal_assignment":["../images/grn_prp.png","../images/pnk_blu.png","../images/grn_blu.png","../images/blu_wht.png","../images/ylw_pnk.png","../images/ylw_slt.png","../images/gry_blk.png","../images/cyn_red.png","../images/grn_red.png","../images/wht_red.png","../images/red_prp.png","../images/org_blu.png"],"mutagen_generator_assignment":[1,0],"goal":5,"start":9,"action_noise":0.15,"location_history":"[9,3,9,8,7,6,11,5]","action_history":"[1,1,0,0,0,0,1]","mutagen_history":"[0,0,1,1,1,1,0]","location_rts":"[1192,933,395,216,21,153,619]","trial_type":"fractal-mutation","trial_index":73,"time_elapsed":1788879,"internal_node_id":"0.0-5.0-34.0"},{"view_history":"[{\"page_index\":0,\"viewing_time\":3332}]","rt":3332,"trial_type":"instructions","trial_index":74,"time_elapsed":1793213,"internal_node_id":"0.0-6.0"},{"rt":1740,"responses":"{\"Q0\":\"\"}","trial_type":"survey-text","trial_index":75,"time_elapsed":1795961,"internal_node_id":"0.0-7.0"}]