[{"view_history":"[{\"page_index\":0,\"viewing_time\":2435},{\"page_index\":1,\"viewing_time\":3945}]","rt":6381,"trial_type":"instructions","trial_index":0,"time_elapsed":6381,"internal_node_id":"0.0-0.0"},{"view_history":"[{\"page_index\":0,\"viewing_time\":1518},{\"page_index\":1,\"viewing_time\":10978}]","rt":12496,"trial_type":"instructions","trial_index":1,"time_elapsed":19879,"internal_node_id":"0.0-1.0"},{"group":"dihedral group of order 12","room_assignment":["olive","grey","red","blue","brown","yellow","cyan","pink","orange","green","purple","ivory"],"door_color_assignment":["white","black"],"door_generator_assignment":[1,0],"goal":7,"start":11,"action_noise":0.15,"location_history":"[11,10,9,3,9,8,7]","action_history":"[0,0,1,1,0,0]","door_history":"[1,1,0,0,1,1]","location_rts":"[6110,3733,1825,4846,4461,1024]","trial_type":"two-door-navigation","trial_index":2,"time_elapsed":51502,"internal_node_id":"0.0-2.0-0.0"},{"group":"dihedral group of order 12","room_assignment":["olive","grey","red","blue","brown","yellow","cyan","pink","orange","green","purple","ivory"],"door_color_assignment":["white","black"],"door_generator_assignment":[1,0],"goal":8,"start":7,"action_noise":0.15,"location_history":"[7,1,7,1,2,3,4,5,0,6,11,10,9,8]","action_history":"[1,1,1,0,0,0,0,1,0,0,0,0,0]","door_history":"[0,0,0,1,1,1,1,0,1,1,1,1,1]","location_rts":"[4138,1347,1825,1402,1421,1462,2120,2240,2955,2442,1033,1861,1724]","trial_type":"two-door-navigation","trial_index":3,"time_elapsed":94226,"internal_node_id":"0.0-2.0-1.0"},{"group":"dihedral group of order 12","room_assignment":["olive","grey","red","blue","brown","yellow","cyan","pink","orange","green","purple","ivory"],"door_color_assignment":["white","black"],"door_generator_assignment":[1,0],"goal":4,"start":8,"action_noise":0.15,"location_history":"[8,7,6,11,10,9,3,9,8,7,1,2,3,4]","action_history":"[0,0,0,0,1,0,0,0,0,1,0,0,0]","door_history":"[1,1,1,1,0,1,1,1,1,0,1,1,1]","location_rts":"[4374,3722,1717,823,1213,2466,1407,1677,1673,1563,1539,4621,1173]","trial_type":"two-door-navigation","trial_index":4,"time_elapsed":138930,"internal_node_id":"0.0-2.0-2.0"},{"group":"dihedral group of order 12","room_assignment":["olive","grey","red","blue","brown","yellow","cyan","pink","orange","green","purple","ivory"],"door_color_assignment":["white","black"],"door_generator_assignment":[1,0],"goal":5,"start":4,"action_noise":0.15,"location_history":"[4,5]","action_history":"[0]","door_history":"[1]","location_rts":"[6377]","trial_type":"two-door-navigation","trial_index":5,"time_elapsed":149831,"internal_node_id":"0.0-2.0-3.0"},{"group":"dihedral group of order 12","room_assignment":["olive","grey","red","blue","brown","yellow","cyan","pink","orange","green","purple","ivory"],"door_color_assignment":["white","black"],"door_generator_assignment":[1,0],"goal":10,"start":5,"action_noise":0.15,"location_history":"[5,0,1,2,3,4,5,0,1,2,3,9,8,7,6,11,10]","action_history":"[0,0,0,0,0,0,0,1,0,1,1,0,0,0,0,0]","door_history":"[1,1,1,1,1,1,1,0,1,0,0,1,1,1,1,1]","location_rts":"[2522,926,706,884,746,785,1231,955,1120,1335,1736,1066,1620,636,841,687]","trial_type":"two-door-navigation","trial_index":6,"time_elapsed":187419,"internal_node_id":"0.0-2.0-4.0"},{"group":"dihedral group of order 12","room_assignment":["olive","grey","red","blue","brown","yellow","cyan","pink","orange","green","purple","ivory"],"door_color_assignment":["white","black"],"door_generator_assignment":[1,0],"goal":1,"start":10,"action_noise":0.15,"location_history":"[10,9,8,7,6,11,10,9,8,2,8,2,3,4,5,0,1]","action_history":"[0,0,0,0,0,0,0,0,1,1,1,0,0,1,0,0]","door_history":"[1,1,1,1,1,1,1,1,0,0,0,1,1,0,1,1]","location_rts":"[4016,3129,759,1367,1606,2681,1709,4841,1605,867,1023,1038,1539,1420,917,4226]","trial_type":"two-door-navigation","trial_index":7,"time_elapsed":239965,"internal_node_id":"0.0-2.0-5.0"},{"group":"dihedral group of order 12","room_assignment":["olive","grey","red","blue","brown","yellow","cyan","pink","orange","green","purple","ivory"],"door_color_assignment":["white","black"],"door_generator_assignment":[1,0],"goal":6,"start":1,"action_noise":0.15,"location_history":"[1,2,3,9,8,7,6]","action_history":"[0,0,0,0,0,0]","door_history":"[1,1,1,1,1,1]","location_rts":"[2304,683,530,684,678,701]","trial_type":"two-door-navigation","trial_index":8,"time_elapsed":255170,"internal_node_id":"0.0-2.0-6.0"},{"group":"dihedral group of order 12","room_assignment":["olive","grey","red","blue","brown","yellow","cyan","pink","orange","green","purple","ivory"],"door_color_assignment":["white","black"],"door_generator_assignment":[1,0],"goal":9,"start":6,"action_noise":0.15,"location_history":"[6,11,10,9]","action_history":"[0,0,0]","door_history":"[1,1,1]","location_rts":"[2201,639,701]","trial_type":"two-door-navigation","trial_index":9,"time_elapsed":265273,"internal_node_id":"0.0-2.0-7.0"},{"group":"dihedral group of order 12","room_assignment":["olive","grey","red","blue","brown","yellow","cyan","pink","orange","green","purple","ivory"],"door_color_assignment":["white","black"],"door_generator_assignment":[1,0],"goal":2,"start":9,"action_noise":0.15,"location_history":"[9,8,7,6,11,10,9,8,7,6,11,10,9,3,4,10,4,5,11,10,9,8,2]","action_history":"[0,0,0,0,0,0,0,0,0,0,0,0,0,0,1,1,0,1,0,0,0,0]","door_history":"[1,1,1,1,1,1,1,1,1,1,1,1,1,1,0,0,1,0,1,1,1,1]","location_rts":"[1540,619,643,716,634,621,739,670,923,883,935,4177,940,741,829,1524,557,1052,1085,2626,636,581]","trial_type":"two-door-navigation","trial_index":10,"time_elapsed":314891,"internal_node_id":"0.0-2.0-8.0"},{"group":"dihedral group of order 12","room_assignment":["olive","grey","red","blue","brown","yellow","cyan","pink","orange","green","purple","ivory"],"door_color_assignment":["white","black"],"door_generator_assignment":[1,0],"goal":0,"start":2,"action_noise":0.15,"location_history":"[2,8,7,6,11,10,9,8,7,6,11,10,9,8,7,6,11,5,0]","action_history":"[1,0,0,0,0,0,0,0,0,0,0,0,0,0,0,0,1,0]","door_history":"[0,1,1,1,1,1,1,1,1,1,1,1,1,1,1,1,0,1]","location_rts":"[2075,1273,4090,630,976,558,729,1278,623,569,602,436,737,1641,981,709,1523,3998]","trial_type":"two-door-navigation","trial_index":11,"time_elapsed":360167,"internal_node_id":"0.0-2.0-9.0"},{"group":"dihedral group of order 12","room_assignment":["olive","grey","red","blue","brown","yellow","cyan","pink","orange","green","purple","ivory"],"door_color_assignment":["white","black"],"door_generator_assignment":[1,0],"goal":3,"start":0,"action_noise":0.15,"location_history":"[0,6,11,10,9,8,2,3]","action_history":"[0,0,0,0,0,0,0]","door_history":"[1,1,1,1,1,1,1]","location_rts":"[5884,889,856,659,494,571,1668]","trial_type":"two-door-navigation","trial_index":12,"time_elapsed":381824,"internal_node_id":"0.0-2.0-10.0"},{"group":"dihedral group of order 12","room_assignment":["olive","grey","red","blue","brown","yellow","cyan","pink","orange","green","purple","ivory"],"door_color_assignment":["white","black"],"door_generator_assignment":[1,0],"goal":10,"start":3,"action_noise":0.15,"location_history":"[3,4,5,0,1,2,3,4,5,0,1,7,6,11,10]","action_history":"[0,0,0,0,0,0,0,0,0,0,0,0,0,0]","door_history":"[1,1,1,1,1,1,1,1,1,1,1,1,1,1]","location_rts":"[2135,924,580,518,514,601,561,594,679,736,662,702,990,987]","trial_type":"two-door-navigation","trial_index":13,"time_elapsed":410794,"internal_node_id":"0.0-2.0-11.0"},{"group":"dihedral group of order 12","room_assignment":["olive","grey","red","blue","brown","yellow","cyan","pink","orange","green","purple","ivory"],"door_color_assignment":["white","black"],"door_generator_assignment":[1,0],"goal":8,"start":10,"action_noise":0.15,"location_history":"[10,9,8]","action_history":"[0,0]","door_history":"[1,1]","location_rts":"[1581,538]","trial_type":"two-door-navigation","trial_index":14,"time_elapsed":418458,"internal_node_id":"0.0-2.0-12.0"},{"group":"dihedral group of order 12","room_assignment":["olive","grey","red","blue","brown","yellow","cyan","pink","orange","green","purple","ivory"],"door_color_assignment":["white","black"],"door_generator_assignment":[1,0],"goal":4,"start":8,"action_noise":0.15,"location_history":"[8,7,6,11,10,4]","action_history":"[0,0,0,0,1]","door_history":"[1,1,1,1,0]","location_rts":"[2255,1027,1119,1901,769]","trial_type":"two-door-navigation","trial_index":15,"time_elapsed":434131,"internal_node_id":"0.0-2.0-13.0"},{"group":"dihedral group of order 12","room_assignment":["olive","grey","red","blue","brown","yellow","cyan","pink","orange","green","purple","ivory"],"door_color_assignment":["white","black"],"door_generator_assignment":[1,0],"goal":0,"start":4,"action_noise":0.15,"location_history":"[4,10,9,8,7,6,11,10,9,8,7,6,11,5,0]","action_history":"[0,0,0,0,0,0,0,0,0,0,0,0,1,0]","door_history":"[1,1,1,1,1,1,1,1,1,1,1,1,0,1]","location_rts":"[4832,1124,615,770,1301,701,596,824,2255,866,658,607,1122,4082]","trial_type":"two-door-navigation","trial_index":16,"time_elapsed":472280,"internal_node_id":"0.0-2.0-14.0"},{"group":"dihedral group of order 12","room_assignment":["olive","grey","red","blue","brown","yellow","cyan","pink","orange","green","purple","ivory"],"door_color_assignment":["white","black"],"door_generator_assignment":[1,0],"goal":11,"start":0,"action_noise":0.15,"location_history":"[0,1,2,3,4,5,0,1,2,3,9,8,7,6,11]","action_history":"[0,0,0,0,0,0,0,0,0,0,0,0,0,0]","door_history":"[1,1,1,1,1,1,1,1,1,1,1,1,1,1]","location_rts":"[1948,850,976,616,677,662,657,661,779,742,748,739,644,963]","trial_type":"two-door-navigation","trial_index":17,"time_elapsed":501719,"internal_node_id":"0.0-2.0-15.0"},{"group":"dihedral group of order 12","room_assignment":["olive","grey","red","blue","brown","yellow","cyan","pink","orange","green","purple","ivory"],"door_color_assignment":["white","black"],"door_generator_assignment":[1,0],"goal":2,"start":11,"action_noise":0.15,"location_history":"[11,10,9,3,4,5,0,1,7,6,11,5,11,5,0,1,2]","action_history":"[0,0,0,0,0,0,0,0,0,0,0,0,0,0,0,0]","door_history":"[1,1,1,1,1,1,1,1,1,1,1,1,1,1,1,1]","location_rts":"[20328,608,641,640,640,663,572,517,343,645,1105,1340,583,554,512,543]","trial_type":"two-door-navigation","trial_index":18,"time_elapsed":551794,"internal_node_id":"0.0-2.0-16.0"},{"group":"dihedral group of order 12","room_assignment":["olive","grey","red","blue","brown","yellow","cyan","pink","orange","green","purple","ivory"],"door_color_assignment":["white","black"],"door_generator_assignment":[1,0],"goal":7,"start":2,"action_noise":0.15,"location_history":"[2,3,4,10,9,3,4,5,0,1,2,3,4,5,0,1,7]","action_history":"[0,0,0,0,0,0,0,0,0,0,0,0,0,0,0,0]","door_history":"[1,1,1,1,1,1,1,1,1,1,1,1,1,1,1,1]","location_rts":"[1704,536,1088,599,817,1093,719,867,860,1630,742,639,1200,616,558,600]","trial_type":"two-door-navigation","trial_index":19,"time_elapsed":585877,"internal_node_id":"0.0-2.0-17.0"},{"group":"dihedral group of order 12","room_assignment":["olive","grey","red","blue","brown","yellow","cyan","pink","orange","green","purple","ivory"],"door_color_assignment":["white","black"],"door_generator_assignment":[1,0],"goal":5,"start":7,"action_noise":0.15,"location_history":"[7,6,11,5]","action_history":"[0,0,0]","door_history":"[1,1,1]","location_rts":"[6603,647,1373]","trial_type":"two-door-navigation","trial_index":20,"time_elapsed":601056,"internal_node_id":"0.0-2.0-18.0"},{"group":"dihedral group of order 12","room_assignment":["olive","grey","red","blue","brown","yellow","cyan","pink","orange","green","purple","ivory"],"door_color_assignment":["white","black"],"door_generator_assignment":[1,0],"goal":6,"start":5,"action_noise":0.15,"location_history":"[5,11,10,9,8,2,3,4,5,0,1,2,3,4,5,0,1,2,3,4,5,0,1,7,6]","action_history":"[1,0,0,0,0,0,0,0,0,0,0,0,0,0,0,0,0,0,0,0,0,0,1,0]","door_history":"[0,1,1,1,1,1,1,1,1,1,1,1,1,1,1,1,1,1,1,1,1,1,0,1]","location_rts":"[4000,2405,1412,501,481,574,883,603,820,655,4510,841,580,803,873,11353,1366,616,684,785,758,682,1010,1027]","trial_type":"two-door-navigation","trial_index":21,"time_elapsed":667273,"internal_node_id":"0.0-2.0-19.0"},{"group":"dihedral group of order 12","room_assignment":["olive","grey","red","blue","brown","yellow","cyan","pink","orange","green","purple","ivory"],"door_color_assignment":["white","black"],"door_generator_assignment":[1,0],"goal":3,"start":6,"action_noise":0.15,"location_history":"[6,11,10,4,5,0,1,2,3]","action_history":"[0,0,0,0,0,0,0,0]","door_history":"[1,1,1,1,1,1,1,1]","location_rts":"[2422,660,637,1279,1212,783,973,738]","trial_type":"two-door-navigation","trial_index":22,"time_elapsed":687631,"internal_node_id":"0.0-2.0-20.0"},{"group":"dihedral group of order 12","room_assignment":["olive","grey","red","blue","brown","yellow","cyan","pink","orange","green","purple","ivory"],"door_color_assignment":["white","black"],"door_generator_assignment":[1,0],"goal":1,"start":3,"action_noise":0.15,"location_history":"[3,9,8,7,6,11,5,0,1]","action_history":"[0,0,0,0,0,0,0,0]","door_history":"[1,1,1,1,1,1,1,1]","location_rts":"[4188,724,378,482,437,440,546,348]","trial_type":"two-door-navigation","trial_index":23,"time_elapsed":706812,"internal_node_id":"0.0-2.0-21.0"},{"group":"dihedral group of order 12","room_assignment":["olive","grey","red","blue","brown","yellow","cyan","pink","orange","green","purple","ivory"],"door_color_assignment":["white","black"],"door_generator_assignment":[1,0],"goal":9,"start":1,"action_noise":0.15,"location_history":"[1,2,3,9]","action_history":"[0,0,0]","door_history":"[1,1,1]","location_rts":"[6576,968,564]","trial_type":"two-door-navigation","trial_index":24,"time_elapsed":721484,"internal_node_id":"0.0-2.0-22.0"},{"group":"dihedral group of order 12","room_assignment":["olive","grey","red","blue","brown","yellow","cyan","pink","orange","green","purple","ivory"],"door_color_assignment":["white","black"],"door_generator_assignment":[1,0],"goal":3,"start":9,"action_noise":0.15,"location_history":"[9,3]","action_history":"[1]","door_history":"[0]","location_rts":"[2381]","trial_type":"two-door-navigation","trial_index":25,"time_elapsed":728385,"internal_node_id":"0.0-2.0-23.0"},{"group":"dihedral group of order 12","room_assignment":["olive","grey","red","blue","brown","yellow","cyan","pink","orange","green","purple","ivory"],"door_color_assignment":["white","black"],"door_generator_assignment":[1,0],"goal":4,"start":3,"action_noise":0.15,"location_history":"[3,4]","action_history":"[0]","door_history":"[1]","location_rts":"[3831]","trial_type":"two-door-navigation","trial_index":26,"time_elapsed":736737,"internal_node_id":"0.0-2.0-24.0"},{"group":"dihedral group of order 12","room_assignment":["olive","grey","red","blue","brown","yellow","cyan","pink","orange","green","purple","ivory"],"door_color_assignment":["white","black"],"door_generator_assignment":[1,0],"goal":2,"start":4,"action_noise":0.15,"location_history":"[4,5,0,6,11,5,11,10,4,5,0,1,2]","action_history":"[0,0,0,0,0,0,0,0,0,0,0,0]","door_history":"[1,1,1,1,1,1,1,1,1,1,1,1]","location_rts":"[4872,593,540,556,556,840,551,603,966,2464,700,641]","trial_type":"two-door-navigation","trial_index":27,"time_elapsed":766373,"internal_node_id":"0.0-2.0-25.0"},{"group":"dihedral group of order 12","room_assignment":["olive","grey","red","blue","brown","yellow","cyan","pink","orange","green","purple","ivory"],"door_color_assignment":["white","black"],"door_generator_assignment":[1,0],"goal":1,"start":2,"action_noise":0.15,"location_history":"[2,8,7,6,11,10,9,8,2,3,4,5,11,10,9,8,2,8,7,6,0,6,11,5,0,1]","action_history":"[1,0,0,0,0,0,0,0,0,0,0,0,0,0,0,1,1,1,0,1,0,0,1,0,0]","door_history":"[0,1,1,1,1,1,1,1,1,1,1,1,1,1,1,0,0,0,1,0,1,1,0,1,1]","location_rts":"[2998,2893,2278,726,848,1538,1803,1466,650,1890,551,452,465,660,827,1149,1181,2171,2832,2400,2590,8868,3766,684,3208]","trial_type":"two-door-navigation","trial_index":28,"time_elapsed":844268,"internal_node_id":"0.0-2.0-26.0"},{"group":"dihedral group of order 12","room_assignment":["olive","grey","red","blue","brown","yellow","cyan","pink","orange","green","purple","ivory"],"door_color_assignment":["white","black"],"door_generator_assignment":[1,0],"goal":8,"start":1,"action_noise":0.15,"location_history":"[1,2,3,9,3,4,5,0,1,2,3,4,5,0,1,2,3,4,5,0,6,11,10,9,8]","action_history":"[0,0,0,0,0,0,0,0,0,0,1,0,0,0,0,0,0,0,0,0,0,0,0,0]","door_history":"[1,1,1,1,1,1,1,1,1,1,0,1,1,1,1,1,1,1,1,1,1,1,1,1]","location_rts":"[5588,836,673,553,787,560,536,857,666,708,981,4696,1143,725,780,983,1024,539,678,517,1953,859,647,661]","trial_type":"two-door-navigation","trial_index":29,"time_elapsed":900199,"internal_node_id":"0.0-2.0-27.0"},{"group":"dihedral group of order 12","room_assignment":["olive","grey","red","blue","brown","yellow","cyan","pink","orange","green","purple","ivory"],"door_color_assignment":["white","black"],"door_generator_assignment":[1,0],"goal":10,"start":8,"action_noise":0.15,"location_history":"[8,2,3,9,8,7,6,11,5,0,1,2,3,9,3,4,5,0,6,11,10]","action_history":"[0,0,0,0,0,0,0,0,0,0,0,0,0,0,0,0,0,0,0,0]","door_history":"[1,1,1,1,1,1,1,1,1,1,1,1,1,1,1,1,1,1,1,1]","location_rts":"[2791,2320,2524,947,624,778,573,885,660,1947,2074,1439,579,620,1109,1379,539,640,580,578]","trial_type":"two-door-navigation","trial_index":30,"time_elapsed":947671,"internal_node_id":"0.0-2.0-28.0"},{"group":"dihedral group of order 12","room_assignment":["olive","grey","red","blue","brown","yellow","cyan","pink","orange","green","purple","ivory"],"door_color_assignment":["white","black"],"door_generator_assignment":[1,0],"goal":7,"start":10,"action_noise":0.15,"location_history":"[10,4,10,9,3,4,5,0,6,11,10,9,8,7]","action_history":"[1,0,0,0,0,0,0,0,0,0,0,0,0]","door_history":"[0,1,1,1,1,1,1,1,1,1,1,1,1]","location_rts":"[2531,687,1765,1587,1727,766,602,646,687,1725,1122,1405,830]","trial_type":"two-door-navigation","trial_index":31,"time_elapsed":980504,"internal_node_id":"0.0-2.0-29.0"},{"group":"dihedral group of order 12","room_assignment":["olive","grey","red","blue","brown","yellow","cyan","pink","orange","green","purple","ivory"],"door_color_assignment":["white","black"],"door_generator_assignment":[1,0],"goal":6,"start":7,"action_noise":0.15,"location_history":"[7,6]","action_history":"[0]","door_history":"[1]","location_rts":"[2473]","trial_type":"two-door-navigation","trial_index":32,"time_elapsed":987502,"internal_node_id":"0.0-2.0-30.0"},{"group":"dihedral group of order 12","room_assignment":["olive","grey","red","blue","brown","yellow","cyan","pink","orange","green","purple","ivory"],"door_color_assignment":["white","black"],"door_generator_assignment":[1,0],"goal":0,"start":6,"action_noise":0.15,"location_history":"[6,11,10,4,5,0]","action_history":"[0,0,0,0,0]","door_history":"[1,1,1,1,1]","location_rts":"[1762,638,417,759,537]","trial_type":"two-door-navigation","trial_index":33,"time_elapsed":1000221,"internal_node_id":"0.0-2.0-31.0"},{"group":"dihedral group of order 12","room_assignment":["olive","grey","red","blue","brown","yellow","cyan","pink","orange","green","purple","ivory"],"door_color_assignment":["white","black"],"door_generator_assignment":[1,0],"goal":11,"start":0,"action_noise":0.15,"location_history":"[0,1,2,3,4,5,0,6,11]","action_history":"[0,0,0,0,0,0,0,0]","door_history":"[1,1,1,1,1,1,1,1]","location_rts":"[3363,2812,644,1025,929,1017,2484,1236]","trial_type":"two-door-navigation","trial_index":34,"time_elapsed":1025401,"internal_node_id":"0.0-2.0-32.0"},{"group":"dihedral group of order 12","room_assignment":["olive","grey","red","blue","brown","yellow","cyan","pink","orange","green","purple","ivory"],"door_color_assignment":["white","black"],"door_generator_assignment":[1,0],"goal":9,"start":11,"action_noise":0.15,"location_history":"[11,10,9]","action_history":"[0,0]","door_history":"[1,1]","location_rts":"[2279,1105]","trial_type":"two-door-navigation","trial_index":35,"time_elapsed":1034329,"internal_node_id":"0.0-2.0-33.0"},{"group":"dihedral group of order 12","room_assignment":["olive","grey","red","blue","brown","yellow","cyan","pink","orange","green","purple","ivory"],"door_color_assignment":["white","black"],"door_generator_assignment":[1,0],"goal":5,"start":9,"action_noise":0.15,"location_history":"[9,8,7,6,11,10,9,8,2,3,4,5]","action_history":"[0,0,0,0,0,0,0,0,0,0,0]","door_history":"[1,1,1,1,1,1,1,1,1,1,1]","location_rts":"[2124,841,909,804,635,503,1584,826,1971,513,701]","trial_type":"two-door-navigation","trial_index":36,"time_elapsed":1060452,"internal_node_id":"0.0-2.0-34.0"},{"view_history":"[{\"page_index\":0,\"viewing_time\":2260}]","rt":2260,"trial_type":"instructions","trial_index":37,"time_elapsed":1063713,"internal_node_id":"0.0-3.0"},{"view_history":"[{\"page_index\":0,\"viewing_time\":3464},{\"page_index\":1,\"viewing_time\":3961}]","rt":7425,"trial_type":"instructions","trial_index":38,"time_elapsed":1072139,"internal_node_id":"0.0-4.0"},{"group":"dicyclic group of order 12","fractal_assignment":["../images/wht_red.png","../images/org_blu.png","../images/pnk_blu.png","../images/grn_red.png","../images/grn_prp.png","../images/red_prp.png","../images/blu_wht.png","../images/grn_blu.png","../images/gry_blk.png","../images/ylw_slt.png","../images/cyn_red.png","../images/ylw_pnk.png"],"mutagen_generator_assignment":[0,1],"goal":7,"start":11,"action_noise":0.15,"location_history":"[11,4,8,0,4,9,6,11,4,8,0,1,5,9,6,11,4,9,1,2,3,7]","action_history":"[0,1,1,1,0,0,1,1,1,0,0,1,1,0,1,0,1,1,0,0,1]","mutagen_history":"[0,1,1,1,0,0,1,1,1,0,0,1,1,0,1,0,1,1,0,0,1]","location_rts":"[4797,878,1047,1113,651,643,619,929,1118,503,691,532,661,484,477,482,486,1576,913,1304,1633]","trial_type":"fractal-mutation","trial_index":39,"time_elapsed":1119539,"internal_node_id":"0.0-5.0-0.0"},{"group":"dicyclic group of order 12","fractal_assignment":["../images/wht_red.png","../images/org_blu.png","../images/pnk_blu.png","../images/grn_red.png","../images/grn_prp.png","../images/red_prp.png","../images/blu_wht.png","../images/grn_blu.png","../images/gry_blk.png","../images/ylw_slt.png","../images/cyn_red.png","../images/ylw_pnk.png"],"mutagen_generator_assignment":[0,1],"goal":8,"start":7,"action_noise":0.15,"location_history":"[7,8]","action_history":"[0]","mutagen_history":"[0]","location_rts":"[1926]","trial_type":"fractal-mutation","trial_index":40,"time_elapsed":1126015,"internal_node_id":"0.0-5.0-1.0"},{"group":"dicyclic group of order 12","fractal_assignment":["../images/wht_red.png","../images/org_blu.png","../images/pnk_blu.png","../images/grn_red.png","../images/grn_prp.png","../images/red_prp.png","../images/blu_wht.png","../images/grn_blu.png","../images/gry_blk.png","../images/ylw_slt.png","../images/cyn_red.png","../images/ylw_pnk.png"],"mutagen_generator_assignment":[0,1],"goal":4,"start":8,"action_noise":0.15,"location_history":"[8,5,10,7,11,4]","action_history":"[0,0,0,1,1]","mutagen_history":"[0,0,0,1,1]","location_rts":"[2066,609,617,2556,715]","trial_type":"fractal-mutation","trial_index":41,"time_elapsed":1141380,"internal_node_id":"0.0-5.0-2.0"},{"group":"dicyclic group of order 12","fractal_assignment":["../images/wht_red.png","../images/org_blu.png","../images/pnk_blu.png","../images/grn_red.png","../images/grn_prp.png","../images/red_prp.png","../images/blu_wht.png","../images/grn_blu.png","../images/gry_blk.png","../images/ylw_slt.png","../images/cyn_red.png","../images/ylw_pnk.png"],"mutagen_generator_assignment":[0,1],"goal":5,"start":4,"action_noise":0.15,"location_history":"[4,9,6,11,4,8,5]","action_history":"[0,0,0,0,1,0]","mutagen_history":"[0,0,0,0,1,0]","location_rts":"[1725,575,683,711,577,1099]","trial_type":"fractal-mutation","trial_index":42,"time_elapsed":1156590,"internal_node_id":"0.0-5.0-3.0"},{"group":"dicyclic group of order 12","fractal_assignment":["../images/wht_red.png","../images/org_blu.png","../images/pnk_blu.png","../images/grn_red.png","../images/grn_prp.png","../images/red_prp.png","../images/blu_wht.png","../images/grn_blu.png","../images/gry_blk.png","../images/ylw_slt.png","../images/cyn_red.png","../images/ylw_pnk.png"],"mutagen_generator_assignment":[0,1],"goal":10,"start":5,"action_noise":0.15,"location_history":"[5,9,1,5,9,1,2,6,10]","action_history":"[1,0,1,1,1,1,1,1]","mutagen_history":"[1,0,1,1,1,1,1,1]","location_rts":"[2893,661,677,793,573,1131,1078,1259]","trial_type":"fractal-mutation","trial_index":43,"time_elapsed":1177725,"internal_node_id":"0.0-5.0-4.0"},{"group":"dicyclic group of order 12","fractal_assignment":["../images/wht_red.png","../images/org_blu.png","../images/pnk_blu.png","../images/grn_red.png","../images/grn_prp.png","../images/red_prp.png","../images/blu_wht.png","../images/grn_blu.png","../images/gry_blk.png","../images/ylw_slt.png","../images/cyn_red.png","../images/ylw_pnk.png"],"mutagen_generator_assignment":[0,1],"goal":1,"start":10,"action_noise":0.15,"location_history":"[10,7,11,4,9,6,11,3,7,8,5,10,2,3,0,1]","action_history":"[0,1,0,0,0,0,1,1,1,0,0,1,1,0,1]","mutagen_history":"[0,1,0,0,0,0,1,1,1,0,0,1,1,0,1]","location_rts":"[2336,627,1333,654,500,605,1055,617,1606,949,1121,656,732,537,775]","trial_type":"fractal-mutation","trial_index":44,"time_elapsed":1211252,"internal_node_id":"0.0-5.0-5.0"},{"group":"dicyclic group of order 12","fractal_assignment":["../images/wht_red.png","../images/org_blu.png","../images/pnk_blu.png","../images/grn_red.png","../images/grn_prp.png","../images/red_prp.png","../images/blu_wht.png","../images/grn_blu.png","../images/gry_blk.png","../images/ylw_slt.png","../images/cyn_red.png","../images/ylw_pnk.png"],"mutagen_generator_assignment":[0,1],"goal":6,"start":1,"action_noise":0.15,"location_history":"[1,2,3,0,4,8,0,4,9,1,5,9,6]","action_history":"[0,0,0,0,1,1,1,0,1,1,1,0]","mutagen_history":"[0,0,0,0,1,1,1,0,1,1,1,0]","location_rts":"[3064,1054,775,605,1066,1407,990,1060,816,787,753,775]","trial_type":"fractal-mutation","trial_index":45,"time_elapsed":1240642,"internal_node_id":"0.0-5.0-6.0"},{"group":"dicyclic group of order 12","fractal_assignment":["../images/wht_red.png","../images/org_blu.png","../images/pnk_blu.png","../images/grn_red.png","../images/grn_prp.png","../images/red_prp.png","../images/blu_wht.png","../images/grn_blu.png","../images/gry_blk.png","../images/ylw_slt.png","../images/cyn_red.png","../images/ylw_pnk.png"],"mutagen_generator_assignment":[0,1],"goal":9,"start":6,"action_noise":0.15,"location_history":"[6,11,3,0,1,5,9]","action_history":"[0,0,0,0,1,1]","mutagen_history":"[0,0,0,0,1,1]","location_rts":"[3515,1056,858,1317,1017,1381]","trial_type":"fractal-mutation","trial_index":46,"time_elapsed":1259622,"internal_node_id":"0.0-5.0-7.0"},{"group":"dicyclic group of order 12","fractal_assignment":["../images/wht_red.png","../images/org_blu.png","../images/pnk_blu.png","../images/grn_red.png","../images/grn_prp.png","../images/red_prp.png","../images/blu_wht.png","../images/grn_blu.png","../images/gry_blk.png","../images/ylw_slt.png","../images/cyn_red.png","../images/ylw_pnk.png"],"mutagen_generator_assignment":[0,1],"goal":2,"start":9,"action_noise":0.15,"location_history":"[9,1,5,10,7,11,4,8,0,4,9,6,11,4,9,6,11,4,9,6,10,7,11,3,7,11,4,9,1,2]","action_history":"[1,1,0,0,1,0,1,1,1,1,0,0,0,0,0,0,1,0,1,1,0,1,1,1,1,0,0,1,1]","mutagen_history":"[1,1,0,0,1,0,1,1,1,1,0,0,0,0,0,0,1,0,1,1,0,1,1,1,1,0,0,1,1]","location_rts":"[2718,665,703,934,753,783,614,552,633,887,1715,1350,764,354,102,1105,891,909,894,1159,2367,846,973,644,973,915,822,1046,389]","trial_type":"fractal-mutation","trial_index":47,"time_elapsed":1321397,"internal_node_id":"0.0-5.0-8.0"},{"group":"dicyclic group of order 12","fractal_assignment":["../images/wht_red.png","../images/org_blu.png","../images/pnk_blu.png","../images/grn_red.png","../images/grn_prp.png","../images/red_prp.png","../images/blu_wht.png","../images/grn_blu.png","../images/gry_blk.png","../images/ylw_slt.png","../images/cyn_red.png","../images/ylw_pnk.png"],"mutagen_generator_assignment":[0,1],"goal":0,"start":2,"action_noise":0.15,"location_history":"[2,3,0]","action_history":"[0,0]","mutagen_history":"[0,0]","location_rts":"[1785,782]","trial_type":"fractal-mutation","trial_index":48,"time_elapsed":1329566,"internal_node_id":"0.0-5.0-9.0"},{"group":"dicyclic group of order 12","fractal_assignment":["../images/wht_red.png","../images/org_blu.png","../images/pnk_blu.png","../images/grn_red.png","../images/grn_prp.png","../images/red_prp.png","../images/blu_wht.png","../images/grn_blu.png","../images/gry_blk.png","../images/ylw_slt.png","../images/cyn_red.png","../images/ylw_pnk.png"],"mutagen_generator_assignment":[0,1],"goal":3,"start":0,"action_noise":0.15,"location_history":"[0,1,2,3]","action_history":"[0,0,0]","mutagen_history":"[0,0,0]","location_rts":"[2306,489,330]","trial_type":"fractal-mutation","trial_index":49,"time_elapsed":1339334,"internal_node_id":"0.0-5.0-10.0"},{"group":"dicyclic group of order 12","fractal_assignment":["../images/wht_red.png","../images/org_blu.png","../images/pnk_blu.png","../images/grn_red.png","../images/grn_prp.png","../images/red_prp.png","../images/blu_wht.png","../images/grn_blu.png","../images/gry_blk.png","../images/ylw_slt.png","../images/cyn_red.png","../images/ylw_pnk.png"],"mutagen_generator_assignment":[0,1],"goal":10,"start":3,"action_noise":0.15,"location_history":"[3,7,11,3,7,8,5,9,6,10]","action_history":"[1,1,1,1,0,0,1,0,1]","mutagen_history":"[1,1,1,1,0,0,1,0,1]","location_rts":"[1622,1247,765,1619,769,1059,934,744,855]","trial_type":"fractal-mutation","trial_index":50,"time_elapsed":1362037,"internal_node_id":"0.0-5.0-11.0"},{"group":"dicyclic group of order 12","fractal_assignment":["../images/wht_red.png","../images/org_blu.png","../images/pnk_blu.png","../images/grn_red.png","../images/grn_prp.png","../images/red_prp.png","../images/blu_wht.png","../images/grn_blu.png","../images/gry_blk.png","../images/ylw_slt.png","../images/cyn_red.png","../images/ylw_pnk.png"],"mutagen_generator_assignment":[0,1],"goal":8,"start":10,"action_noise":0.15,"location_history":"[10,7,8]","action_history":"[0,0]","mutagen_history":"[0,0]","location_rts":"[1733,786]","trial_type":"fractal-mutation","trial_index":51,"time_elapsed":1370150,"internal_node_id":"0.0-5.0-12.0"},{"group":"dicyclic group of order 12","fractal_assignment":["../images/wht_red.png","../images/org_blu.png","../images/pnk_blu.png","../images/grn_red.png","../images/grn_prp.png","../images/red_prp.png","../images/blu_wht.png","../images/grn_blu.png","../images/gry_blk.png","../images/ylw_slt.png","../images/cyn_red.png","../images/ylw_pnk.png"],"mutagen_generator_assignment":[0,1],"goal":4,"start":8,"action_noise":0.15,"location_history":"[8,5,10,7,8,0,4]","action_history":"[0,0,0,0,0,1]","mutagen_history":"[0,0,0,0,0,1]","location_rts":"[1658,655,635,625,684,636]","trial_type":"fractal-mutation","trial_index":52,"time_elapsed":1384862,"internal_node_id":"0.0-5.0-13.0"},{"group":"dicyclic group of order 12","fractal_assignment":["../images/wht_red.png","../images/org_blu.png","../images/pnk_blu.png","../images/grn_red.png","../images/grn_prp.png","../images/red_prp.png","../images/blu_wht.png","../images/grn_blu.png","../images/gry_blk.png","../images/ylw_slt.png","../images/cyn_red.png","../images/ylw_pnk.png"],"mutagen_generator_assignment":[0,1],"goal":0,"start":4,"action_noise":0.15,"location_history":"[4,9,1,2,3,7,11,4,9,6,10,7,11,3,0]","action_history":"[0,0,1,0,1,1,0,0,1,1,0,1,1,0]","mutagen_history":"[0,0,1,0,1,1,0,0,1,1,0,1,1,0]","location_rts":"[2229,653,959,781,928,1154,957,799,580,698,727,643,794,750]","trial_type":"fractal-mutation","trial_index":53,"time_elapsed":1415877,"internal_node_id":"0.0-5.0-14.0"},{"group":"dicyclic group of order 12","fractal_assignment":["../images/wht_red.png","../images/org_blu.png","../images/pnk_blu.png","../images/grn_red.png","../images/grn_prp.png","../images/red_prp.png","../images/blu_wht.png","../images/grn_blu.png","../images/gry_blk.png","../images/ylw_slt.png","../images/cyn_red.png","../images/ylw_pnk.png"],"mutagen_generator_assignment":[0,1],"goal":11,"start":0,"action_noise":0.15,"location_history":"[0,1,2,3,7,8,5,10,7,11]","action_history":"[1,0,0,1,0,0,0,0,0]","mutagen_history":"[1,0,0,1,0,0,0,0,0]","location_rts":"[1355,579,446,630,731,279,85,367,441]","trial_type":"fractal-mutation","trial_index":54,"time_elapsed":1433789,"internal_node_id":"0.0-5.0-15.0"},{"group":"dicyclic group of order 12","fractal_assignment":["../images/wht_red.png","../images/org_blu.png","../images/pnk_blu.png","../images/grn_red.png","../images/grn_prp.png","../images/red_prp.png","../images/blu_wht.png","../images/grn_blu.png","../images/gry_blk.png","../images/ylw_slt.png","../images/cyn_red.png","../images/ylw_pnk.png"],"mutagen_generator_assignment":[0,1],"goal":2,"start":11,"action_noise":0.15,"location_history":"[11,3,7,8,0,1,2]","action_history":"[1,0,1,1,0,0]","mutagen_history":"[1,0,1,1,0,0]","location_rts":"[1855,652,1117,721,782,1001]","trial_type":"fractal-mutation","trial_index":55,"time_elapsed":1449778,"internal_node_id":"0.0-5.0-16.0"},{"group":"dicyclic group of order 12","fractal_assignment":["../images/wht_red.png","../images/org_blu.png","../images/pnk_blu.png","../images/grn_red.png","../images/grn_prp.png","../images/red_prp.png","../images/blu_wht.png","../images/grn_blu.png","../images/gry_blk.png","../images/ylw_slt.png","../images/cyn_red.png","../images/ylw_pnk.png"],"mutagen_generator_assignment":[0,1],"goal":7,"start":2,"action_noise":0.15,"location_history":"[2,3,0,1,2,6,11,3,0,1,5,9,6,11,3,0,1,2,3,7]","action_history":"[0,0,0,0,1,0,0,0,0,1,1,0,0,1,0,0,0,0,1]","mutagen_history":"[0,0,0,0,1,0,0,0,0,1,1,0,0,1,0,0,0,0,1]","location_rts":"[2153,702,893,804,736,642,709,720,1007,951,883,846,865,637,814,1152,894,1261,714]","trial_type":"fractal-mutation","trial_index":56,"time_elapsed":1490720,"internal_node_id":"0.0-5.0-17.0"},{"group":"dicyclic group of order 12","fractal_assignment":["../images/wht_red.png","../images/org_blu.png","../images/pnk_blu.png","../images/grn_red.png","../images/grn_prp.png","../images/red_prp.png","../images/blu_wht.png","../images/grn_blu.png","../images/gry_blk.png","../images/ylw_slt.png","../images/cyn_red.png","../images/ylw_pnk.png"],"mutagen_generator_assignment":[0,1],"goal":5,"start":7,"action_noise":0.15,"location_history":"[7,8,5]","action_history":"[0,0]","mutagen_history":"[0,0]","location_rts":"[1691,796]","trial_type":"fractal-mutation","trial_index":57,"time_elapsed":1498811,"internal_node_id":"0.0-5.0-18.0"},{"group":"dicyclic group of order 12","fractal_assignment":["../images/wht_red.png","../images/org_blu.png","../images/pnk_blu.png","../images/grn_red.png","../images/grn_prp.png","../images/red_prp.png","../images/blu_wht.png","../images/grn_blu.png","../images/gry_blk.png","../images/ylw_slt.png","../images/cyn_red.png","../images/ylw_pnk.png"],"mutagen_generator_assignment":[0,1],"goal":6,"start":5,"action_noise":0.15,"location_history":"[5,9,1,2,3,0,1,5,9,6]","action_history":"[1,1,0,0,0,0,1,1,0]","mutagen_history":"[1,1,0,0,0,0,1,1,0]","location_rts":"[2569,944,486,759,1010,992,906,907,557]","trial_type":"fractal-mutation","trial_index":58,"time_elapsed":1520992,"internal_node_id":"0.0-5.0-19.0"},{"group":"dicyclic group of order 12","fractal_assignment":["../images/wht_red.png","../images/org_blu.png","../images/pnk_blu.png","../images/grn_red.png","../images/grn_prp.png","../images/red_prp.png","../images/blu_wht.png","../images/grn_blu.png","../images/gry_blk.png","../images/ylw_slt.png","../images/cyn_red.png","../images/ylw_pnk.png"],"mutagen_generator_assignment":[0,1],"goal":3,"start":6,"action_noise":0.15,"location_history":"[6,11,4,8,5,10,7,11,4,8,5,10,7,11,3]","action_history":"[0,0,1,0,0,0,0,0,1,0,0,0,0,1]","mutagen_history":"[0,0,1,0,0,0,0,0,1,0,0,0,0,1]","location_rts":"[2252,756,1612,694,2019,800,780,1375,1321,390,481,775,775,922]","trial_type":"fractal-mutation","trial_index":59,"time_elapsed":1554206,"internal_node_id":"0.0-5.0-20.0"},{"group":"dicyclic group of order 12","fractal_assignment":["../images/wht_red.png","../images/org_blu.png","../images/pnk_blu.png","../images/grn_red.png","../images/grn_prp.png","../images/red_prp.png","../images/blu_wht.png","../images/grn_blu.png","../images/gry_blk.png","../images/ylw_slt.png","../images/cyn_red.png","../images/ylw_pnk.png"],"mutagen_generator_assignment":[0,1],"goal":1,"start":3,"action_noise":0.15,"location_history":"[3,7,8,5,9,6,11,3,7,8,5,9,1]","action_history":"[0,0,0,1,0,0,0,1,0,0,1,1]","mutagen_history":"[0,0,0,1,0,0,0,1,0,0,1,1]","location_rts":"[10617,673,752,1159,736,619,672,607,577,639,1104,791]","trial_type":"fractal-mutation","trial_index":60,"time_elapsed":1589330,"internal_node_id":"0.0-5.0-21.0"},{"group":"dicyclic group of order 12","fractal_assignment":["../images/wht_red.png","../images/org_blu.png","../images/pnk_blu.png","../images/grn_red.png","../images/grn_prp.png","../images/red_prp.png","../images/blu_wht.png","../images/grn_blu.png","../images/gry_blk.png","../images/ylw_slt.png","../images/cyn_red.png","../images/ylw_pnk.png"],"mutagen_generator_assignment":[0,1],"goal":9,"start":1,"action_noise":0.15,"location_history":"[1,2,6,10,2,6,11,4,9]","action_history":"[0,1,1,1,1,0,0,0]","mutagen_history":"[0,1,1,1,1,0,0,0]","location_rts":"[1011,1056,615,1573,1441,698,945,1242]","trial_type":"fractal-mutation","trial_index":61,"time_elapsed":1609900,"internal_node_id":"0.0-5.0-22.0"},{"group":"dicyclic group of order 12","fractal_assignment":["../images/wht_red.png","../images/org_blu.png","../images/pnk_blu.png","../images/grn_red.png","../images/grn_prp.png","../images/red_prp.png","../images/blu_wht.png","../images/grn_blu.png","../images/gry_blk.png","../images/ylw_slt.png","../images/cyn_red.png","../images/ylw_pnk.png"],"mutagen_generator_assignment":[0,1],"goal":3,"start":9,"action_noise":0.15,"location_history":"[9,1,2,3]","action_history":"[1,0,0]","mutagen_history":"[1,0,0]","location_rts":"[3148,959,749]","trial_type":"fractal-mutation","trial_index":62,"time_elapsed":1621430,"internal_node_id":"0.0-5.0-23.0"},{"group":"dicyclic group of order 12","fractal_assignment":["../images/wht_red.png","../images/org_blu.png","../images/pnk_blu.png","../images/grn_red.png","../images/grn_prp.png","../images/red_prp.png","../images/blu_wht.png","../images/grn_blu.png","../images/gry_blk.png","../images/ylw_slt.png","../images/cyn_red.png","../images/ylw_pnk.png"],"mutagen_generator_assignment":[0,1],"goal":4,"start":3,"action_noise":0.15,"location_history":"[3,0,1,2,3,0,4]","action_history":"[0,0,0,0,0,1]","mutagen_history":"[0,0,0,0,0,1]","location_rts":"[6338,671,554,657,769,833]","trial_type":"fractal-mutation","trial_index":63,"time_elapsed":1641062,"internal_node_id":"0.0-5.0-24.0"},{"group":"dicyclic group of order 12","fractal_assignment":["../images/wht_red.png","../images/org_blu.png","../images/pnk_blu.png","../images/grn_red.png","../images/grn_prp.png","../images/red_prp.png","../images/blu_wht.png","../images/grn_blu.png","../images/gry_blk.png","../images/ylw_slt.png","../images/cyn_red.png","../images/ylw_pnk.png"],"mutagen_generator_assignment":[0,1],"goal":2,"start":4,"action_noise":0.15,"location_history":"[4,9,6,10,2]","action_history":"[0,0,1,1]","mutagen_history":"[0,0,1,1]","location_rts":"[9859,793,887,1354]","trial_type":"fractal-mutation","trial_index":64,"time_elapsed":1661699,"internal_node_id":"0.0-5.0-25.0"},{"group":"dicyclic group of order 12","fractal_assignment":["../images/wht_red.png","../images/org_blu.png","../images/pnk_blu.png","../images/grn_red.png","../images/grn_prp.png","../images/red_prp.png","../images/blu_wht.png","../images/grn_blu.png","../images/gry_blk.png","../images/ylw_slt.png","../images/cyn_red.png","../images/ylw_pnk.png"],"mutagen_generator_assignment":[0,1],"goal":1,"start":2,"action_noise":0.15,"location_history":"[2,3,0,1]","action_history":"[0,0,0]","mutagen_history":"[0,0,0]","location_rts":"[1453,1006,912]","trial_type":"fractal-mutation","trial_index":65,"time_elapsed":1671719,"internal_node_id":"0.0-5.0-26.0"},{"group":"dicyclic group of order 12","fractal_assignment":["../images/wht_red.png","../images/org_blu.png","../images/pnk_blu.png","../images/grn_red.png","../images/grn_prp.png","../images/red_prp.png","../images/blu_wht.png","../images/grn_blu.png","../images/gry_blk.png","../images/ylw_slt.png","../images/cyn_red.png","../images/ylw_pnk.png"],"mutagen_generator_assignment":[0,1],"goal":8,"start":1,"action_noise":0.15,"location_history":"[1,5,10,7,8]","action_history":"[0,0,0,0]","mutagen_history":"[0,0,0,0]","location_rts":"[1642,703,647,727]","trial_type":"fractal-mutation","trial_index":66,"time_elapsed":1683135,"internal_node_id":"0.0-5.0-27.0"},{"group":"dicyclic group of order 12","fractal_assignment":["../images/wht_red.png","../images/org_blu.png","../images/pnk_blu.png","../images/grn_red.png","../images/grn_prp.png","../images/red_prp.png","../images/blu_wht.png","../images/grn_blu.png","../images/gry_blk.png","../images/ylw_slt.png","../images/cyn_red.png","../images/ylw_pnk.png"],"mutagen_generator_assignment":[0,1],"goal":10,"start":8,"action_noise":0.15,"location_history":"[8,0,1,2,3,0,1,2,6,10]","action_history":"[1,0,0,0,1,0,0,0,1]","mutagen_history":"[1,0,0,0,1,0,0,0,1]","location_rts":"[3657,910,759,1022,847,664,1206,1070,1640]","trial_type":"fractal-mutation","trial_index":67,"time_elapsed":1707932,"internal_node_id":"0.0-5.0-28.0"},{"group":"dicyclic group of order 12","fractal_assignment":["../images/wht_red.png","../images/org_blu.png","../images/pnk_blu.png","../images/grn_red.png","../images/grn_prp.png","../images/red_prp.png","../images/blu_wht.png","../images/grn_blu.png","../images/gry_blk.png","../images/ylw_slt.png","../images/cyn_red.png","../images/ylw_pnk.png"],"mutagen_generator_assignment":[0,1],"goal":7,"start":10,"action_noise":0.15,"location_history":"[10,7]","action_history":"[0]","mutagen_history":"[0]","location_rts":"[1598]","trial_type":"fractal-mutation","trial_index":68,"time_elapsed":1714084,"internal_node_id":"0.0-5.0-29.0"},{"group":"dicyclic group of order 12","fractal_assignment":["../images/wht_red.png","../images/org_blu.png","../images/pnk_blu.png","../images/grn_red.png","../images/grn_prp.png","../images/red_prp.png","../images/blu_wht.png","../images/grn_blu.png","../images/gry_blk.png","../images/ylw_slt.png","../images/cyn_red.png","../images/ylw_pnk.png"],"mutagen_generator_assignment":[0,1],"goal":6,"start":7,"action_noise":0.15,"location_history":"[7,11,3,0,4,9,6]","action_history":"[1,0,0,0,1,0]","mutagen_history":"[1,0,0,0,1,0]","location_rts":"[1830,1164,655,1011,639,1069]","trial_type":"fractal-mutation","trial_index":69,"time_elapsed":1730302,"internal_node_id":"0.0-5.0-30.0"},{"group":"dicyclic group of order 12","fractal_assignment":["../images/wht_red.png","../images/org_blu.png","../images/pnk_blu.png","../images/grn_red.png","../images/grn_prp.png","../images/red_prp.png","../images/blu_wht.png","../images/grn_blu.png","../images/gry_blk.png","../images/ylw_slt.png","../images/cyn_red.png","../images/ylw_pnk.png"],"mutagen_generator_assignment":[0,1],"goal":0,"start":6,"action_noise":0.15,"location_history":"[6,10,2,3,7,8,5,10,7,8,0]","action_history":"[1,1,0,1,0,0,0,0,0,1]","mutagen_history":"[1,1,0,1,0,0,0,0,0,1]","location_rts":"[1668,875,795,3096,1527,607,672,567,701,737]","trial_type":"fractal-mutation","trial_index":70,"time_elapsed":1755639,"internal_node_id":"0.0-5.0-31.0"},{"group":"dicyclic group of order 12","fractal_assignment":["../images/wht_red.png","../images/org_blu.png","../images/pnk_blu.png","../images/grn_red.png","../images/grn_prp.png","../images/red_prp.png","../images/blu_wht.png","../images/grn_blu.png","../images/gry_blk.png","../images/ylw_slt.png","../images/cyn_red.png","../images/ylw_pnk.png"],"mutagen_generator_assignment":[0,1],"goal":11,"start":0,"action_noise":0.15,"location_history":"[0,4,9,6,11]","action_history":"[1,1,0,0]","mutagen_history":"[1,1,0,0]","location_rts":"[16837,708,475,839]","trial_type":"fractal-mutation","trial_index":71,"time_elapsed":1782242,"internal_node_id":"0.0-5.0-32.0"},{"group":"dicyclic group of order 12","fractal_assignment":["../images/wht_red.png","../images/org_blu.png","../images/pnk_blu.png","../images/grn_red.png","../images/grn_prp.png","../images/red_prp.png","../images/blu_wht.png","../images/grn_blu.png","../images/gry_blk.png","../images/ylw_slt.png","../images/cyn_red.png","../images/ylw_pnk.png"],"mutagen_generator_assignment":[0,1],"goal":9,"start":11,"action_noise":0.15,"location_history":"[11,3,0,4,9]","action_history":"[1,0,1,1]","mutagen_history":"[1,0,1,1]","location_rts":"[1698,693,920,920]","trial_type":"fractal-mutation","trial_index":72,"time_elapsed":1794243,"internal_node_id":"0.0-5.0-33.0"},{"group":"dicyclic group of order 12","fractal_assignment":["../images/wht_red.png","../images/org_blu.png","../images/pnk_blu.png","../images/grn_red.png","../images/grn_prp.png","../images/red_prp.png","../images/blu_wht.png","../images/grn_blu.png","../images/gry_blk.png","../images/ylw_slt.png","../images/cyn_red.png","../images/ylw_pnk.png"],"mutagen_generator_assignment":[0,1],"goal":5,"start":9,"action_noise":0.15,"location_history":"[9,6,11,3,0,4,9,6,11,3,7,8,5]","action_history":"[0,0,1,0,0,0,0,0,1,1,0,0]","mutagen_history":"[0,0,1,0,0,0,0,0,1,1,0,0]","location_rts":"[1732,836,809,649,1504,1025,912,994,920,710,517,597]","trial_type":"fractal-mutation","trial_index":73,"time_elapsed":1821598,"internal_node_id":"0.0-5.0-34.0"},{"view_history":"[{\"page_index\":0,\"viewing_time\":5227}]","rt":5228,"trial_type":"instructions","trial_index":74,"time_elapsed":1827826,"internal_node_id":"0.0-6.0"},{"rt":5185,"responses":"{\"Q0\":\"no\"}","trial_type":"survey-text","trial_index":75,"time_elapsed":1834013,"internal_node_id":"0.0-7.0"}]