[{"view_history":"[{\"page_index\":0,\"viewing_time\":2031},{\"page_index\":1,\"viewing_time\":111554}]","rt":113585,"trial_type":"instructions","trial_index":0,"time_elapsed":113586,"internal_node_id":"0.0-0.0"},{"view_history":"[{\"page_index\":0,\"viewing_time\":6155},{\"page_index\":1,\"viewing_time\":3173}]","rt":9329,"trial_type":"instructions","trial_index":1,"time_elapsed":123915,"internal_node_id":"0.0-1.0"},{"group":"dihedral group of order 12","room_assignment":["ivory","blue","red","yellow","pink","green","grey","cyan","orange","olive","purple","brown"],"door_color_assignment":["white","black"],"door_generator_assignment":[1,0],"goal":7,"start":11,"action_noise":0.15,"location_history":"[11,10,4,5,0,1,7]","action_history":"[0,0,0,0,0,1]","door_history":"[1,1,1,1,1,0]","location_rts":"[1069,1142,616,609,830,571]","trial_type":"two-door-navigation","trial_index":2,"time_elapsed":138405,"internal_node_id":"0.0-2.0-0.0"},{"group":"dihedral group of order 12","room_assignment":["ivory","blue","red","yellow","pink","green","grey","cyan","orange","olive","purple","brown"],"door_color_assignment":["white","black"],"door_generator_assignment":[1,0],"goal":8,"start":7,"action_noise":0.15,"location_history":"[7,6,11,5,0,1,2,3,9,8]","action_history":"[0,0,1,0,0,0,0,1,0]","door_history":"[1,1,0,1,1,1,1,0,1]","location_rts":"[2636,627,657,568,638,938,787,895,571]","trial_type":"two-door-navigation","trial_index":3,"time_elapsed":159448,"internal_node_id":"0.0-2.0-1.0"},{"group":"dihedral group of order 12","room_assignment":["ivory","blue","red","yellow","pink","green","grey","cyan","orange","olive","purple","brown"],"door_color_assignment":["white","black"],"door_generator_assignment":[1,0],"goal":4,"start":8,"action_noise":0.15,"location_history":"[8,7,6,0,1,2,8,7,1,2,8,7,6,11,5,0,6,0,1,2,3,9,3,4]","action_history":"[0,0,0,0,0,1,0,0,0,1,0,0,0,1,0,1,0,0,0,0,1,0,0]","door_history":"[1,1,1,1,1,0,1,1,1,0,1,1,1,0,1,0,1,1,1,1,0,1,1]","location_rts":"[968,806,1031,1122,950,1761,412,1409,841,898,282,691,847,797,398,1183,173,1016,4068,1952,997,490,587]","trial_type":"two-door-navigation","trial_index":4,"time_elapsed":210159,"internal_node_id":"0.0-2.0-2.0"},{"group":"dihedral group of order 12","room_assignment":["ivory","blue","red","yellow","pink","green","grey","cyan","orange","olive","purple","brown"],"door_color_assignment":["white","black"],"door_generator_assignment":[1,0],"goal":5,"start":4,"action_noise":0.15,"location_history":"[4,10,9,8,2,8,2,3,9,8,7,6,11,5]","action_history":"[1,0,0,0,0,1,0,1,0,1,0,0,1]","door_history":"[0,1,1,1,1,0,1,0,1,0,1,1,0]","location_rts":"[889,413,909,1174,970,590,456,750,427,837,484,697,644]","trial_type":"two-door-navigation","trial_index":5,"time_elapsed":236167,"internal_node_id":"0.0-2.0-3.0"},{"group":"dihedral group of order 12","room_assignment":["ivory","blue","red","yellow","pink","green","grey","cyan","orange","olive","purple","brown"],"door_color_assignment":["white","black"],"door_generator_assignment":[1,0],"goal":10,"start":5,"action_noise":0.15,"location_history":"[5,0,1,2,3,4,5,11,5,0,1,7,6,11,10]","action_history":"[0,0,0,0,0,1,1,1,0,0,0,0,0,0]","door_history":"[1,1,1,1,1,0,0,0,1,1,1,1,1,1]","location_rts":"[1042,532,602,582,469,747,1279,782,859,672,797,766,738,768]","trial_type":"two-door-navigation","trial_index":6,"time_elapsed":264675,"internal_node_id":"0.0-2.0-4.0"},{"group":"dihedral group of order 12","room_assignment":["ivory","blue","red","yellow","pink","green","grey","cyan","orange","olive","purple","brown"],"door_color_assignment":["white","black"],"door_generator_assignment":[1,0],"goal":1,"start":10,"action_noise":0.15,"location_history":"[10,4,5,0,1]","action_history":"[0,0,0,0]","door_history":"[1,1,1,1]","location_rts":"[1119,872,1023,878]","trial_type":"two-door-navigation","trial_index":7,"time_elapsed":276179,"internal_node_id":"0.0-2.0-5.0"},{"group":"dihedral group of order 12","room_assignment":["ivory","blue","red","yellow","pink","green","grey","cyan","orange","olive","purple","brown"],"door_color_assignment":["white","black"],"door_generator_assignment":[1,0],"goal":6,"start":1,"action_noise":0.15,"location_history":"[1,2,8,7,6]","action_history":"[0,0,0,0]","door_history":"[1,1,1,1]","location_rts":"[1928,652,672,2836]","trial_type":"two-door-navigation","trial_index":8,"time_elapsed":289859,"internal_node_id":"0.0-2.0-6.0"},{"group":"dihedral group of order 12","room_assignment":["ivory","blue","red","yellow","pink","green","grey","cyan","orange","olive","purple","brown"],"door_color_assignment":["white","black"],"door_generator_assignment":[1,0],"goal":9,"start":6,"action_noise":0.15,"location_history":"[6,11,10,9]","action_history":"[0,0,0]","door_history":"[1,1,1]","location_rts":"[3203,5146,3167]","trial_type":"two-door-navigation","trial_index":9,"time_elapsed":307949,"internal_node_id":"0.0-2.0-7.0"},{"group":"dihedral group of order 12","room_assignment":["ivory","blue","red","yellow","pink","green","grey","cyan","orange","olive","purple","brown"],"door_color_assignment":["white","black"],"door_generator_assignment":[1,0],"goal":2,"start":9,"action_noise":0.15,"location_history":"[9,8,2]","action_history":"[0,0]","door_history":"[1,1]","location_rts":"[1416,1956]","trial_type":"two-door-navigation","trial_index":10,"time_elapsed":316872,"internal_node_id":"0.0-2.0-8.0"},{"group":"dihedral group of order 12","room_assignment":["ivory","blue","red","yellow","pink","green","grey","cyan","orange","olive","purple","brown"],"door_color_assignment":["white","black"],"door_generator_assignment":[1,0],"goal":0,"start":2,"action_noise":0.15,"location_history":"[2,8,7,6,11,5,0]","action_history":"[1,0,0,0,1,0]","door_history":"[0,1,1,1,0,1]","location_rts":"[1842,1083,907,1132,1720,947]","trial_type":"two-door-navigation","trial_index":11,"time_elapsed":334132,"internal_node_id":"0.0-2.0-9.0"},{"group":"dihedral group of order 12","room_assignment":["ivory","blue","red","yellow","pink","green","grey","cyan","orange","olive","purple","brown"],"door_color_assignment":["white","black"],"door_generator_assignment":[1,0],"goal":3,"start":0,"action_noise":0.15,"location_history":"[0,1,7,6,11,10,9,3]","action_history":"[0,1,0,0,0,0,1]","door_history":"[1,0,1,1,1,1,0]","location_rts":"[1465,1464,894,1101,1334,1264,4434]","trial_type":"two-door-navigation","trial_index":12,"time_elapsed":356746,"internal_node_id":"0.0-2.0-10.0"},{"group":"dihedral group of order 12","room_assignment":["ivory","blue","red","yellow","pink","green","grey","cyan","orange","olive","purple","brown"],"door_color_assignment":["white","black"],"door_generator_assignment":[1,0],"goal":10,"start":3,"action_noise":0.15,"location_history":"[3,4,5,0,1,2,3,4,5,11,10]","action_history":"[0,0,0,0,0,0,0,1,1,0]","door_history":"[1,1,1,1,1,1,1,0,0,1]","location_rts":"[5194,916,904,1943,1911,2146,1411,3174,1530,786]","trial_type":"two-door-navigation","trial_index":13,"time_elapsed":390392,"internal_node_id":"0.0-2.0-11.0"},{"group":"dihedral group of order 12","room_assignment":["ivory","blue","red","yellow","pink","green","grey","cyan","orange","olive","purple","brown"],"door_color_assignment":["white","black"],"door_generator_assignment":[1,0],"goal":8,"start":10,"action_noise":0.15,"location_history":"[10,9,8]","action_history":"[0,0]","door_history":"[1,1]","location_rts":"[2407,865]","trial_type":"two-door-navigation","trial_index":14,"time_elapsed":399214,"internal_node_id":"0.0-2.0-12.0"},{"group":"dihedral group of order 12","room_assignment":["ivory","blue","red","yellow","pink","green","grey","cyan","orange","olive","purple","brown"],"door_color_assignment":["white","black"],"door_generator_assignment":[1,0],"goal":4,"start":8,"action_noise":0.15,"location_history":"[8,7,1,2,3,4]","action_history":"[0,0,0,0,0]","door_history":"[1,1,1,1,1]","location_rts":"[1499,754,752,787,1315]","trial_type":"two-door-navigation","trial_index":15,"time_elapsed":412933,"internal_node_id":"0.0-2.0-13.0"},{"group":"dihedral group of order 12","room_assignment":["ivory","blue","red","yellow","pink","green","grey","cyan","orange","olive","purple","brown"],"door_color_assignment":["white","black"],"door_generator_assignment":[1,0],"goal":0,"start":4,"action_noise":0.15,"location_history":"[4,5,0]","action_history":"[0,0]","door_history":"[1,1]","location_rts":"[1710,1531]","trial_type":"two-door-navigation","trial_index":16,"time_elapsed":421725,"internal_node_id":"0.0-2.0-14.0"},{"group":"dihedral group of order 12","room_assignment":["ivory","blue","red","yellow","pink","green","grey","cyan","orange","olive","purple","brown"],"door_color_assignment":["white","black"],"door_generator_assignment":[1,0],"goal":11,"start":0,"action_noise":0.15,"location_history":"[0,1,2,3,9,8,7,6,11]","action_history":"[0,0,0,1,0,1,0,0]","door_history":"[1,1,1,0,1,0,1,1]","location_rts":"[1343,900,1343,1711,782,882,735,885]","trial_type":"two-door-navigation","trial_index":17,"time_elapsed":441966,"internal_node_id":"0.0-2.0-15.0"},{"group":"dihedral group of order 12","room_assignment":["ivory","blue","red","yellow","pink","green","grey","cyan","orange","olive","purple","brown"],"door_color_assignment":["white","black"],"door_generator_assignment":[1,0],"goal":2,"start":11,"action_noise":0.15,"location_history":"[11,10,9,8,2]","action_history":"[0,0,0,1]","door_history":"[1,1,1,0]","location_rts":"[1614,975,2484,721]","trial_type":"two-door-navigation","trial_index":18,"time_elapsed":455357,"internal_node_id":"0.0-2.0-16.0"},{"group":"dihedral group of order 12","room_assignment":["ivory","blue","red","yellow","pink","green","grey","cyan","orange","olive","purple","brown"],"door_color_assignment":["white","black"],"door_generator_assignment":[1,0],"goal":7,"start":2,"action_noise":0.15,"location_history":"[2,3,4,5,0,1,7]","action_history":"[0,0,0,0,0,1]","door_history":"[1,1,1,1,1,0]","location_rts":"[1781,802,798,799,741,3749]","trial_type":"two-door-navigation","trial_index":19,"time_elapsed":473658,"internal_node_id":"0.0-2.0-17.0"},{"group":"dihedral group of order 12","room_assignment":["ivory","blue","red","yellow","pink","green","grey","cyan","orange","olive","purple","brown"],"door_color_assignment":["white","black"],"door_generator_assignment":[1,0],"goal":5,"start":7,"action_noise":0.15,"location_history":"[7,1,7,6,11,5]","action_history":"[0,0,0,0,1]","door_history":"[1,1,1,1,0]","location_rts":"[1248,4164,794,830,1560]","trial_type":"two-door-navigation","trial_index":20,"time_elapsed":490874,"internal_node_id":"0.0-2.0-18.0"},{"group":"dihedral group of order 12","room_assignment":["ivory","blue","red","yellow","pink","green","grey","cyan","orange","olive","purple","brown"],"door_color_assignment":["white","black"],"door_generator_assignment":[1,0],"goal":6,"start":5,"action_noise":0.15,"location_history":"[5,0,1,7,6]","action_history":"[0,1,1,0]","door_history":"[1,0,0,1]","location_rts":"[612,857,1370,610]","trial_type":"two-door-navigation","trial_index":21,"time_elapsed":501917,"internal_node_id":"0.0-2.0-19.0"},{"group":"dihedral group of order 12","room_assignment":["ivory","blue","red","yellow","pink","green","grey","cyan","orange","olive","purple","brown"],"door_color_assignment":["white","black"],"door_generator_assignment":[1,0],"goal":3,"start":6,"action_noise":0.15,"location_history":"[6,11,10,9,8,2,3]","action_history":"[0,0,0,0,1,0]","door_history":"[1,1,1,1,0,1]","location_rts":"[1962,3991,2837,937,2110,3667]","trial_type":"two-door-navigation","trial_index":22,"time_elapsed":527047,"internal_node_id":"0.0-2.0-20.0"},{"group":"dihedral group of order 12","room_assignment":["ivory","blue","red","yellow","pink","green","grey","cyan","orange","olive","purple","brown"],"door_color_assignment":["white","black"],"door_generator_assignment":[1,0],"goal":1,"start":3,"action_noise":0.15,"location_history":"[3,4,5,0,6,11,5,0,1]","action_history":"[0,0,0,0,0,0,0,0]","door_history":"[1,1,1,1,1,1,1,1]","location_rts":"[1628,1526,11264,14198,758,894,924,1444]","trial_type":"two-door-navigation","trial_index":23,"time_elapsed":571376,"internal_node_id":"0.0-2.0-21.0"},{"group":"dihedral group of order 12","room_assignment":["ivory","blue","red","yellow","pink","green","grey","cyan","orange","olive","purple","brown"],"door_color_assignment":["white","black"],"door_generator_assignment":[1,0],"goal":9,"start":1,"action_noise":0.15,"location_history":"[1,2,8,2,3,9]","action_history":"[0,1,0,0,1]","door_history":"[1,0,1,1,0]","location_rts":"[3630,15974,1025,1329,1525]","trial_type":"two-door-navigation","trial_index":24,"time_elapsed":603529,"internal_node_id":"0.0-2.0-22.0"},{"group":"dihedral group of order 12","room_assignment":["ivory","blue","red","yellow","pink","green","grey","cyan","orange","olive","purple","brown"],"door_color_assignment":["white","black"],"door_generator_assignment":[1,0],"goal":3,"start":9,"action_noise":0.15,"location_history":"[9,8,7,6,11,5,0,1,7,6,11,10,9,3]","action_history":"[0,0,0,0,1,0,0,1,0,0,0,0,1]","door_history":"[1,1,1,1,0,1,1,0,1,1,1,1,0]","location_rts":"[1456,2653,998,1449,6613,2039,798,3612,683,980,1226,992,879]","trial_type":"two-door-navigation","trial_index":25,"time_elapsed":644695,"internal_node_id":"0.0-2.0-23.0"},{"group":"dihedral group of order 12","room_assignment":["ivory","blue","red","yellow","pink","green","grey","cyan","orange","olive","purple","brown"],"door_color_assignment":["white","black"],"door_generator_assignment":[1,0],"goal":4,"start":3,"action_noise":0.15,"location_history":"[3,9,8,7,6,0,1,7,6,11,10,4]","action_history":"[0,0,0,0,1,0,1,0,0,0,1]","door_history":"[1,1,1,1,0,1,0,1,1,1,0]","location_rts":"[1133,721,777,552,513,498,547,405,515,1181,2678]","trial_type":"two-door-navigation","trial_index":26,"time_elapsed":668970,"internal_node_id":"0.0-2.0-24.0"},{"group":"dihedral group of order 12","room_assignment":["ivory","blue","red","yellow","pink","green","grey","cyan","orange","olive","purple","brown"],"door_color_assignment":["white","black"],"door_generator_assignment":[1,0],"goal":2,"start":4,"action_noise":0.15,"location_history":"[4,5,0,1,7,6,11,5,0,1,2]","action_history":"[0,0,0,0,0,0,1,0,0,0]","door_history":"[1,1,1,1,1,1,0,1,1,1]","location_rts":"[1180,607,844,1508,720,883,10844,1608,815,580]","trial_type":"two-door-navigation","trial_index":27,"time_elapsed":702279,"internal_node_id":"0.0-2.0-25.0"},{"group":"dihedral group of order 12","room_assignment":["ivory","blue","red","yellow","pink","green","grey","cyan","orange","olive","purple","brown"],"door_color_assignment":["white","black"],"door_generator_assignment":[1,0],"goal":1,"start":2,"action_noise":0.15,"location_history":"[2,3,4,5,11,10,9,8,2,3,4,5,11,10,9,8,7,1]","action_history":"[0,0,0,0,0,0,0,1,0,0,0,1,0,1,0,0,1]","door_history":"[1,1,1,1,1,1,1,0,1,1,1,0,1,0,1,1,0]","location_rts":"[1537,915,1737,946,1079,850,1648,771,488,682,1174,1234,666,1032,759,633,1894]","trial_type":"two-door-navigation","trial_index":28,"time_elapsed":741192,"internal_node_id":"0.0-2.0-26.0"},{"group":"dihedral group of order 12","room_assignment":["ivory","blue","red","yellow","pink","green","grey","cyan","orange","olive","purple","brown"],"door_color_assignment":["white","black"],"door_generator_assignment":[1,0],"goal":8,"start":1,"action_noise":0.15,"location_history":"[1,2,8]","action_history":"[0,1]","door_history":"[1,0]","location_rts":"[2044,1126]","trial_type":"two-door-navigation","trial_index":29,"time_elapsed":749907,"internal_node_id":"0.0-2.0-27.0"},{"group":"dihedral group of order 12","room_assignment":["ivory","blue","red","yellow","pink","green","grey","cyan","orange","olive","purple","brown"],"door_color_assignment":["white","black"],"door_generator_assignment":[1,0],"goal":10,"start":8,"action_noise":0.15,"location_history":"[8,2,3,4,5,0,1,2,8,7,6,11,10]","action_history":"[0,0,0,0,0,0,0,0,0,0,0,0]","door_history":"[1,1,1,1,1,1,1,1,1,1,1,1]","location_rts":"[1042,625,832,785,823,648,2863,805,473,766,805,516]","trial_type":"two-door-navigation","trial_index":30,"time_elapsed":776675,"internal_node_id":"0.0-2.0-28.0"},{"group":"dihedral group of order 12","room_assignment":["ivory","blue","red","yellow","pink","green","grey","cyan","orange","olive","purple","brown"],"door_color_assignment":["white","black"],"door_generator_assignment":[1,0],"goal":7,"start":10,"action_noise":0.15,"location_history":"[10,9,8,7]","action_history":"[0,0,0]","door_history":"[1,1,1]","location_rts":"[2133,558,2284]","trial_type":"two-door-navigation","trial_index":31,"time_elapsed":788220,"internal_node_id":"0.0-2.0-29.0"},{"group":"dihedral group of order 12","room_assignment":["ivory","blue","red","yellow","pink","green","grey","cyan","orange","olive","purple","brown"],"door_color_assignment":["white","black"],"door_generator_assignment":[1,0],"goal":6,"start":7,"action_noise":0.15,"location_history":"[7,6]","action_history":"[0]","door_history":"[1]","location_rts":"[3876]","trial_type":"two-door-navigation","trial_index":32,"time_elapsed":796625,"internal_node_id":"0.0-2.0-30.0"},{"group":"dihedral group of order 12","room_assignment":["ivory","blue","red","yellow","pink","green","grey","cyan","orange","olive","purple","brown"],"door_color_assignment":["white","black"],"door_generator_assignment":[1,0],"goal":0,"start":6,"action_noise":0.15,"location_history":"[6,11,10,9,8,7,6,0]","action_history":"[0,0,0,0,0,0,1]","door_history":"[1,1,1,1,1,1,0]","location_rts":"[5457,532,156,629,569,574,707]","trial_type":"two-door-navigation","trial_index":33,"time_elapsed":815903,"internal_node_id":"0.0-2.0-31.0"},{"group":"dihedral group of order 12","room_assignment":["ivory","blue","red","yellow","pink","green","grey","cyan","orange","olive","purple","brown"],"door_color_assignment":["white","black"],"door_generator_assignment":[1,0],"goal":11,"start":0,"action_noise":0.15,"location_history":"[0,1,2,3,4,5,11]","action_history":"[0,0,0,1,0,1]","door_history":"[1,1,1,0,1,0]","location_rts":"[9901,1465,2898,1307,1100,604]","trial_type":"two-door-navigation","trial_index":34,"time_elapsed":842821,"internal_node_id":"0.0-2.0-32.0"},{"group":"dihedral group of order 12","room_assignment":["ivory","blue","red","yellow","pink","green","grey","cyan","orange","olive","purple","brown"],"door_color_assignment":["white","black"],"door_generator_assignment":[1,0],"goal":9,"start":11,"action_noise":0.15,"location_history":"[11,10,9]","action_history":"[0,0]","door_history":"[1,1]","location_rts":"[1865,1559]","trial_type":"two-door-navigation","trial_index":35,"time_elapsed":851798,"internal_node_id":"0.0-2.0-33.0"},{"group":"dihedral group of order 12","room_assignment":["ivory","blue","red","yellow","pink","green","grey","cyan","orange","olive","purple","brown"],"door_color_assignment":["white","black"],"door_generator_assignment":[1,0],"goal":5,"start":9,"action_noise":0.15,"location_history":"[9,3,4,5]","action_history":"[0,0,0]","door_history":"[1,1,1]","location_rts":"[486,2099,711]","trial_type":"two-door-navigation","trial_index":36,"time_elapsed":861666,"internal_node_id":"0.0-2.0-34.0"},{"view_history":"[{\"page_index\":0,\"viewing_time\":2758}]","rt":2758,"trial_type":"instructions","trial_index":37,"time_elapsed":865424,"internal_node_id":"0.0-3.0"},{"view_history":"[{\"page_index\":0,\"viewing_time\":2421},{\"page_index\":1,\"viewing_time\":1136}]","rt":3557,"trial_type":"instructions","trial_index":38,"time_elapsed":869982,"internal_node_id":"0.0-4.0"},{"group":"dicyclic group of order 12","fractal_assignment":["../images/gry_blk.png","../images/pnk_blu.png","../images/red_prp.png","../images/cyn_red.png","../images/blu_wht.png","../images/org_blu.png","../images/wht_red.png","../images/grn_red.png","../images/grn_prp.png","../images/grn_blu.png","../images/ylw_slt.png","../images/ylw_pnk.png"],"mutagen_generator_assignment":[0,1],"goal":7,"start":11,"action_noise":0.15,"location_history":"[11,4,9,1,2,3,7]","action_history":"[1,0,0,0,0,1]","mutagen_history":"[1,0,0,0,0,1]","location_rts":"[4968,683,708,78105,1856,2417]","trial_type":"fractal-mutation","trial_index":39,"time_elapsed":968829,"internal_node_id":"0.0-5.0-0.0"},{"group":"dicyclic group of order 12","fractal_assignment":["../images/gry_blk.png","../images/pnk_blu.png","../images/red_prp.png","../images/cyn_red.png","../images/blu_wht.png","../images/org_blu.png","../images/wht_red.png","../images/grn_red.png","../images/grn_prp.png","../images/grn_blu.png","../images/ylw_slt.png","../images/ylw_pnk.png"],"mutagen_generator_assignment":[0,1],"goal":8,"start":7,"action_noise":0.15,"location_history":"[7,8]","action_history":"[0]","mutagen_history":"[0]","location_rts":"[5451]","trial_type":"fractal-mutation","trial_index":40,"time_elapsed":978815,"internal_node_id":"0.0-5.0-1.0"},{"group":"dicyclic group of order 12","fractal_assignment":["../images/gry_blk.png","../images/pnk_blu.png","../images/red_prp.png","../images/cyn_red.png","../images/blu_wht.png","../images/org_blu.png","../images/wht_red.png","../images/grn_red.png","../images/grn_prp.png","../images/grn_blu.png","../images/ylw_slt.png","../images/ylw_pnk.png"],"mutagen_generator_assignment":[0,1],"goal":4,"start":8,"action_noise":0.15,"location_history":"[8,5,9,6,11,3,0,4]","action_history":"[1,1,0,0,1,0,1]","mutagen_history":"[1,1,0,0,1,0,1]","location_rts":"[2882,309,15188,542,180,827,349]","trial_type":"fractal-mutation","trial_index":41,"time_elapsed":1010380,"internal_node_id":"0.0-5.0-2.0"},{"group":"dicyclic group of order 12","fractal_assignment":["../images/gry_blk.png","../images/pnk_blu.png","../images/red_prp.png","../images/cyn_red.png","../images/blu_wht.png","../images/org_blu.png","../images/wht_red.png","../images/grn_red.png","../images/grn_prp.png","../images/grn_blu.png","../images/ylw_slt.png","../images/ylw_pnk.png"],"mutagen_generator_assignment":[0,1],"goal":5,"start":4,"action_noise":0.15,"location_history":"[4,9,1,2,6,10,7,8,0,1,2,3,0,1,5]","action_history":"[1,0,0,0,1,0,0,1,0,0,0,0,0,1]","mutagen_history":"[1,0,0,0,1,0,0,1,0,0,0,0,0,1]","location_rts":"[1213,1796,351,869,1536,257,599,1723,533,918,1380,1695,2669,5428]","trial_type":"fractal-mutation","trial_index":42,"time_elapsed":1050225,"internal_node_id":"0.0-5.0-3.0"},{"group":"dicyclic group of order 12","fractal_assignment":["../images/gry_blk.png","../images/pnk_blu.png","../images/red_prp.png","../images/cyn_red.png","../images/blu_wht.png","../images/org_blu.png","../images/wht_red.png","../images/grn_red.png","../images/grn_prp.png","../images/grn_blu.png","../images/ylw_slt.png","../images/ylw_pnk.png"],"mutagen_generator_assignment":[0,1],"goal":10,"start":5,"action_noise":0.15,"location_history":"[5,9,1,5,10]","action_history":"[1,0,1,0]","mutagen_history":"[1,0,1,0]","location_rts":"[4081,661,335,4630]","trial_type":"fractal-mutation","trial_index":43,"time_elapsed":1067845,"internal_node_id":"0.0-5.0-4.0"},{"group":"dicyclic group of order 12","fractal_assignment":["../images/gry_blk.png","../images/pnk_blu.png","../images/red_prp.png","../images/cyn_red.png","../images/blu_wht.png","../images/org_blu.png","../images/wht_red.png","../images/grn_red.png","../images/grn_prp.png","../images/grn_blu.png","../images/ylw_slt.png","../images/ylw_pnk.png"],"mutagen_generator_assignment":[0,1],"goal":1,"start":10,"action_noise":0.15,"location_history":"[10,2,3,0,1]","action_history":"[1,0,0,0]","mutagen_history":"[1,0,0,0]","location_rts":"[967,576,958,2029]","trial_type":"fractal-mutation","trial_index":44,"time_elapsed":1080253,"internal_node_id":"0.0-5.0-5.0"},{"group":"dicyclic group of order 12","fractal_assignment":["../images/gry_blk.png","../images/pnk_blu.png","../images/red_prp.png","../images/cyn_red.png","../images/blu_wht.png","../images/org_blu.png","../images/wht_red.png","../images/grn_red.png","../images/grn_prp.png","../images/grn_blu.png","../images/ylw_slt.png","../images/ylw_pnk.png"],"mutagen_generator_assignment":[0,1],"goal":6,"start":1,"action_noise":0.15,"location_history":"[1,5,9,6]","action_history":"[1,1,1]","mutagen_history":"[1,1,1]","location_rts":"[1226,1184,1083]","trial_type":"fractal-mutation","trial_index":45,"time_elapsed":1090667,"internal_node_id":"0.0-5.0-6.0"},{"group":"dicyclic group of order 12","fractal_assignment":["../images/gry_blk.png","../images/pnk_blu.png","../images/red_prp.png","../images/cyn_red.png","../images/blu_wht.png","../images/org_blu.png","../images/wht_red.png","../images/grn_red.png","../images/grn_prp.png","../images/grn_blu.png","../images/ylw_slt.png","../images/ylw_pnk.png"],"mutagen_generator_assignment":[0,1],"goal":9,"start":6,"action_noise":0.15,"location_history":"[6,10,7,11,4,9]","action_history":"[0,0,1,0,0]","mutagen_history":"[0,0,1,0,0]","location_rts":"[5045,616,5442,660,498]","trial_type":"fractal-mutation","trial_index":46,"time_elapsed":1111819,"internal_node_id":"0.0-5.0-7.0"},{"group":"dicyclic group of order 12","fractal_assignment":["../images/gry_blk.png","../images/pnk_blu.png","../images/red_prp.png","../images/cyn_red.png","../images/blu_wht.png","../images/org_blu.png","../images/wht_red.png","../images/grn_red.png","../images/grn_prp.png","../images/grn_blu.png","../images/ylw_slt.png","../images/ylw_pnk.png"],"mutagen_generator_assignment":[0,1],"goal":2,"start":9,"action_noise":0.15,"location_history":"[9,1,2]","action_history":"[1,1]","mutagen_history":"[1,1]","location_rts":"[6729,584]","trial_type":"fractal-mutation","trial_index":47,"time_elapsed":1124897,"internal_node_id":"0.0-5.0-8.0"},{"group":"dicyclic group of order 12","fractal_assignment":["../images/gry_blk.png","../images/pnk_blu.png","../images/red_prp.png","../images/cyn_red.png","../images/blu_wht.png","../images/org_blu.png","../images/wht_red.png","../images/grn_red.png","../images/grn_prp.png","../images/grn_blu.png","../images/ylw_slt.png","../images/ylw_pnk.png"],"mutagen_generator_assignment":[0,1],"goal":0,"start":2,"action_noise":0.15,"location_history":"[2,3,0]","action_history":"[0,0]","mutagen_history":"[0,0]","location_rts":"[901,2355]","trial_type":"fractal-mutation","trial_index":48,"time_elapsed":1133716,"internal_node_id":"0.0-5.0-9.0"},{"group":"dicyclic group of order 12","fractal_assignment":["../images/gry_blk.png","../images/pnk_blu.png","../images/red_prp.png","../images/cyn_red.png","../images/blu_wht.png","../images/org_blu.png","../images/wht_red.png","../images/grn_red.png","../images/grn_prp.png","../images/grn_blu.png","../images/ylw_slt.png","../images/ylw_pnk.png"],"mutagen_generator_assignment":[0,1],"goal":3,"start":0,"action_noise":0.15,"location_history":"[0,4,8,5,9,1,5,10,2,6,11,4,9,6,11,4,8,0,4,9,1,5,9,1,5,10,7,8,5,9,1,5,10,7,8,5,9,6,10,7,11,3]","action_history":"[1,1,0,1,1,1,0,1,1,1,0,0,0,0,0,1,1,1,0,1,0,1,1,1,0,0,0,0,1,1,1,0,0,0,0,1,1,0,0,1,1]","mutagen_history":"[1,1,0,1,1,1,0,1,1,1,0,0,0,0,0,1,1,1,0,1,0,1,1,1,0,0,0,0,1,1,1,0,0,0,0,1,1,0,0,1,1]","location_rts":"[1527,1071,4562,2703,1874,1569,2042,1537,1253,753,706,975,1071,777,597,765,536,370,1305,85,304,111,647,580,1176,480,7027,640,4260,506,1517,602,967,2247,465,373,266,735,678,2357,810]","trial_type":"fractal-mutation","trial_index":49,"time_elapsed":1235511,"internal_node_id":"0.0-5.0-10.0"},{"group":"dicyclic group of order 12","fractal_assignment":["../images/gry_blk.png","../images/pnk_blu.png","../images/red_prp.png","../images/cyn_red.png","../images/blu_wht.png","../images/org_blu.png","../images/wht_red.png","../images/grn_red.png","../images/grn_prp.png","../images/grn_blu.png","../images/ylw_slt.png","../images/ylw_pnk.png"],"mutagen_generator_assignment":[0,1],"goal":10,"start":3,"action_noise":0.15,"location_history":"[3,0,1,2,6,10]","action_history":"[0,0,0,1,1]","mutagen_history":"[0,0,0,1,1]","location_rts":"[1006,525,777,672,619]","trial_type":"fractal-mutation","trial_index":50,"time_elapsed":1247953,"internal_node_id":"0.0-5.0-11.0"},{"group":"dicyclic group of order 12","fractal_assignment":["../images/gry_blk.png","../images/pnk_blu.png","../images/red_prp.png","../images/cyn_red.png","../images/blu_wht.png","../images/org_blu.png","../images/wht_red.png","../images/grn_red.png","../images/grn_prp.png","../images/grn_blu.png","../images/ylw_slt.png","../images/ylw_pnk.png"],"mutagen_generator_assignment":[0,1],"goal":8,"start":10,"action_noise":0.15,"location_history":"[10,7,8]","action_history":"[0,0]","mutagen_history":"[0,0]","location_rts":"[5880,702]","trial_type":"fractal-mutation","trial_index":51,"time_elapsed":1260110,"internal_node_id":"0.0-5.0-12.0"},{"group":"dicyclic group of order 12","fractal_assignment":["../images/gry_blk.png","../images/pnk_blu.png","../images/red_prp.png","../images/cyn_red.png","../images/blu_wht.png","../images/org_blu.png","../images/wht_red.png","../images/grn_red.png","../images/grn_prp.png","../images/grn_blu.png","../images/ylw_slt.png","../images/ylw_pnk.png"],"mutagen_generator_assignment":[0,1],"goal":4,"start":8,"action_noise":0.15,"location_history":"[8,0,4]","action_history":"[1,1]","mutagen_history":"[1,1]","location_rts":"[3251,891]","trial_type":"fractal-mutation","trial_index":52,"time_elapsed":1270008,"internal_node_id":"0.0-5.0-13.0"},{"group":"dicyclic group of order 12","fractal_assignment":["../images/gry_blk.png","../images/pnk_blu.png","../images/red_prp.png","../images/cyn_red.png","../images/blu_wht.png","../images/org_blu.png","../images/wht_red.png","../images/grn_red.png","../images/grn_prp.png","../images/grn_blu.png","../images/ylw_slt.png","../images/ylw_pnk.png"],"mutagen_generator_assignment":[0,1],"goal":0,"start":4,"action_noise":0.15,"location_history":"[4,9,6,11,4,8,0]","action_history":"[0,0,0,0,1,1]","mutagen_history":"[0,0,0,0,1,1]","location_rts":"[1833,520,687,608,595,525]","trial_type":"fractal-mutation","trial_index":53,"time_elapsed":1284644,"internal_node_id":"0.0-5.0-14.0"},{"group":"dicyclic group of order 12","fractal_assignment":["../images/gry_blk.png","../images/pnk_blu.png","../images/red_prp.png","../images/cyn_red.png","../images/blu_wht.png","../images/org_blu.png","../images/wht_red.png","../images/grn_red.png","../images/grn_prp.png","../images/grn_blu.png","../images/ylw_slt.png","../images/ylw_pnk.png"],"mutagen_generator_assignment":[0,1],"goal":11,"start":0,"action_noise":0.15,"location_history":"[0,1,5,9,1,5,10,2,3,7,11]","action_history":"[0,1,1,1,1,0,0,0,1,1]","mutagen_history":"[0,1,1,1,1,0,0,0,1,1]","location_rts":"[1268,156,2240,2665,512,873,486,1351,1009,979]","trial_type":"fractal-mutation","trial_index":54,"time_elapsed":1310750,"internal_node_id":"0.0-5.0-15.0"},{"group":"dicyclic group of order 12","fractal_assignment":["../images/gry_blk.png","../images/pnk_blu.png","../images/red_prp.png","../images/cyn_red.png","../images/blu_wht.png","../images/org_blu.png","../images/wht_red.png","../images/grn_red.png","../images/grn_prp.png","../images/grn_blu.png","../images/ylw_slt.png","../images/ylw_pnk.png"],"mutagen_generator_assignment":[0,1],"goal":2,"start":11,"action_noise":0.15,"location_history":"[11,4,9,6,10,2]","action_history":"[0,0,0,1,1]","mutagen_history":"[0,0,0,1,1]","location_rts":"[943,472,937,222,194]","trial_type":"fractal-mutation","trial_index":55,"time_elapsed":1322361,"internal_node_id":"0.0-5.0-16.0"},{"group":"dicyclic group of order 12","fractal_assignment":["../images/gry_blk.png","../images/pnk_blu.png","../images/red_prp.png","../images/cyn_red.png","../images/blu_wht.png","../images/org_blu.png","../images/wht_red.png","../images/grn_red.png","../images/grn_prp.png","../images/grn_blu.png","../images/ylw_slt.png","../images/ylw_pnk.png"],"mutagen_generator_assignment":[0,1],"goal":7,"start":2,"action_noise":0.15,"location_history":"[2,6,11,4,9,6,10,7]","action_history":"[0,0,0,0,1,1,0]","mutagen_history":"[0,0,0,0,1,1,0]","location_rts":"[1491,864,533,518,741,374,1265]","trial_type":"fractal-mutation","trial_index":56,"time_elapsed":1339111,"internal_node_id":"0.0-5.0-17.0"},{"group":"dicyclic group of order 12","fractal_assignment":["../images/gry_blk.png","../images/pnk_blu.png","../images/red_prp.png","../images/cyn_red.png","../images/blu_wht.png","../images/org_blu.png","../images/wht_red.png","../images/grn_red.png","../images/grn_prp.png","../images/grn_blu.png","../images/ylw_slt.png","../images/ylw_pnk.png"],"mutagen_generator_assignment":[0,1],"goal":5,"start":7,"action_noise":0.15,"location_history":"[7,8,0,4,9,1,2,3,0,4,8,5]","action_history":"[0,1,1,0,0,0,1,0,1,1,0]","mutagen_history":"[0,1,1,0,0,0,1,0,1,1,0]","location_rts":"[1470,690,699,912,414,490,1331,7819,2406,506,841]","trial_type":"fractal-mutation","trial_index":57,"time_elapsed":1372287,"internal_node_id":"0.0-5.0-18.0"},{"group":"dicyclic group of order 12","fractal_assignment":["../images/gry_blk.png","../images/pnk_blu.png","../images/red_prp.png","../images/cyn_red.png","../images/blu_wht.png","../images/org_blu.png","../images/wht_red.png","../images/grn_red.png","../images/grn_prp.png","../images/grn_blu.png","../images/ylw_slt.png","../images/ylw_pnk.png"],"mutagen_generator_assignment":[0,1],"goal":6,"start":5,"action_noise":0.15,"location_history":"[5,9,1,2,3,0,4,9,6]","action_history":"[1,1,0,1,0,0,0,0]","mutagen_history":"[1,1,0,1,0,0,0,0]","location_rts":"[6458,555,1283,603,152,658,1367,439]","trial_type":"fractal-mutation","trial_index":58,"time_elapsed":1396120,"internal_node_id":"0.0-5.0-19.0"},{"group":"dicyclic group of order 12","fractal_assignment":["../images/gry_blk.png","../images/pnk_blu.png","../images/red_prp.png","../images/cyn_red.png","../images/blu_wht.png","../images/org_blu.png","../images/wht_red.png","../images/grn_red.png","../images/grn_prp.png","../images/grn_blu.png","../images/ylw_slt.png","../images/ylw_pnk.png"],"mutagen_generator_assignment":[0,1],"goal":3,"start":6,"action_noise":0.15,"location_history":"[6,10,2,6,11,3]","action_history":"[1,1,1,0,1]","mutagen_history":"[1,1,1,0,1]","location_rts":"[766,720,3766,1879,754]","trial_type":"fractal-mutation","trial_index":59,"time_elapsed":1413106,"internal_node_id":"0.0-5.0-20.0"},{"group":"dicyclic group of order 12","fractal_assignment":["../images/gry_blk.png","../images/pnk_blu.png","../images/red_prp.png","../images/cyn_red.png","../images/blu_wht.png","../images/org_blu.png","../images/wht_red.png","../images/grn_red.png","../images/grn_prp.png","../images/grn_blu.png","../images/ylw_slt.png","../images/ylw_pnk.png"],"mutagen_generator_assignment":[0,1],"goal":1,"start":3,"action_noise":0.15,"location_history":"[3,0,1]","action_history":"[0,0]","mutagen_history":"[0,0]","location_rts":"[1247,467]","trial_type":"fractal-mutation","trial_index":60,"time_elapsed":1420380,"internal_node_id":"0.0-5.0-21.0"},{"group":"dicyclic group of order 12","fractal_assignment":["../images/gry_blk.png","../images/pnk_blu.png","../images/red_prp.png","../images/cyn_red.png","../images/blu_wht.png","../images/org_blu.png","../images/wht_red.png","../images/grn_red.png","../images/grn_prp.png","../images/grn_blu.png","../images/ylw_slt.png","../images/ylw_pnk.png"],"mutagen_generator_assignment":[0,1],"goal":9,"start":1,"action_noise":0.15,"location_history":"[1,5,9]","action_history":"[1,1]","mutagen_history":"[1,1]","location_rts":"[898,4622]","trial_type":"fractal-mutation","trial_index":61,"time_elapsed":1431661,"internal_node_id":"0.0-5.0-22.0"},{"group":"dicyclic group of order 12","fractal_assignment":["../images/gry_blk.png","../images/pnk_blu.png","../images/red_prp.png","../images/cyn_red.png","../images/blu_wht.png","../images/org_blu.png","../images/wht_red.png","../images/grn_red.png","../images/grn_prp.png","../images/grn_blu.png","../images/ylw_slt.png","../images/ylw_pnk.png"],"mutagen_generator_assignment":[0,1],"goal":3,"start":9,"action_noise":0.15,"location_history":"[9,1,5,9,1,2,3]","action_history":"[0,1,1,1,0,0]","mutagen_history":"[0,1,1,1,0,0]","location_rts":"[895,458,92,903,355,2635]","trial_type":"fractal-mutation","trial_index":62,"time_elapsed":1447139,"internal_node_id":"0.0-5.0-23.0"},{"group":"dicyclic group of order 12","fractal_assignment":["../images/gry_blk.png","../images/pnk_blu.png","../images/red_prp.png","../images/cyn_red.png","../images/blu_wht.png","../images/org_blu.png","../images/wht_red.png","../images/grn_red.png","../images/grn_prp.png","../images/grn_blu.png","../images/ylw_slt.png","../images/ylw_pnk.png"],"mutagen_generator_assignment":[0,1],"goal":4,"start":3,"action_noise":0.15,"location_history":"[3,0,1,2,3,7,11,3,7,11,3,7,11,3,0,1,2,6,10,2,6,10,7,8,0,1,5,9,6,11,3,7,11,3,0,1,2,6,10,7,11,4]","action_history":"[0,0,1,1,0,1,1,1,1,1,1,1,0,0,0,1,1,0,1,1,1,0,0,0,0,1,1,0,0,0,1,1,1,0,0,0,0,1,1,1,0]","mutagen_history":"[0,0,1,1,0,1,1,1,1,1,1,1,0,0,0,1,1,0,1,1,1,0,0,0,0,1,1,0,0,0,1,1,1,0,0,0,0,1,1,1,0]","location_rts":"[2659,3053,219,1021,670,703,1563,707,1632,475,1204,801,99,578,760,765,332,2833,2055,275,396,959,465,704,1089,1672,250,636,875,446,632,1272,314,808,799,1618,497,17,456,292,297]","trial_type":"fractal-mutation","trial_index":63,"time_elapsed":1532935,"internal_node_id":"0.0-5.0-24.0"},{"group":"dicyclic group of order 12","fractal_assignment":["../images/gry_blk.png","../images/pnk_blu.png","../images/red_prp.png","../images/cyn_red.png","../images/blu_wht.png","../images/org_blu.png","../images/wht_red.png","../images/grn_red.png","../images/grn_prp.png","../images/grn_blu.png","../images/ylw_slt.png","../images/ylw_pnk.png"],"mutagen_generator_assignment":[0,1],"goal":2,"start":4,"action_noise":0.15,"location_history":"[4,9,1,5,9,1,5,10,7,8,5,10,2]","action_history":"[0,1,1,1,1,1,0,0,0,0,0,1]","mutagen_history":"[0,1,1,1,1,1,0,0,0,0,0,1]","location_rts":"[842,362,230,406,363,4767,516,776,421,498,897,358]","trial_type":"fractal-mutation","trial_index":64,"time_elapsed":1560074,"internal_node_id":"0.0-5.0-25.0"},{"group":"dicyclic group of order 12","fractal_assignment":["../images/gry_blk.png","../images/pnk_blu.png","../images/red_prp.png","../images/cyn_red.png","../images/blu_wht.png","../images/org_blu.png","../images/wht_red.png","../images/grn_red.png","../images/grn_prp.png","../images/grn_blu.png","../images/ylw_slt.png","../images/ylw_pnk.png"],"mutagen_generator_assignment":[0,1],"goal":1,"start":2,"action_noise":0.15,"location_history":"[2,3,7,8,5,10,7,8,5,9,1]","action_history":"[0,1,0,0,0,0,0,0,1,1]","mutagen_history":"[0,1,0,0,0,0,0,0,1,1]","location_rts":"[781,1267,170,1502,2041,587,1810,5272,261,1235]","trial_type":"fractal-mutation","trial_index":65,"time_elapsed":1589527,"internal_node_id":"0.0-5.0-26.0"},{"group":"dicyclic group of order 12","fractal_assignment":["../images/gry_blk.png","../images/pnk_blu.png","../images/red_prp.png","../images/cyn_red.png","../images/blu_wht.png","../images/org_blu.png","../images/wht_red.png","../images/grn_red.png","../images/grn_prp.png","../images/grn_blu.png","../images/ylw_slt.png","../images/ylw_pnk.png"],"mutagen_generator_assignment":[0,1],"goal":8,"start":1,"action_noise":0.15,"location_history":"[1,2,6,10,2,3,0,1,2,6,11,3,7,8]","action_history":"[0,1,1,1,1,0,0,0,1,0,1,0,0]","mutagen_history":"[0,1,1,1,1,0,0,0,1,0,1,0,0]","location_rts":"[759,389,7726,3871,3936,233,1522,938,993,438,4772,2177,2338]","trial_type":"fractal-mutation","trial_index":66,"time_elapsed":1637508,"internal_node_id":"0.0-5.0-27.0"},{"group":"dicyclic group of order 12","fractal_assignment":["../images/gry_blk.png","../images/pnk_blu.png","../images/red_prp.png","../images/cyn_red.png","../images/blu_wht.png","../images/org_blu.png","../images/wht_red.png","../images/grn_red.png","../images/grn_prp.png","../images/grn_blu.png","../images/ylw_slt.png","../images/ylw_pnk.png"],"mutagen_generator_assignment":[0,1],"goal":10,"start":8,"action_noise":0.15,"location_history":"[8,5,9,1,2,6,10]","action_history":"[1,1,1,0,1,1]","mutagen_history":"[1,1,1,0,1,1]","location_rts":"[790,1023,4167,553,4114,2000]","trial_type":"fractal-mutation","trial_index":67,"time_elapsed":1660396,"internal_node_id":"0.0-5.0-28.0"},{"group":"dicyclic group of order 12","fractal_assignment":["../images/gry_blk.png","../images/pnk_blu.png","../images/red_prp.png","../images/cyn_red.png","../images/blu_wht.png","../images/org_blu.png","../images/wht_red.png","../images/grn_red.png","../images/grn_prp.png","../images/grn_blu.png","../images/ylw_slt.png","../images/ylw_pnk.png"],"mutagen_generator_assignment":[0,1],"goal":7,"start":10,"action_noise":0.15,"location_history":"[10,7]","action_history":"[0]","mutagen_history":"[0]","location_rts":"[1027]","trial_type":"fractal-mutation","trial_index":68,"time_elapsed":1665952,"internal_node_id":"0.0-5.0-29.0"},{"group":"dicyclic group of order 12","fractal_assignment":["../images/gry_blk.png","../images/pnk_blu.png","../images/red_prp.png","../images/cyn_red.png","../images/blu_wht.png","../images/org_blu.png","../images/wht_red.png","../images/grn_red.png","../images/grn_prp.png","../images/grn_blu.png","../images/ylw_slt.png","../images/ylw_pnk.png"],"mutagen_generator_assignment":[0,1],"goal":6,"start":7,"action_noise":0.15,"location_history":"[7,11,3,7,11,4,9,6]","action_history":"[1,1,1,1,0,0,0]","mutagen_history":"[1,1,1,1,0,0,0]","location_rts":"[4270,845,1726,3300,435,710,3737]","trial_type":"fractal-mutation","trial_index":69,"time_elapsed":1692259,"internal_node_id":"0.0-5.0-30.0"},{"group":"dicyclic group of order 12","fractal_assignment":["../images/gry_blk.png","../images/pnk_blu.png","../images/red_prp.png","../images/cyn_red.png","../images/blu_wht.png","../images/org_blu.png","../images/wht_red.png","../images/grn_red.png","../images/grn_prp.png","../images/grn_blu.png","../images/ylw_slt.png","../images/ylw_pnk.png"],"mutagen_generator_assignment":[0,1],"goal":0,"start":6,"action_noise":0.15,"location_history":"[6,10,7,8,5,10,2,3,0]","action_history":"[1,0,0,0,0,1,0,0]","mutagen_history":"[1,0,0,0,0,1,0,0]","location_rts":"[966,1603,1323,732,874,991,612,558]","trial_type":"fractal-mutation","trial_index":70,"time_elapsed":1712188,"internal_node_id":"0.0-5.0-31.0"},{"group":"dicyclic group of order 12","fractal_assignment":["../images/gry_blk.png","../images/pnk_blu.png","../images/red_prp.png","../images/cyn_red.png","../images/blu_wht.png","../images/org_blu.png","../images/wht_red.png","../images/grn_red.png","../images/grn_prp.png","../images/grn_blu.png","../images/ylw_slt.png","../images/ylw_pnk.png"],"mutagen_generator_assignment":[0,1],"goal":11,"start":0,"action_noise":0.15,"location_history":"[0,4,9,1,5,9,6,10,2,3,0,1,2,3,7,11]","action_history":"[1,1,1,1,1,0,1,1,0,0,0,0,1,1,1]","mutagen_history":"[1,1,1,1,1,0,1,1,0,0,0,0,1,1,1]","location_rts":"[3444,6142,325,1204,1119,3910,5177,3461,497,1494,2036,1037,942,2410,787]","trial_type":"fractal-mutation","trial_index":71,"time_elapsed":1766357,"internal_node_id":"0.0-5.0-32.0"},{"group":"dicyclic group of order 12","fractal_assignment":["../images/gry_blk.png","../images/pnk_blu.png","../images/red_prp.png","../images/cyn_red.png","../images/blu_wht.png","../images/org_blu.png","../images/wht_red.png","../images/grn_red.png","../images/grn_prp.png","../images/grn_blu.png","../images/ylw_slt.png","../images/ylw_pnk.png"],"mutagen_generator_assignment":[0,1],"goal":9,"start":11,"action_noise":0.15,"location_history":"[11,4,8,0,4,8,0,4,9]","action_history":"[0,1,1,1,1,1,1,1]","mutagen_history":"[0,1,1,1,1,1,1,1]","location_rts":"[914,829,790,398,361,554,542,921]","trial_type":"fractal-mutation","trial_index":72,"time_elapsed":1784160,"internal_node_id":"0.0-5.0-33.0"},{"group":"dicyclic group of order 12","fractal_assignment":["../images/gry_blk.png","../images/pnk_blu.png","../images/red_prp.png","../images/cyn_red.png","../images/blu_wht.png","../images/org_blu.png","../images/wht_red.png","../images/grn_red.png","../images/grn_prp.png","../images/grn_blu.png","../images/ylw_slt.png","../images/ylw_pnk.png"],"mutagen_generator_assignment":[0,1],"goal":5,"start":9,"action_noise":0.15,"location_history":"[9,6,11,3,0,4,8,5]","action_history":"[0,1,1,0,1,1,0]","mutagen_history":"[0,1,1,0,1,1,0]","location_rts":"[19338,386,261,622,2381,463,2439]","trial_type":"fractal-mutation","trial_index":73,"time_elapsed":1821242,"internal_node_id":"0.0-5.0-34.0"},{"view_history":"[{\"page_index\":0,\"viewing_time\":5873}]","rt":5873,"trial_type":"instructions","trial_index":74,"time_elapsed":1828115,"internal_node_id":"0.0-6.0"},{"rt":1654,"responses":"{\"Q0\":\"\"}","trial_type":"survey-text","trial_index":75,"time_elapsed":1830773,"internal_node_id":"0.0-7.0"}]