[{"view_history":"[{\"page_index\":0,\"viewing_time\":1280},{\"page_index\":1,\"viewing_time\":10868}]","rt":12149,"trial_type":"instructions","trial_index":0,"time_elapsed":12150,"internal_node_id":"0.0-0.0"},{"view_history":"[{\"page_index\":0,\"viewing_time\":1601},{\"page_index\":1,\"viewing_time\":18615}]","rt":20217,"trial_type":"instructions","trial_index":1,"time_elapsed":33369,"internal_node_id":"0.0-1.0"},{"group":"dihedral group of order 12","room_assignment":["grey","red","blue","olive","orange","brown","yellow","ivory","green","purple","pink","cyan"],"door_color_assignment":["white","black"],"door_generator_assignment":[1,0],"goal":7,"start":11,"action_noise":0.15,"location_history":"[11,10,9,8,7]","action_history":"[0,0,0,0]","door_history":"[1,1,1,1]","location_rts":"[4253,30219,330,1748]","trial_type":"two-door-navigation","trial_index":2,"time_elapsed":77538,"internal_node_id":"0.0-2.0-0.0"},{"group":"dihedral group of order 12","room_assignment":["grey","red","blue","olive","orange","brown","yellow","ivory","green","purple","pink","cyan"],"door_color_assignment":["white","black"],"door_generator_assignment":[1,0],"goal":8,"start":7,"action_noise":0.15,"location_history":"[7,1,7,1,2,3,9,8]","action_history":"[1,1,1,0,0,0,0]","door_history":"[0,0,0,1,1,1,1]","location_rts":"[54381,263,225,407,21,119,396]","trial_type":"two-door-navigation","trial_index":3,"time_elapsed":144011,"internal_node_id":"0.0-2.0-1.0"},{"group":"dihedral group of order 12","room_assignment":["grey","red","blue","olive","orange","brown","yellow","ivory","green","purple","pink","cyan"],"door_color_assignment":["white","black"],"door_generator_assignment":[1,0],"goal":4,"start":8,"action_noise":0.15,"location_history":"[8,7,6,11,10,9,3,4]","action_history":"[1,0,0,0,0,0,0]","door_history":"[0,1,1,1,1,1,1]","location_rts":"[13108,622,280,271,315,391,250]","trial_type":"two-door-navigation","trial_index":4,"time_elapsed":169900,"internal_node_id":"0.0-2.0-2.0"},{"group":"dihedral group of order 12","room_assignment":["grey","red","blue","olive","orange","brown","yellow","ivory","green","purple","pink","cyan"],"door_color_assignment":["white","black"],"door_generator_assignment":[1,0],"goal":5,"start":4,"action_noise":0.15,"location_history":"[4,5]","action_history":"[0]","door_history":"[1]","location_rts":"[358]","trial_type":"two-door-navigation","trial_index":5,"time_elapsed":174790,"internal_node_id":"0.0-2.0-3.0"},{"group":"dihedral group of order 12","room_assignment":["grey","red","blue","olive","orange","brown","yellow","ivory","green","purple","pink","cyan"],"door_color_assignment":["white","black"],"door_generator_assignment":[1,0],"goal":10,"start":5,"action_noise":0.15,"location_history":"[5,0,1,7,6,0,1,2,3,4,5,0,6,11,5,0,1,2,8,7,1,2,3,4,5,0,1,2,3,4,5,11,10]","action_history":"[0,0,0,0,1,0,0,0,0,0,0,1,0,0,0,0,0,0,0,1,0,0,0,0,0,0,1,0,0,0,0,0]","door_history":"[1,1,1,1,0,1,1,1,1,1,1,0,1,1,1,1,1,1,1,0,1,1,1,1,1,1,0,1,1,1,1,1]","location_rts":"[346,322,346,757,464,481,80,294,244,279,376,499,426,11,185,50,70,190,779,1475,251,71,29,55,79,106,306,89,1079,179,26,1393]","trial_type":"two-door-navigation","trial_index":6,"time_elapsed":222278,"internal_node_id":"0.0-2.0-4.0"},{"group":"dihedral group of order 12","room_assignment":["grey","red","blue","olive","orange","brown","yellow","ivory","green","purple","pink","cyan"],"door_color_assignment":["white","black"],"door_generator_assignment":[1,0],"goal":1,"start":10,"action_noise":0.15,"location_history":"[10,9,8,2,3,4,5,11,10,9,8,7,6,0,6,11,10,9,3,4,10,9,3,4,5,0,6,11,10,4,10,4,10,4,10,9,3,9,8,7,1]","action_history":"[0,0,0,0,0,0,0,0,0,0,0,0,0,1,0,0,0,0,0,1,0,0,0,0,0,0,0,0,1,0,1,1,1,1,0,1,1,0,0,0]","door_history":"[1,1,1,1,1,1,1,1,1,1,1,1,1,0,1,1,1,1,1,0,1,1,1,1,1,1,1,1,0,1,0,0,0,0,1,0,0,1,1,1]","location_rts":"[1158,279,473,287,401,299,138,428,358,435,502,386,364,728,9,415,265,343,256,277,246,154,152,128,111,23,398,1007,543,350,112,331,220,400,857,453,435,253,209,317]","trial_type":"two-door-navigation","trial_index":7,"time_elapsed":281109,"internal_node_id":"0.0-2.0-5.0"},{"group":"dihedral group of order 12","room_assignment":["grey","red","blue","olive","orange","brown","yellow","ivory","green","purple","pink","cyan"],"door_color_assignment":["white","black"],"door_generator_assignment":[1,0],"goal":6,"start":1,"action_noise":0.15,"location_history":"[1,7,6]","action_history":"[0,0]","door_history":"[1,1]","location_rts":"[12984,183]","trial_type":"two-door-navigation","trial_index":8,"time_elapsed":299816,"internal_node_id":"0.0-2.0-6.0"},{"group":"dihedral group of order 12","room_assignment":["grey","red","blue","olive","orange","brown","yellow","ivory","green","purple","pink","cyan"],"door_color_assignment":["white","black"],"door_generator_assignment":[1,0],"goal":9,"start":6,"action_noise":0.15,"location_history":"[6,11,10,9]","action_history":"[0,0,0]","door_history":"[1,1,1]","location_rts":"[625,339,61]","trial_type":"two-door-navigation","trial_index":9,"time_elapsed":307405,"internal_node_id":"0.0-2.0-7.0"},{"group":"dihedral group of order 12","room_assignment":["grey","red","blue","olive","orange","brown","yellow","ivory","green","purple","pink","cyan"],"door_color_assignment":["white","black"],"door_generator_assignment":[1,0],"goal":2,"start":9,"action_noise":0.15,"location_history":"[9,8,7,6,11,10,4,10,9,8,2]","action_history":"[0,0,0,0,0,0,1,0,0,0]","door_history":"[1,1,1,1,1,1,0,1,1,1]","location_rts":"[505,109,333,263,137,213,921,290,99,236]","trial_type":"two-door-navigation","trial_index":10,"time_elapsed":324232,"internal_node_id":"0.0-2.0-8.0"},{"group":"dihedral group of order 12","room_assignment":["grey","red","blue","olive","orange","brown","yellow","ivory","green","purple","pink","cyan"],"door_color_assignment":["white","black"],"door_generator_assignment":[1,0],"goal":0,"start":2,"action_noise":0.15,"location_history":"[2,3,4,10,9,8,7,6,0]","action_history":"[0,0,0,0,0,0,1,0]","door_history":"[1,1,1,1,1,1,0,1]","location_rts":"[703,123,360,89,240,407,277,132]","trial_type":"two-door-navigation","trial_index":11,"time_elapsed":338221,"internal_node_id":"0.0-2.0-9.0"},{"group":"dihedral group of order 12","room_assignment":["grey","red","blue","olive","orange","brown","yellow","ivory","green","purple","pink","cyan"],"door_color_assignment":["white","black"],"door_generator_assignment":[1,0],"goal":3,"start":0,"action_noise":0.15,"location_history":"[0,1,2,8,7,1,7,6,11,10,9,3]","action_history":"[0,0,0,0,1,0,0,0,0,0,1]","door_history":"[1,1,1,1,0,1,1,1,1,1,0]","location_rts":"[401,275,363,740,485,363,466,612,955,661,314]","trial_type":"two-door-navigation","trial_index":12,"time_elapsed":358586,"internal_node_id":"0.0-2.0-10.0"},{"group":"dihedral group of order 12","room_assignment":["grey","red","blue","olive","orange","brown","yellow","ivory","green","purple","pink","cyan"],"door_color_assignment":["white","black"],"door_generator_assignment":[1,0],"goal":10,"start":3,"action_noise":0.15,"location_history":"[3,4,5,0,1,2,3,4,5,0,1,2,8,7,6,11,10]","action_history":"[0,0,0,0,0,0,0,0,0,0,0,0,0,0,0,0]","door_history":"[1,1,1,1,1,1,1,1,1,1,1,1,1,1,1,1]","location_rts":"[11258,685,8229,783,4458,526,503,392,630,482,27784,284,16062,72971,252,290]","trial_type":"two-door-navigation","trial_index":13,"time_elapsed":524001,"internal_node_id":"0.0-2.0-11.0"},{"group":"dihedral group of order 12","room_assignment":["grey","red","blue","olive","orange","brown","yellow","ivory","green","purple","pink","cyan"],"door_color_assignment":["white","black"],"door_generator_assignment":[1,0],"goal":8,"start":10,"action_noise":0.15,"location_history":"[10,9,3,4,10,9,8]","action_history":"[0,1,0,1,0,0]","door_history":"[1,0,1,0,1,1]","location_rts":"[13013,313,738,358,851,5549]","trial_type":"two-door-navigation","trial_index":14,"time_elapsed":554452,"internal_node_id":"0.0-2.0-12.0"},{"group":"dihedral group of order 12","room_assignment":["grey","red","blue","olive","orange","brown","yellow","ivory","green","purple","pink","cyan"],"door_color_assignment":["white","black"],"door_generator_assignment":[1,0],"goal":4,"start":8,"action_noise":0.15,"location_history":"[8,7,1,2,3,9,8,7,1,2,3,9,8,7,1,2,3,4]","action_history":"[0,1,0,0,1,1,0,0,0,0,0,0,0,1,0,0,0]","door_history":"[1,0,1,1,0,0,1,1,1,1,1,1,1,0,1,1,1]","location_rts":"[1067,586,294,225,179,274,262,205,145,127,195,83,327,335,635,312,288]","trial_type":"two-door-navigation","trial_index":15,"time_elapsed":580911,"internal_node_id":"0.0-2.0-13.0"},{"group":"dihedral group of order 12","room_assignment":["grey","red","blue","olive","orange","brown","yellow","ivory","green","purple","pink","cyan"],"door_color_assignment":["white","black"],"door_generator_assignment":[1,0],"goal":0,"start":4,"action_noise":0.15,"location_history":"[4,5,0]","action_history":"[0,0]","door_history":"[1,1]","location_rts":"[9507,162]","trial_type":"two-door-navigation","trial_index":16,"time_elapsed":597122,"internal_node_id":"0.0-2.0-14.0"},{"group":"dihedral group of order 12","room_assignment":["grey","red","blue","olive","orange","brown","yellow","ivory","green","purple","pink","cyan"],"door_color_assignment":["white","black"],"door_generator_assignment":[1,0],"goal":11,"start":0,"action_noise":0.15,"location_history":"[0,6,11]","action_history":"[0,0]","door_history":"[1,1]","location_rts":"[1622,672]","trial_type":"two-door-navigation","trial_index":17,"time_elapsed":604959,"internal_node_id":"0.0-2.0-15.0"},{"group":"dihedral group of order 12","room_assignment":["grey","red","blue","olive","orange","brown","yellow","ivory","green","purple","pink","cyan"],"door_color_assignment":["white","black"],"door_generator_assignment":[1,0],"goal":2,"start":11,"action_noise":0.15,"location_history":"[11,10,9,8,7,6,11,5,11,10,9,8,2]","action_history":"[0,0,0,0,0,0,0,1,0,0,0,0]","door_history":"[1,1,1,1,1,1,1,0,1,1,1,1]","location_rts":"[2089,252,306,204,324,303,143,1070,1802,258,315,518]","trial_type":"two-door-navigation","trial_index":18,"time_elapsed":628297,"internal_node_id":"0.0-2.0-16.0"},{"group":"dihedral group of order 12","room_assignment":["grey","red","blue","olive","orange","brown","yellow","ivory","green","purple","pink","cyan"],"door_color_assignment":["white","black"],"door_generator_assignment":[1,0],"goal":7,"start":2,"action_noise":0.15,"location_history":"[2,3,4,5,0,1,7]","action_history":"[0,0,0,0,0,0]","door_history":"[1,1,1,1,1,1]","location_rts":"[2529,458,406,291,2745,325]","trial_type":"two-door-navigation","trial_index":19,"time_elapsed":644678,"internal_node_id":"0.0-2.0-17.0"},{"group":"dihedral group of order 12","room_assignment":["grey","red","blue","olive","orange","brown","yellow","ivory","green","purple","pink","cyan"],"door_color_assignment":["white","black"],"door_generator_assignment":[1,0],"goal":5,"start":7,"action_noise":0.15,"location_history":"[7,6,11,10,9,8,7,6,0,1,7,1,2,3,4,5]","action_history":"[0,0,0,0,0,0,0,0,0,0,1,0,0,0,0]","door_history":"[1,1,1,1,1,1,1,1,1,1,0,1,1,1,1]","location_rts":"[770,24,421,978,489,161,616,435,249,177,191,146,135,157,408]","trial_type":"two-door-navigation","trial_index":20,"time_elapsed":668826,"internal_node_id":"0.0-2.0-18.0"},{"group":"dihedral group of order 12","room_assignment":["grey","red","blue","olive","orange","brown","yellow","ivory","green","purple","pink","cyan"],"door_color_assignment":["white","black"],"door_generator_assignment":[1,0],"goal":6,"start":5,"action_noise":0.15,"location_history":"[5,11,10,9,8,7,6]","action_history":"[0,0,0,0,0,0]","door_history":"[1,1,1,1,1,1]","location_rts":"[1004,778,193,8986,335,279]","trial_type":"two-door-navigation","trial_index":21,"time_elapsed":690016,"internal_node_id":"0.0-2.0-19.0"},{"group":"dihedral group of order 12","room_assignment":["grey","red","blue","olive","orange","brown","yellow","ivory","green","purple","pink","cyan"],"door_color_assignment":["white","black"],"door_generator_assignment":[1,0],"goal":3,"start":6,"action_noise":0.15,"location_history":"[6,11,5,11,5,0,1,7,1,7,6,11,5,0,1,2,3]","action_history":"[0,0,0,0,0,0,0,0,0,0,0,0,0,1,0,0]","door_history":"[1,1,1,1,1,1,1,1,1,1,1,1,1,0,1,1]","location_rts":"[424,296,106,64,58,424,108,113,434,236,170,141,41,123,79,212]","trial_type":"two-door-navigation","trial_index":22,"time_elapsed":712870,"internal_node_id":"0.0-2.0-20.0"},{"group":"dihedral group of order 12","room_assignment":["grey","red","blue","olive","orange","brown","yellow","ivory","green","purple","pink","cyan"],"door_color_assignment":["white","black"],"door_generator_assignment":[1,0],"goal":1,"start":3,"action_noise":0.15,"location_history":"[3,4,5,0,1]","action_history":"[0,0,0,0]","door_history":"[1,1,1,1]","location_rts":"[340,197,184,94]","trial_type":"two-door-navigation","trial_index":23,"time_elapsed":721267,"internal_node_id":"0.0-2.0-21.0"},{"group":"dihedral group of order 12","room_assignment":["grey","red","blue","olive","orange","brown","yellow","ivory","green","purple","pink","cyan"],"door_color_assignment":["white","black"],"door_generator_assignment":[1,0],"goal":9,"start":1,"action_noise":0.15,"location_history":"[1,2,3,9]","action_history":"[0,0,1]","door_history":"[1,1,0]","location_rts":"[900,235,588]","trial_type":"two-door-navigation","trial_index":24,"time_elapsed":729553,"internal_node_id":"0.0-2.0-22.0"},{"group":"dihedral group of order 12","room_assignment":["grey","red","blue","olive","orange","brown","yellow","ivory","green","purple","pink","cyan"],"door_color_assignment":["white","black"],"door_generator_assignment":[1,0],"goal":3,"start":9,"action_noise":0.15,"location_history":"[9,8,7,6,11,10,9,8,7,1,7,6,11,10,9,3]","action_history":"[0,1,0,0,0,0,0,0,1,0,0,0,0,0,0]","door_history":"[1,0,1,1,1,1,1,1,0,1,1,1,1,1,1]","location_rts":"[321,467,394,270,39,108,164,72,534,184,86,113,35,541,814]","trial_type":"two-door-navigation","trial_index":25,"time_elapsed":752916,"internal_node_id":"0.0-2.0-23.0"},{"group":"dihedral group of order 12","room_assignment":["grey","red","blue","olive","orange","brown","yellow","ivory","green","purple","pink","cyan"],"door_color_assignment":["white","black"],"door_generator_assignment":[1,0],"goal":4,"start":3,"action_noise":0.15,"location_history":"[3,9,8,7,6,11,5,11,10,9,3,4]","action_history":"[0,0,0,0,0,0,1,0,0,0,0]","door_history":"[1,1,1,1,1,1,0,1,1,1,1]","location_rts":"[600,324,126,62,146,210,379,174,271,158,167]","trial_type":"two-door-navigation","trial_index":26,"time_elapsed":770271,"internal_node_id":"0.0-2.0-24.0"},{"group":"dihedral group of order 12","room_assignment":["grey","red","blue","olive","orange","brown","yellow","ivory","green","purple","pink","cyan"],"door_color_assignment":["white","black"],"door_generator_assignment":[1,0],"goal":2,"start":4,"action_noise":0.15,"location_history":"[4,5,0,1,2]","action_history":"[0,0,0,0]","door_history":"[1,1,1,1]","location_rts":"[960,1253,2153,938]","trial_type":"two-door-navigation","trial_index":27,"time_elapsed":783163,"internal_node_id":"0.0-2.0-25.0"},{"group":"dihedral group of order 12","room_assignment":["grey","red","blue","olive","orange","brown","yellow","ivory","green","purple","pink","cyan"],"door_color_assignment":["white","black"],"door_generator_assignment":[1,0],"goal":1,"start":2,"action_noise":0.15,"location_history":"[2,3,9,8,7,6,0,1]","action_history":"[0,1,0,0,0,0,0]","door_history":"[1,0,1,1,1,1,1]","location_rts":"[3859,651,347,52,143,195,46]","trial_type":"two-door-navigation","trial_index":28,"time_elapsed":799090,"internal_node_id":"0.0-2.0-26.0"},{"group":"dihedral group of order 12","room_assignment":["grey","red","blue","olive","orange","brown","yellow","ivory","green","purple","pink","cyan"],"door_color_assignment":["white","black"],"door_generator_assignment":[1,0],"goal":8,"start":1,"action_noise":0.15,"location_history":"[1,2,3,4,10,9,8]","action_history":"[0,0,0,1,0,0]","door_history":"[1,1,1,0,1,1]","location_rts":"[1418,63,169,93,147,184]","trial_type":"two-door-navigation","trial_index":29,"time_elapsed":810785,"internal_node_id":"0.0-2.0-27.0"},{"group":"dihedral group of order 12","room_assignment":["grey","red","blue","olive","orange","brown","yellow","ivory","green","purple","pink","cyan"],"door_color_assignment":["white","black"],"door_generator_assignment":[1,0],"goal":10,"start":8,"action_noise":0.15,"location_history":"[8,2,3,4,5,0,1,2,3,4,5,0,6,11,10]","action_history":"[1,0,0,0,0,0,0,0,0,0,0,1,0,0]","door_history":"[0,1,1,1,1,1,1,1,1,1,1,0,1,1]","location_rts":"[3572,145,326,151,214,213,67,188,129,175,29,422,283,183]","trial_type":"two-door-navigation","trial_index":30,"time_elapsed":834670,"internal_node_id":"0.0-2.0-28.0"},{"group":"dihedral group of order 12","room_assignment":["grey","red","blue","olive","orange","brown","yellow","ivory","green","purple","pink","cyan"],"door_color_assignment":["white","black"],"door_generator_assignment":[1,0],"goal":7,"start":10,"action_noise":0.15,"location_history":"[10,9,8,7]","action_history":"[0,0,0]","door_history":"[1,1,1]","location_rts":"[235,269,256]","trial_type":"two-door-navigation","trial_index":31,"time_elapsed":841991,"internal_node_id":"0.0-2.0-29.0"},{"group":"dihedral group of order 12","room_assignment":["grey","red","blue","olive","orange","brown","yellow","ivory","green","purple","pink","cyan"],"door_color_assignment":["white","black"],"door_generator_assignment":[1,0],"goal":6,"start":7,"action_noise":0.15,"location_history":"[7,6]","action_history":"[0]","door_history":"[1]","location_rts":"[308]","trial_type":"two-door-navigation","trial_index":32,"time_elapsed":846827,"internal_node_id":"0.0-2.0-30.0"},{"group":"dihedral group of order 12","room_assignment":["grey","red","blue","olive","orange","brown","yellow","ivory","green","purple","pink","cyan"],"door_color_assignment":["white","black"],"door_generator_assignment":[1,0],"goal":0,"start":6,"action_noise":0.15,"location_history":"[6,11,10,4,10,9,8,7,1,2,3,4,5,11,10,9,8,7,6,11,10,9,8,2,3,4,10,9,8,7,6,11,10,9,8,7,1,2,3,4,5,0]","action_history":"[0,0,0,0,0,0,0,1,0,0,0,0,0,0,0,0,0,0,0,0,0,0,1,0,0,0,0,0,0,0,0,0,0,0,0,1,0,0,0,0,0]","door_history":"[1,1,1,1,1,1,1,0,1,1,1,1,1,1,1,1,1,1,1,1,1,1,0,1,1,1,1,1,1,1,1,1,1,1,1,0,1,1,1,1,1]","location_rts":"[412,219,354,270,268,235,250,91,433,38,64,8574,417,253,264,316,121,193,280,236,1270,36,518,16,296,144,130,74,182,222,1237,250,133,39,116,220,132,100,113,151,171]","trial_type":"two-door-navigation","trial_index":33,"time_elapsed":910988,"internal_node_id":"0.0-2.0-31.0"},{"group":"dihedral group of order 12","room_assignment":["grey","red","blue","olive","orange","brown","yellow","ivory","green","purple","pink","cyan"],"door_color_assignment":["white","black"],"door_generator_assignment":[1,0],"goal":11,"start":0,"action_noise":0.15,"location_history":"[0,1,7,6,11]","action_history":"[0,0,0,0]","door_history":"[1,1,1,1]","location_rts":"[315,308,420,233]","trial_type":"two-door-navigation","trial_index":34,"time_elapsed":919849,"internal_node_id":"0.0-2.0-32.0"},{"group":"dihedral group of order 12","room_assignment":["grey","red","blue","olive","orange","brown","yellow","ivory","green","purple","pink","cyan"],"door_color_assignment":["white","black"],"door_generator_assignment":[1,0],"goal":9,"start":11,"action_noise":0.15,"location_history":"[11,10,9]","action_history":"[0,0]","door_history":"[1,1]","location_rts":"[780,401]","trial_type":"two-door-navigation","trial_index":35,"time_elapsed":926574,"internal_node_id":"0.0-2.0-33.0"},{"group":"dihedral group of order 12","room_assignment":["grey","red","blue","olive","orange","brown","yellow","ivory","green","purple","pink","cyan"],"door_color_assignment":["white","black"],"door_generator_assignment":[1,0],"goal":5,"start":9,"action_noise":0.15,"location_history":"[9,3,4,5]","action_history":"[0,0,0]","door_history":"[1,1,1]","location_rts":"[343,276,41]","trial_type":"two-door-navigation","trial_index":36,"time_elapsed":933800,"internal_node_id":"0.0-2.0-34.0"},{"view_history":"[{\"page_index\":0,\"viewing_time\":3606}]","rt":3606,"trial_type":"instructions","trial_index":37,"time_elapsed":938407,"internal_node_id":"0.0-3.0"},{"view_history":"[{\"page_index\":0,\"viewing_time\":21536},{\"page_index\":1,\"viewing_time\":20775}]","rt":42311,"trial_type":"instructions","trial_index":38,"time_elapsed":981719,"internal_node_id":"0.0-4.0"},{"group":"dicyclic group of order 12","fractal_assignment":["../images/ylw_slt.png","../images/org_blu.png","../images/grn_prp.png","../images/grn_red.png","../images/blu_wht.png","../images/ylw_pnk.png","../images/cyn_red.png","../images/wht_red.png","../images/gry_blk.png","../images/grn_blu.png","../images/red_prp.png","../images/pnk_blu.png"],"mutagen_generator_assignment":[0,1],"goal":7,"start":11,"action_noise":0.15,"location_history":"[11,4,9,6,10,7]","action_history":"[0,0,0,1,0]","mutagen_history":"[0,0,0,1,0]","location_rts":"[1819,531,405,270,469]","trial_type":"fractal-mutation","trial_index":39,"time_elapsed":994075,"internal_node_id":"0.0-5.0-0.0"},{"group":"dicyclic group of order 12","fractal_assignment":["../images/ylw_slt.png","../images/org_blu.png","../images/grn_prp.png","../images/grn_red.png","../images/blu_wht.png","../images/ylw_pnk.png","../images/cyn_red.png","../images/wht_red.png","../images/gry_blk.png","../images/grn_blu.png","../images/red_prp.png","../images/pnk_blu.png"],"mutagen_generator_assignment":[0,1],"goal":8,"start":7,"action_noise":0.15,"location_history":"[7,8]","action_history":"[0]","mutagen_history":"[0]","location_rts":"[393]","trial_type":"fractal-mutation","trial_index":40,"time_elapsed":999020,"internal_node_id":"0.0-5.0-1.0"},{"group":"dicyclic group of order 12","fractal_assignment":["../images/ylw_slt.png","../images/org_blu.png","../images/grn_prp.png","../images/grn_red.png","../images/blu_wht.png","../images/ylw_pnk.png","../images/cyn_red.png","../images/wht_red.png","../images/gry_blk.png","../images/grn_blu.png","../images/red_prp.png","../images/pnk_blu.png"],"mutagen_generator_assignment":[0,1],"goal":4,"start":8,"action_noise":0.15,"location_history":"[8,0,4]","action_history":"[0,1]","mutagen_history":"[0,1]","location_rts":"[360,266]","trial_type":"fractal-mutation","trial_index":41,"time_elapsed":1005345,"internal_node_id":"0.0-5.0-2.0"},{"group":"dicyclic group of order 12","fractal_assignment":["../images/ylw_slt.png","../images/org_blu.png","../images/grn_prp.png","../images/grn_red.png","../images/blu_wht.png","../images/ylw_pnk.png","../images/cyn_red.png","../images/wht_red.png","../images/gry_blk.png","../images/grn_blu.png","../images/red_prp.png","../images/pnk_blu.png"],"mutagen_generator_assignment":[0,1],"goal":5,"start":4,"action_noise":0.15,"location_history":"[4,8,5]","action_history":"[0,0]","mutagen_history":"[0,0]","location_rts":"[466,398]","trial_type":"fractal-mutation","trial_index":42,"time_elapsed":1011784,"internal_node_id":"0.0-5.0-3.0"},{"group":"dicyclic group of order 12","fractal_assignment":["../images/ylw_slt.png","../images/org_blu.png","../images/grn_prp.png","../images/grn_red.png","../images/blu_wht.png","../images/ylw_pnk.png","../images/cyn_red.png","../images/wht_red.png","../images/gry_blk.png","../images/grn_blu.png","../images/red_prp.png","../images/pnk_blu.png"],"mutagen_generator_assignment":[0,1],"goal":10,"start":5,"action_noise":0.15,"location_history":"[5,10]","action_history":"[0]","mutagen_history":"[0]","location_rts":"[540]","trial_type":"fractal-mutation","trial_index":43,"time_elapsed":1016862,"internal_node_id":"0.0-5.0-4.0"},{"group":"dicyclic group of order 12","fractal_assignment":["../images/ylw_slt.png","../images/org_blu.png","../images/grn_prp.png","../images/grn_red.png","../images/blu_wht.png","../images/ylw_pnk.png","../images/cyn_red.png","../images/wht_red.png","../images/gry_blk.png","../images/grn_blu.png","../images/red_prp.png","../images/pnk_blu.png"],"mutagen_generator_assignment":[0,1],"goal":1,"start":10,"action_noise":0.15,"location_history":"[10,7,8,5,9,1]","action_history":"[0,0,0,1,1]","mutagen_history":"[0,0,0,1,1]","location_rts":"[175,285,243,1137,281]","trial_type":"fractal-mutation","trial_index":44,"time_elapsed":1027973,"internal_node_id":"0.0-5.0-5.0"},{"group":"dicyclic group of order 12","fractal_assignment":["../images/ylw_slt.png","../images/org_blu.png","../images/grn_prp.png","../images/grn_red.png","../images/blu_wht.png","../images/ylw_pnk.png","../images/cyn_red.png","../images/wht_red.png","../images/gry_blk.png","../images/grn_blu.png","../images/red_prp.png","../images/pnk_blu.png"],"mutagen_generator_assignment":[0,1],"goal":6,"start":1,"action_noise":0.15,"location_history":"[1,2,6]","action_history":"[0,1]","mutagen_history":"[0,1]","location_rts":"[1030,1087]","trial_type":"fractal-mutation","trial_index":45,"time_elapsed":1035795,"internal_node_id":"0.0-5.0-6.0"},{"group":"dicyclic group of order 12","fractal_assignment":["../images/ylw_slt.png","../images/org_blu.png","../images/grn_prp.png","../images/grn_red.png","../images/blu_wht.png","../images/ylw_pnk.png","../images/cyn_red.png","../images/wht_red.png","../images/gry_blk.png","../images/grn_blu.png","../images/red_prp.png","../images/pnk_blu.png"],"mutagen_generator_assignment":[0,1],"goal":9,"start":6,"action_noise":0.15,"location_history":"[6,10,7,8,0,4,9]","action_history":"[1,1,0,1,1,0]","mutagen_history":"[1,1,0,1,1,0]","location_rts":"[1014,362,474,332,265,638]","trial_type":"fractal-mutation","trial_index":46,"time_elapsed":1049275,"internal_node_id":"0.0-5.0-7.0"},{"group":"dicyclic group of order 12","fractal_assignment":["../images/ylw_slt.png","../images/org_blu.png","../images/grn_prp.png","../images/grn_red.png","../images/blu_wht.png","../images/ylw_pnk.png","../images/cyn_red.png","../images/wht_red.png","../images/gry_blk.png","../images/grn_blu.png","../images/red_prp.png","../images/pnk_blu.png"],"mutagen_generator_assignment":[0,1],"goal":2,"start":9,"action_noise":0.15,"location_history":"[9,6,10,2]","action_history":"[0,1,1]","mutagen_history":"[0,1,1]","location_rts":"[1233,1504,122]","trial_type":"fractal-mutation","trial_index":47,"time_elapsed":1059002,"internal_node_id":"0.0-5.0-8.0"},{"group":"dicyclic group of order 12","fractal_assignment":["../images/ylw_slt.png","../images/org_blu.png","../images/grn_prp.png","../images/grn_red.png","../images/blu_wht.png","../images/ylw_pnk.png","../images/cyn_red.png","../images/wht_red.png","../images/gry_blk.png","../images/grn_blu.png","../images/red_prp.png","../images/pnk_blu.png"],"mutagen_generator_assignment":[0,1],"goal":0,"start":2,"action_noise":0.15,"location_history":"[2,3,0]","action_history":"[0,0]","mutagen_history":"[0,0]","location_rts":"[746,308]","trial_type":"fractal-mutation","trial_index":48,"time_elapsed":1065619,"internal_node_id":"0.0-5.0-9.0"},{"group":"dicyclic group of order 12","fractal_assignment":["../images/ylw_slt.png","../images/org_blu.png","../images/grn_prp.png","../images/grn_red.png","../images/blu_wht.png","../images/ylw_pnk.png","../images/cyn_red.png","../images/wht_red.png","../images/gry_blk.png","../images/grn_blu.png","../images/red_prp.png","../images/pnk_blu.png"],"mutagen_generator_assignment":[0,1],"goal":3,"start":0,"action_noise":0.15,"location_history":"[0,4,8,0,1,2,6,10,2,3]","action_history":"[1,1,1,0,1,1,1,1,0]","mutagen_history":"[1,1,1,0,1,1,1,1,0]","location_rts":"[678,306,231,125,302,110,78,43,160]","trial_type":"fractal-mutation","trial_index":49,"time_elapsed":1081606,"internal_node_id":"0.0-5.0-10.0"},{"group":"dicyclic group of order 12","fractal_assignment":["../images/ylw_slt.png","../images/org_blu.png","../images/grn_prp.png","../images/grn_red.png","../images/blu_wht.png","../images/ylw_pnk.png","../images/cyn_red.png","../images/wht_red.png","../images/gry_blk.png","../images/grn_blu.png","../images/red_prp.png","../images/pnk_blu.png"],"mutagen_generator_assignment":[0,1],"goal":10,"start":3,"action_noise":0.15,"location_history":"[3,0,4,8,0,4,8,0,1,5,10]","action_history":"[0,1,1,1,1,1,1,0,1,0]","mutagen_history":"[0,1,1,1,1,1,1,0,1,0]","location_rts":"[1229,900,343,2869,1773,522,363,442,689,214]","trial_type":"fractal-mutation","trial_index":50,"time_elapsed":1105853,"internal_node_id":"0.0-5.0-11.0"},{"group":"dicyclic group of order 12","fractal_assignment":["../images/ylw_slt.png","../images/org_blu.png","../images/grn_prp.png","../images/grn_red.png","../images/blu_wht.png","../images/ylw_pnk.png","../images/cyn_red.png","../images/wht_red.png","../images/gry_blk.png","../images/grn_blu.png","../images/red_prp.png","../images/pnk_blu.png"],"mutagen_generator_assignment":[0,1],"goal":8,"start":10,"action_noise":0.15,"location_history":"[10,7,8]","action_history":"[0,0]","mutagen_history":"[0,0]","location_rts":"[354,446]","trial_type":"fractal-mutation","trial_index":51,"time_elapsed":1112220,"internal_node_id":"0.0-5.0-12.0"},{"group":"dicyclic group of order 12","fractal_assignment":["../images/ylw_slt.png","../images/org_blu.png","../images/grn_prp.png","../images/grn_red.png","../images/blu_wht.png","../images/ylw_pnk.png","../images/cyn_red.png","../images/wht_red.png","../images/gry_blk.png","../images/grn_blu.png","../images/red_prp.png","../images/pnk_blu.png"],"mutagen_generator_assignment":[0,1],"goal":4,"start":8,"action_noise":0.15,"location_history":"[8,5,10,7,11,3,7,8,0,4]","action_history":"[0,0,0,1,1,1,0,1,1]","mutagen_history":"[0,0,0,1,1,1,0,1,1]","location_rts":"[21160,480,452,556,296,303,300,318,328]","trial_type":"fractal-mutation","trial_index":52,"time_elapsed":1149905,"internal_node_id":"0.0-5.0-13.0"},{"group":"dicyclic group of order 12","fractal_assignment":["../images/ylw_slt.png","../images/org_blu.png","../images/grn_prp.png","../images/grn_red.png","../images/blu_wht.png","../images/ylw_pnk.png","../images/cyn_red.png","../images/wht_red.png","../images/gry_blk.png","../images/grn_blu.png","../images/red_prp.png","../images/pnk_blu.png"],"mutagen_generator_assignment":[0,1],"goal":0,"start":4,"action_noise":0.15,"location_history":"[4,8,5,9,1,5,10,2,3,7,8,0]","action_history":"[0,0,1,1,1,0,1,1,1,0,1]","mutagen_history":"[0,0,1,1,1,0,1,1,1,0,1]","location_rts":"[872,466,315,410,340,284,344,373,7744,458,208]","trial_type":"fractal-mutation","trial_index":53,"time_elapsed":1177669,"internal_node_id":"0.0-5.0-14.0"},{"group":"dicyclic group of order 12","fractal_assignment":["../images/ylw_slt.png","../images/org_blu.png","../images/grn_prp.png","../images/grn_red.png","../images/blu_wht.png","../images/ylw_pnk.png","../images/cyn_red.png","../images/wht_red.png","../images/gry_blk.png","../images/grn_blu.png","../images/red_prp.png","../images/pnk_blu.png"],"mutagen_generator_assignment":[0,1],"goal":11,"start":0,"action_noise":0.15,"location_history":"[0,1,5,9,1,2,6,10,2,6,11]","action_history":"[0,1,1,1,0,1,1,0,1,0]","mutagen_history":"[0,1,1,1,0,1,1,0,1,0]","location_rts":"[2306,477,169,136,168,283,251,70,550,318]","trial_type":"fractal-mutation","trial_index":54,"time_elapsed":1197330,"internal_node_id":"0.0-5.0-15.0"},{"group":"dicyclic group of order 12","fractal_assignment":["../images/ylw_slt.png","../images/org_blu.png","../images/grn_prp.png","../images/grn_red.png","../images/blu_wht.png","../images/ylw_pnk.png","../images/cyn_red.png","../images/wht_red.png","../images/gry_blk.png","../images/grn_blu.png","../images/red_prp.png","../images/pnk_blu.png"],"mutagen_generator_assignment":[0,1],"goal":2,"start":11,"action_noise":0.15,"location_history":"[11,4,9,1,5,10,2]","action_history":"[0,0,1,1,0,1]","mutagen_history":"[0,0,1,1,0,1]","location_rts":"[726,587,143,384,236,380]","trial_type":"fractal-mutation","trial_index":55,"time_elapsed":1209992,"internal_node_id":"0.0-5.0-16.0"},{"group":"dicyclic group of order 12","fractal_assignment":["../images/ylw_slt.png","../images/org_blu.png","../images/grn_prp.png","../images/grn_red.png","../images/blu_wht.png","../images/ylw_pnk.png","../images/cyn_red.png","../images/wht_red.png","../images/gry_blk.png","../images/grn_blu.png","../images/red_prp.png","../images/pnk_blu.png"],"mutagen_generator_assignment":[0,1],"goal":7,"start":2,"action_noise":0.15,"location_history":"[2,3,7]","action_history":"[0,1]","mutagen_history":"[0,1]","location_rts":"[2266,905]","trial_type":"fractal-mutation","trial_index":56,"time_elapsed":1218844,"internal_node_id":"0.0-5.0-17.0"},{"group":"dicyclic group of order 12","fractal_assignment":["../images/ylw_slt.png","../images/org_blu.png","../images/grn_prp.png","../images/grn_red.png","../images/blu_wht.png","../images/ylw_pnk.png","../images/cyn_red.png","../images/wht_red.png","../images/gry_blk.png","../images/grn_blu.png","../images/red_prp.png","../images/pnk_blu.png"],"mutagen_generator_assignment":[0,1],"goal":5,"start":7,"action_noise":0.15,"location_history":"[7,8,0,1,5]","action_history":"[0,0,1,1]","mutagen_history":"[0,0,1,1]","location_rts":"[672,487,176,610]","trial_type":"fractal-mutation","trial_index":57,"time_elapsed":1228698,"internal_node_id":"0.0-5.0-18.0"},{"group":"dicyclic group of order 12","fractal_assignment":["../images/ylw_slt.png","../images/org_blu.png","../images/grn_prp.png","../images/grn_red.png","../images/blu_wht.png","../images/ylw_pnk.png","../images/cyn_red.png","../images/wht_red.png","../images/gry_blk.png","../images/grn_blu.png","../images/red_prp.png","../images/pnk_blu.png"],"mutagen_generator_assignment":[0,1],"goal":6,"start":5,"action_noise":0.15,"location_history":"[5,10,7,8,0,1,5,9,1,2,3,7,11,3,7,11,4,9,1,5,10,7,11,3,0,4,9,6]","action_history":"[0,1,0,1,0,1,1,1,0,1,1,1,0,1,1,1,0,1,1,1,0,1,0,0,1,1,0]","mutagen_history":"[0,1,0,1,0,1,1,1,0,1,1,1,0,1,1,1,0,1,1,1,0,1,0,0,1,1,0]","location_rts":"[2372,672,731,639,488,1030,6225,341,144,511,557,404,868,535,357,325,304,81,97,8,126,394,236,764,815,249,414]","trial_type":"fractal-mutation","trial_index":58,"time_elapsed":1282690,"internal_node_id":"0.0-5.0-19.0"},{"group":"dicyclic group of order 12","fractal_assignment":["../images/ylw_slt.png","../images/org_blu.png","../images/grn_prp.png","../images/grn_red.png","../images/blu_wht.png","../images/ylw_pnk.png","../images/cyn_red.png","../images/wht_red.png","../images/gry_blk.png","../images/grn_blu.png","../images/red_prp.png","../images/pnk_blu.png"],"mutagen_generator_assignment":[0,1],"goal":3,"start":6,"action_noise":0.15,"location_history":"[6,10,7,8,0,4,8,5,9,6,10,7,11,4,8,0,4,8,5,9,1,2,3]","action_history":"[1,1,0,1,1,1,0,1,0,1,1,1,0,1,1,1,1,0,1,1,1,0]","mutagen_history":"[1,1,0,1,1,1,0,1,0,1,1,1,0,1,1,1,1,0,1,1,1,0]","location_rts":"[1916,183,351,360,181,95,49,355,191,617,49,407,251,547,420,260,374,374,666,97,115,116]","trial_type":"fractal-mutation","trial_index":59,"time_elapsed":1319518,"internal_node_id":"0.0-5.0-20.0"},{"group":"dicyclic group of order 12","fractal_assignment":["../images/ylw_slt.png","../images/org_blu.png","../images/grn_prp.png","../images/grn_red.png","../images/blu_wht.png","../images/ylw_pnk.png","../images/cyn_red.png","../images/wht_red.png","../images/gry_blk.png","../images/grn_blu.png","../images/red_prp.png","../images/pnk_blu.png"],"mutagen_generator_assignment":[0,1],"goal":1,"start":3,"action_noise":0.15,"location_history":"[3,0,4,8,0,1]","action_history":"[0,1,1,1,0]","mutagen_history":"[0,1,1,1,0]","location_rts":"[1154003,2227,25607,224,848]","trial_type":"fractal-mutation","trial_index":60,"time_elapsed":2511577,"internal_node_id":"0.0-5.0-21.0"},{"group":"dicyclic group of order 12","fractal_assignment":["../images/ylw_slt.png","../images/org_blu.png","../images/grn_prp.png","../images/grn_red.png","../images/blu_wht.png","../images/ylw_pnk.png","../images/cyn_red.png","../images/wht_red.png","../images/gry_blk.png","../images/grn_blu.png","../images/red_prp.png","../images/pnk_blu.png"],"mutagen_generator_assignment":[0,1],"goal":9,"start":1,"action_noise":0.15,"location_history":"[1,2,6,10,7,11,3,7,8,0,4,8,5,9]","action_history":"[0,1,1,0,1,1,1,0,1,1,1,0,1]","mutagen_history":"[0,1,1,0,1,1,1,0,1,1,1,0,1]","location_rts":"[78234,559,152,249,352,92,166,153,507,444,320,232,52]","trial_type":"fractal-mutation","trial_index":61,"time_elapsed":2611792,"internal_node_id":"0.0-5.0-22.0"},{"group":"dicyclic group of order 12","fractal_assignment":["../images/ylw_slt.png","../images/org_blu.png","../images/grn_prp.png","../images/grn_red.png","../images/blu_wht.png","../images/ylw_pnk.png","../images/cyn_red.png","../images/wht_red.png","../images/gry_blk.png","../images/grn_blu.png","../images/red_prp.png","../images/pnk_blu.png"],"mutagen_generator_assignment":[0,1],"goal":3,"start":9,"action_noise":0.15,"location_history":"[9,6,11,3]","action_history":"[0,0,1]","mutagen_history":"[0,0,1]","location_rts":"[804,463,724]","trial_type":"fractal-mutation","trial_index":62,"time_elapsed":2620498,"internal_node_id":"0.0-5.0-23.0"},{"group":"dicyclic group of order 12","fractal_assignment":["../images/ylw_slt.png","../images/org_blu.png","../images/grn_prp.png","../images/grn_red.png","../images/blu_wht.png","../images/ylw_pnk.png","../images/cyn_red.png","../images/wht_red.png","../images/gry_blk.png","../images/grn_blu.png","../images/red_prp.png","../images/pnk_blu.png"],"mutagen_generator_assignment":[0,1],"goal":4,"start":3,"action_noise":0.15,"location_history":"[3,0,1,5,9,6,10,7,11,4]","action_history":"[0,1,1,1,0,1,1,1,0]","mutagen_history":"[0,1,1,1,0,1,1,1,0]","location_rts":"[990,398,362,376,82,334,355,1,285]","trial_type":"fractal-mutation","trial_index":63,"time_elapsed":2637465,"internal_node_id":"0.0-5.0-24.0"},{"group":"dicyclic group of order 12","fractal_assignment":["../images/ylw_slt.png","../images/org_blu.png","../images/grn_prp.png","../images/grn_red.png","../images/blu_wht.png","../images/ylw_pnk.png","../images/cyn_red.png","../images/wht_red.png","../images/gry_blk.png","../images/grn_blu.png","../images/red_prp.png","../images/pnk_blu.png"],"mutagen_generator_assignment":[0,1],"goal":2,"start":4,"action_noise":0.15,"location_history":"[4,9,1,2]","action_history":"[0,1,1]","mutagen_history":"[0,1,1]","location_rts":"[1216,320,121]","trial_type":"fractal-mutation","trial_index":64,"time_elapsed":2645982,"internal_node_id":"0.0-5.0-25.0"},{"group":"dicyclic group of order 12","fractal_assignment":["../images/ylw_slt.png","../images/org_blu.png","../images/grn_prp.png","../images/grn_red.png","../images/blu_wht.png","../images/ylw_pnk.png","../images/cyn_red.png","../images/wht_red.png","../images/gry_blk.png","../images/grn_blu.png","../images/red_prp.png","../images/pnk_blu.png"],"mutagen_generator_assignment":[0,1],"goal":1,"start":2,"action_noise":0.15,"location_history":"[2,3,7,8,0,4,8,0,1]","action_history":"[0,1,1,1,0,1,1,0]","mutagen_history":"[0,1,1,1,0,1,1,0]","location_rts":"[1880,1440,390,454,233,300,30,177]","trial_type":"fractal-mutation","trial_index":65,"time_elapsed":2663393,"internal_node_id":"0.0-5.0-26.0"},{"group":"dicyclic group of order 12","fractal_assignment":["../images/ylw_slt.png","../images/org_blu.png","../images/grn_prp.png","../images/grn_red.png","../images/blu_wht.png","../images/ylw_pnk.png","../images/cyn_red.png","../images/wht_red.png","../images/gry_blk.png","../images/grn_blu.png","../images/red_prp.png","../images/pnk_blu.png"],"mutagen_generator_assignment":[0,1],"goal":8,"start":1,"action_noise":0.15,"location_history":"[1,5,9,6,11,4,8]","action_history":"[1,1,0,0,1,1]","mutagen_history":"[1,1,0,0,1,1]","location_rts":"[1168,332,391,557,122,333]","trial_type":"fractal-mutation","trial_index":66,"time_elapsed":2676652,"internal_node_id":"0.0-5.0-27.0"},{"group":"dicyclic group of order 12","fractal_assignment":["../images/ylw_slt.png","../images/org_blu.png","../images/grn_prp.png","../images/grn_red.png","../images/blu_wht.png","../images/ylw_pnk.png","../images/cyn_red.png","../images/wht_red.png","../images/gry_blk.png","../images/grn_blu.png","../images/red_prp.png","../images/pnk_blu.png"],"mutagen_generator_assignment":[0,1],"goal":10,"start":8,"action_noise":0.15,"location_history":"[8,0,4,9,1,5,9,1,5,10]","action_history":"[0,1,1,1,0,1,1,1,0]","mutagen_history":"[0,1,1,1,0,1,1,1,0]","location_rts":"[730,628,150,331,213,724,1,170,81]","trial_type":"fractal-mutation","trial_index":67,"time_elapsed":2693475,"internal_node_id":"0.0-5.0-28.0"},{"group":"dicyclic group of order 12","fractal_assignment":["../images/ylw_slt.png","../images/org_blu.png","../images/grn_prp.png","../images/grn_red.png","../images/blu_wht.png","../images/ylw_pnk.png","../images/cyn_red.png","../images/wht_red.png","../images/gry_blk.png","../images/grn_blu.png","../images/red_prp.png","../images/pnk_blu.png"],"mutagen_generator_assignment":[0,1],"goal":7,"start":10,"action_noise":0.15,"location_history":"[10,2,6,10,2,3,7]","action_history":"[0,1,1,1,0,1]","mutagen_history":"[0,1,1,1,0,1]","location_rts":"[303,467,280,460,653,267]","trial_type":"fractal-mutation","trial_index":68,"time_elapsed":2706186,"internal_node_id":"0.0-5.0-29.0"},{"group":"dicyclic group of order 12","fractal_assignment":["../images/ylw_slt.png","../images/org_blu.png","../images/grn_prp.png","../images/grn_red.png","../images/blu_wht.png","../images/ylw_pnk.png","../images/cyn_red.png","../images/wht_red.png","../images/gry_blk.png","../images/grn_blu.png","../images/red_prp.png","../images/pnk_blu.png"],"mutagen_generator_assignment":[0,1],"goal":6,"start":7,"action_noise":0.15,"location_history":"[7,8,0,4,9,1,5,9,6]","action_history":"[0,1,1,0,1,1,1,0]","mutagen_history":"[0,1,1,0,1,1,1,0]","location_rts":"[492,1331,299,286,766,74,12,107]","trial_type":"fractal-mutation","trial_index":69,"time_elapsed":2722091,"internal_node_id":"0.0-5.0-30.0"},{"group":"dicyclic group of order 12","fractal_assignment":["../images/ylw_slt.png","../images/org_blu.png","../images/grn_prp.png","../images/grn_red.png","../images/blu_wht.png","../images/ylw_pnk.png","../images/cyn_red.png","../images/wht_red.png","../images/gry_blk.png","../images/grn_blu.png","../images/red_prp.png","../images/pnk_blu.png"],"mutagen_generator_assignment":[0,1],"goal":0,"start":6,"action_noise":0.15,"location_history":"[6,11,3,0]","action_history":"[0,1,1]","mutagen_history":"[0,1,1]","location_rts":"[411,186,28]","trial_type":"fractal-mutation","trial_index":70,"time_elapsed":2729563,"internal_node_id":"0.0-5.0-31.0"},{"group":"dicyclic group of order 12","fractal_assignment":["../images/ylw_slt.png","../images/org_blu.png","../images/grn_prp.png","../images/grn_red.png","../images/blu_wht.png","../images/ylw_pnk.png","../images/cyn_red.png","../images/wht_red.png","../images/gry_blk.png","../images/grn_blu.png","../images/red_prp.png","../images/pnk_blu.png"],"mutagen_generator_assignment":[0,1],"goal":11,"start":0,"action_noise":0.15,"location_history":"[0,4,8,0,1,5,9,1,2,6,10,7,8,0,4,9,6,11]","action_history":"[1,1,1,0,1,1,1,0,1,1,1,0,1,1,1,0,1]","mutagen_history":"[1,1,1,0,1,1,1,0,1,1,1,0,1,1,1,0,1]","location_rts":"[1336,38,239,209,412,1,151,79,130,0,363,460,108,9,147,257,771]","trial_type":"fractal-mutation","trial_index":71,"time_elapsed":2757231,"internal_node_id":"0.0-5.0-32.0"},{"group":"dicyclic group of order 12","fractal_assignment":["../images/ylw_slt.png","../images/org_blu.png","../images/grn_prp.png","../images/grn_red.png","../images/blu_wht.png","../images/ylw_pnk.png","../images/cyn_red.png","../images/wht_red.png","../images/gry_blk.png","../images/grn_blu.png","../images/red_prp.png","../images/pnk_blu.png"],"mutagen_generator_assignment":[0,1],"goal":9,"start":11,"action_noise":0.15,"location_history":"[11,4,9]","action_history":"[0,1]","mutagen_history":"[0,1]","location_rts":"[392,528]","trial_type":"fractal-mutation","trial_index":72,"time_elapsed":2763854,"internal_node_id":"0.0-5.0-33.0"},{"group":"dicyclic group of order 12","fractal_assignment":["../images/ylw_slt.png","../images/org_blu.png","../images/grn_prp.png","../images/grn_red.png","../images/blu_wht.png","../images/ylw_pnk.png","../images/cyn_red.png","../images/wht_red.png","../images/gry_blk.png","../images/grn_blu.png","../images/red_prp.png","../images/pnk_blu.png"],"mutagen_generator_assignment":[0,1],"goal":5,"start":9,"action_noise":0.15,"location_history":"[9,1,5]","action_history":"[1,1]","mutagen_history":"[1,1]","location_rts":"[1204,424]","trial_type":"fractal-mutation","trial_index":73,"time_elapsed":2771294,"internal_node_id":"0.0-5.0-34.0"},{"view_history":"[{\"page_index\":0,\"viewing_time\":7890}]","rt":7891,"trial_type":"instructions","trial_index":74,"time_elapsed":2780187,"internal_node_id":"0.0-6.0"},{"rt":1171,"responses":"{\"Q0\":\"\"}","trial_type":"survey-text","trial_index":75,"time_elapsed":2782366,"internal_node_id":"0.0-7.0"}]