[{"view_history":"[{\"page_index\":0,\"viewing_time\":57891},{\"page_index\":1,\"viewing_time\":10295}]","rt":68187,"trial_type":"instructions","trial_index":0,"time_elapsed":68188,"internal_node_id":"0.0-0.0"},{"view_history":"[{\"page_index\":0,\"viewing_time\":2905},{\"page_index\":1,\"viewing_time\":37773}]","rt":40679,"trial_type":"instructions","trial_index":1,"time_elapsed":109868,"internal_node_id":"0.0-1.0"},{"group":"dihedral group of order 12","room_assignment":["grey","yellow","orange","red","cyan","brown","pink","blue","purple","ivory","olive","green"],"door_color_assignment":["white","black"],"door_generator_assignment":[0,1],"goal":7,"start":11,"action_noise":0.15,"location_history":"[11,5,11,5,0,1,7]","action_history":"[0,1,1,1,0,1]","door_history":"[0,1,1,1,0,1]","location_rts":"[1145,1729,759,609,743,899]","trial_type":"two-door-navigation","trial_index":2,"time_elapsed":125382,"internal_node_id":"0.0-2.0-0.0"},{"group":"dihedral group of order 12","room_assignment":["grey","yellow","orange","red","cyan","brown","pink","blue","purple","ivory","olive","green"],"door_color_assignment":["white","black"],"door_generator_assignment":[0,1],"goal":8,"start":7,"action_noise":0.15,"location_history":"[7,1,7,6,11,5,0,1,2,8]","action_history":"[1,1,0,0,1,0,0,1,1]","door_history":"[1,1,0,0,1,0,0,1,1]","location_rts":"[2715,467,1392,916,616,779,609,1118,643]","trial_type":"two-door-navigation","trial_index":3,"time_elapsed":147344,"internal_node_id":"0.0-2.0-1.0"},{"group":"dihedral group of order 12","room_assignment":["grey","yellow","orange","red","cyan","brown","pink","blue","purple","ivory","olive","green"],"door_color_assignment":["white","black"],"door_generator_assignment":[0,1],"goal":4,"start":8,"action_noise":0.15,"location_history":"[8,7,1,7,1,2,3,4]","action_history":"[0,0,0,1,0,0,0]","door_history":"[0,0,0,1,0,0,0]","location_rts":"[1052,1205,812,1334,925,1324,3241]","trial_type":"two-door-navigation","trial_index":4,"time_elapsed":167893,"internal_node_id":"0.0-2.0-2.0"},{"group":"dihedral group of order 12","room_assignment":["grey","yellow","orange","red","cyan","brown","pink","blue","purple","ivory","olive","green"],"door_color_assignment":["white","black"],"door_generator_assignment":[0,1],"goal":5,"start":4,"action_noise":0.15,"location_history":"[4,10,4,10,4,10,9,8,7,6,11,10,9,3,9,8,2,8,7,6,11,10,4,5]","action_history":"[1,1,1,1,1,0,0,0,0,0,0,0,1,1,1,1,0,0,0,0,0,0,0]","door_history":"[1,1,1,1,1,0,0,0,0,0,0,0,1,1,1,1,0,0,0,0,0,0,0]","location_rts":"[3757,1127,714,1453,1227,1014,684,834,1225,1723,751,1005,739,1009,933,443,668,400,546,530,691,813,667]","trial_type":"two-door-navigation","trial_index":5,"time_elapsed":217862,"internal_node_id":"0.0-2.0-3.0"},{"group":"dihedral group of order 12","room_assignment":["grey","yellow","orange","red","cyan","brown","pink","blue","purple","ivory","olive","green"],"door_color_assignment":["white","black"],"door_generator_assignment":[0,1],"goal":10,"start":5,"action_noise":0.15,"location_history":"[5,11,10]","action_history":"[1,1]","door_history":"[1,1]","location_rts":"[10119,540]","trial_type":"two-door-navigation","trial_index":6,"time_elapsed":234065,"internal_node_id":"0.0-2.0-4.0"},{"group":"dihedral group of order 12","room_assignment":["grey","yellow","orange","red","cyan","brown","pink","blue","purple","ivory","olive","green"],"door_color_assignment":["white","black"],"door_generator_assignment":[0,1],"goal":1,"start":10,"action_noise":0.15,"location_history":"[10,4,10,9,8,7,1]","action_history":"[1,1,0,0,1,1]","door_history":"[1,1,0,0,1,1]","location_rts":"[386,419,380,346,529,380]","trial_type":"two-door-navigation","trial_index":7,"time_elapsed":246155,"internal_node_id":"0.0-2.0-5.0"},{"group":"dihedral group of order 12","room_assignment":["grey","yellow","orange","red","cyan","brown","pink","blue","purple","ivory","olive","green"],"door_color_assignment":["white","black"],"door_generator_assignment":[0,1],"goal":6,"start":1,"action_noise":0.15,"location_history":"[1,7,6]","action_history":"[1,1]","door_history":"[1,1]","location_rts":"[6149,368]","trial_type":"two-door-navigation","trial_index":8,"time_elapsed":258215,"internal_node_id":"0.0-2.0-6.0"},{"group":"dihedral group of order 12","room_assignment":["grey","yellow","orange","red","cyan","brown","pink","blue","purple","ivory","olive","green"],"door_color_assignment":["white","black"],"door_generator_assignment":[0,1],"goal":9,"start":6,"action_noise":0.15,"location_history":"[6,11,10,4,10,4,10,4,5,0,6,0,1,2,3,9]","action_history":"[0,0,1,1,1,1,1,0,0,1,1,0,0,0,1]","door_history":"[0,0,1,1,1,1,1,0,0,1,1,0,0,0,1]","location_rts":"[1483,630,373,369,380,379,419,329,878,662,469,549,627,691,524]","trial_type":"two-door-navigation","trial_index":9,"time_elapsed":285800,"internal_node_id":"0.0-2.0-7.0"},{"group":"dihedral group of order 12","room_assignment":["grey","yellow","orange","red","cyan","brown","pink","blue","purple","ivory","olive","green"],"door_color_assignment":["white","black"],"door_generator_assignment":[0,1],"goal":2,"start":9,"action_noise":0.15,"location_history":"[9,8,7,6,0,6,0,1,2]","action_history":"[0,0,0,1,1,1,0,0]","door_history":"[0,0,0,1,1,1,0,0]","location_rts":"[644,439,443,768,385,649,432,452]","trial_type":"two-door-navigation","trial_index":10,"time_elapsed":301678,"internal_node_id":"0.0-2.0-8.0"},{"group":"dihedral group of order 12","room_assignment":["grey","yellow","orange","red","cyan","brown","pink","blue","purple","ivory","olive","green"],"door_color_assignment":["white","black"],"door_generator_assignment":[0,1],"goal":0,"start":2,"action_noise":0.15,"location_history":"[2,3,9,3,4,5,11,5,11,10,9,8,7,6,11,10,9,8,7,6,11,10,4,10,4,10,4,5,0]","action_history":"[0,1,1,0,0,1,1,1,0,0,0,0,0,0,0,0,0,0,0,0,0,1,1,1,1,1,0,0]","door_history":"[0,1,1,0,0,1,1,1,0,0,0,0,0,0,0,0,0,0,0,0,0,1,1,1,1,1,0,0]","location_rts":"[902,307,392,821,345,1296,661,632,966,758,669,682,717,717,676,747,955,1009,876,1097,781,789,613,877,652,887,688,764]","trial_type":"two-door-navigation","trial_index":11,"time_elapsed":355026,"internal_node_id":"0.0-2.0-9.0"},{"group":"dihedral group of order 12","room_assignment":["grey","yellow","orange","red","cyan","brown","pink","blue","purple","ivory","olive","green"],"door_color_assignment":["white","black"],"door_generator_assignment":[0,1],"goal":3,"start":0,"action_noise":0.15,"location_history":"[0,1,2,3]","action_history":"[0,0,0]","door_history":"[0,0,0]","location_rts":"[1088,349,379]","trial_type":"two-door-navigation","trial_index":12,"time_elapsed":363427,"internal_node_id":"0.0-2.0-10.0"},{"group":"dihedral group of order 12","room_assignment":["grey","yellow","orange","red","cyan","brown","pink","blue","purple","ivory","olive","green"],"door_color_assignment":["white","black"],"door_generator_assignment":[0,1],"goal":10,"start":3,"action_noise":0.15,"location_history":"[3,4,5,11,5,11,5,11,5,11,5,11,10]","action_history":"[0,1,1,1,0,1,1,1,1,1,1,0]","door_history":"[0,1,1,1,0,1,1,1,1,1,1,0]","location_rts":"[786,342,701,460,340,397,379,477,418,466,370,542]","trial_type":"two-door-navigation","trial_index":13,"time_elapsed":384876,"internal_node_id":"0.0-2.0-11.0"},{"group":"dihedral group of order 12","room_assignment":["grey","yellow","orange","red","cyan","brown","pink","blue","purple","ivory","olive","green"],"door_color_assignment":["white","black"],"door_generator_assignment":[0,1],"goal":8,"start":10,"action_noise":0.15,"location_history":"[10,9,3,4,5,11,10,9,8]","action_history":"[0,1,1,1,1,0,0,0]","door_history":"[0,1,1,1,1,0,0,0]","location_rts":"[621,371,298,418,547,451,338,348]","trial_type":"two-door-navigation","trial_index":14,"time_elapsed":399946,"internal_node_id":"0.0-2.0-12.0"},{"group":"dihedral group of order 12","room_assignment":["grey","yellow","orange","red","cyan","brown","pink","blue","purple","ivory","olive","green"],"door_color_assignment":["white","black"],"door_generator_assignment":[0,1],"goal":4,"start":8,"action_noise":0.15,"location_history":"[8,7,6,11,5,11,10,4]","action_history":"[0,0,0,0,1,0,1]","door_history":"[0,0,0,0,1,0,1]","location_rts":"[2338,528,603,467,364,453,325]","trial_type":"two-door-navigation","trial_index":15,"time_elapsed":415678,"internal_node_id":"0.0-2.0-13.0"},{"group":"dihedral group of order 12","room_assignment":["grey","yellow","orange","red","cyan","brown","pink","blue","purple","ivory","olive","green"],"door_color_assignment":["white","black"],"door_generator_assignment":[0,1],"goal":0,"start":4,"action_noise":0.15,"location_history":"[4,5,11,10,9,8,7,1,2,8,7,1,7,6,11,10,9,8,7,1,7,1,7,1,7,6,0]","action_history":"[0,0,0,1,1,1,1,0,0,0,1,1,1,0,0,0,0,0,1,1,1,1,1,0,0,0]","door_history":"[0,0,0,1,1,1,1,0,0,0,1,1,1,0,0,0,0,0,1,1,1,1,1,0,0,0]","location_rts":"[373,276,340,486,404,387,450,421,363,706,755,485,557,843,435,556,400,541,398,364,605,397,612,316,585,489]","trial_type":"two-door-navigation","trial_index":16,"time_elapsed":458293,"internal_node_id":"0.0-2.0-14.0"},{"group":"dihedral group of order 12","room_assignment":["grey","yellow","orange","red","cyan","brown","pink","blue","purple","ivory","olive","green"],"door_color_assignment":["white","black"],"door_generator_assignment":[0,1],"goal":11,"start":0,"action_noise":0.15,"location_history":"[0,6,11]","action_history":"[0,0]","door_history":"[0,0]","location_rts":"[292,279]","trial_type":"two-door-navigation","trial_index":17,"time_elapsed":464409,"internal_node_id":"0.0-2.0-15.0"},{"group":"dihedral group of order 12","room_assignment":["grey","yellow","orange","red","cyan","brown","pink","blue","purple","ivory","olive","green"],"door_color_assignment":["white","black"],"door_generator_assignment":[0,1],"goal":2,"start":11,"action_noise":0.15,"location_history":"[11,10,9,8,7,1,7,6,0,6,0,6,11,5,0,1,2]","action_history":"[0,0,0,0,0,0,0,1,1,1,1,0,1,0,0,1]","door_history":"[0,0,0,0,0,0,0,1,1,1,1,0,1,0,0,1]","location_rts":"[657,525,329,572,494,547,464,668,365,604,403,709,749,649,412,570]","trial_type":"two-door-navigation","trial_index":18,"time_elapsed":492973,"internal_node_id":"0.0-2.0-16.0"},{"group":"dihedral group of order 12","room_assignment":["grey","yellow","orange","red","cyan","brown","pink","blue","purple","ivory","olive","green"],"door_color_assignment":["white","black"],"door_generator_assignment":[0,1],"goal":7,"start":2,"action_noise":0.15,"location_history":"[2,3,4,5,0,6,0,6,0,6,11,10,9,3,9,8,7]","action_history":"[0,0,0,0,1,1,1,1,1,0,0,0,1,1,1,0]","door_history":"[0,0,0,0,1,1,1,1,1,0,0,0,1,1,1,0]","location_rts":"[340,317,677,459,412,389,433,428,514,373,388,716,335,501,349,348]","trial_type":"two-door-navigation","trial_index":19,"time_elapsed":519780,"internal_node_id":"0.0-2.0-17.0"},{"group":"dihedral group of order 12","room_assignment":["grey","yellow","orange","red","cyan","brown","pink","blue","purple","ivory","olive","green"],"door_color_assignment":["white","black"],"door_generator_assignment":[0,1],"goal":5,"start":7,"action_noise":0.15,"location_history":"[7,6,11,10,9,8,2,8,2,3,4,5]","action_history":"[0,0,0,0,0,1,1,1,0,0,0]","door_history":"[0,0,0,0,0,1,1,1,0,0,0]","location_rts":"[440,505,397,700,379,916,716,654,450,372,378]","trial_type":"two-door-navigation","trial_index":20,"time_elapsed":540416,"internal_node_id":"0.0-2.0-18.0"},{"group":"dihedral group of order 12","room_assignment":["grey","yellow","orange","red","cyan","brown","pink","blue","purple","ivory","olive","green"],"door_color_assignment":["white","black"],"door_generator_assignment":[0,1],"goal":6,"start":5,"action_noise":0.15,"location_history":"[5,0,6]","action_history":"[0,1]","door_history":"[0,1]","location_rts":"[453,554]","trial_type":"two-door-navigation","trial_index":21,"time_elapsed":546970,"internal_node_id":"0.0-2.0-19.0"},{"group":"dihedral group of order 12","room_assignment":["grey","yellow","orange","red","cyan","brown","pink","blue","purple","ivory","olive","green"],"door_color_assignment":["white","black"],"door_generator_assignment":[0,1],"goal":3,"start":6,"action_noise":0.15,"location_history":"[6,11,10,4,5,0,1,7,1,2,3]","action_history":"[0,0,1,1,0,0,1,1,1,1]","door_history":"[0,0,1,1,0,0,1,1,1,1]","location_rts":"[762,603,1355,1507,2638,10094,380,660,884,665]","trial_type":"two-door-navigation","trial_index":22,"time_elapsed":580227,"internal_node_id":"0.0-2.0-20.0"},{"group":"dihedral group of order 12","room_assignment":["grey","yellow","orange","red","cyan","brown","pink","blue","purple","ivory","olive","green"],"door_color_assignment":["white","black"],"door_generator_assignment":[0,1],"goal":1,"start":3,"action_noise":0.15,"location_history":"[3,9,3,9,3,4,5,11,10,9,3,9,3,9,3,9,3,9,3,4,5,0,1]","action_history":"[0,1,1,1,0,0,0,0,0,1,1,1,1,1,1,1,1,1,0,0,0,0]","door_history":"[0,1,1,1,0,0,0,0,0,1,1,1,1,1,1,1,1,1,0,0,0,0]","location_rts":"[1401,771,537,605,860,1141,1215,1002,811,800,381,763,412,575,690,686,624,356,470,414,621,791]","trial_type":"two-door-navigation","trial_index":23,"time_elapsed":622107,"internal_node_id":"0.0-2.0-21.0"},{"group":"dihedral group of order 12","room_assignment":["grey","yellow","orange","red","cyan","brown","pink","blue","purple","ivory","olive","green"],"door_color_assignment":["white","black"],"door_generator_assignment":[0,1],"goal":9,"start":1,"action_noise":0.15,"location_history":"[1,7,1,7,1,7,6,11,10,9]","action_history":"[1,1,1,1,1,0,0,0,0]","door_history":"[1,1,1,1,1,0,0,0,0]","location_rts":"[930,378,563,444,572,575,496,480,548]","trial_type":"two-door-navigation","trial_index":24,"time_elapsed":639780,"internal_node_id":"0.0-2.0-22.0"},{"group":"dihedral group of order 12","room_assignment":["grey","yellow","orange","red","cyan","brown","pink","blue","purple","ivory","olive","green"],"door_color_assignment":["white","black"],"door_generator_assignment":[0,1],"goal":3,"start":9,"action_noise":0.15,"location_history":"[9,8,7,6,0,1,7,1,2,8,2,8,2,8,2,8,2,3]","action_history":"[0,0,0,1,1,1,1,1,1,1,1,1,1,1,1,1,0]","door_history":"[0,0,0,1,1,1,1,1,1,1,1,1,1,1,1,1,0]","location_rts":"[333,290,376,756,444,432,435,419,629,435,837,1102,694,477,655,868,701]","trial_type":"two-door-navigation","trial_index":25,"time_elapsed":670513,"internal_node_id":"0.0-2.0-23.0"},{"group":"dihedral group of order 12","room_assignment":["grey","yellow","orange","red","cyan","brown","pink","blue","purple","ivory","olive","green"],"door_color_assignment":["white","black"],"door_generator_assignment":[0,1],"goal":4,"start":3,"action_noise":0.15,"location_history":"[3,4]","action_history":"[0]","door_history":"[0]","location_rts":"[2530]","trial_type":"two-door-navigation","trial_index":26,"time_elapsed":677567,"internal_node_id":"0.0-2.0-24.0"},{"group":"dihedral group of order 12","room_assignment":["grey","yellow","orange","red","cyan","brown","pink","blue","purple","ivory","olive","green"],"door_color_assignment":["white","black"],"door_generator_assignment":[0,1],"goal":2,"start":4,"action_noise":0.15,"location_history":"[4,5,11,10,4,10,4,10,4,5,0,1,2]","action_history":"[0,0,0,1,1,1,1,1,0,0,0,0]","door_history":"[0,0,0,1,1,1,1,1,0,0,0,0]","location_rts":"[639,683,764,691,363,533,570,439,533,616,608,1006]","trial_type":"two-door-navigation","trial_index":27,"time_elapsed":700750,"internal_node_id":"0.0-2.0-25.0"},{"group":"dihedral group of order 12","room_assignment":["grey","yellow","orange","red","cyan","brown","pink","blue","purple","ivory","olive","green"],"door_color_assignment":["white","black"],"door_generator_assignment":[0,1],"goal":1,"start":2,"action_noise":0.15,"location_history":"[2,3,4,5,11,5,11,10,9,3,9,8,2,3,4,10,9,8,7,6,0,1]","action_history":"[0,0,0,1,1,1,0,0,1,1,1,1,0,0,1,0,0,0,0,1,1]","door_history":"[0,0,0,1,1,1,0,0,1,1,1,1,0,0,1,0,0,0,0,1,1]","location_rts":"[617,1256,746,401,349,518,396,634,597,612,452,877,1099,830,829,1117,301,642,380,1003,550]","trial_type":"two-door-navigation","trial_index":28,"time_elapsed":739886,"internal_node_id":"0.0-2.0-26.0"},{"group":"dihedral group of order 12","room_assignment":["grey","yellow","orange","red","cyan","brown","pink","blue","purple","ivory","olive","green"],"door_color_assignment":["white","black"],"door_generator_assignment":[0,1],"goal":8,"start":1,"action_noise":0.15,"location_history":"[1,2,3,4,10,9,8]","action_history":"[0,0,0,0,0,1]","door_history":"[0,0,0,0,0,1]","location_rts":"[1074,240,364,332,338,364]","trial_type":"two-door-navigation","trial_index":29,"time_elapsed":752229,"internal_node_id":"0.0-2.0-27.0"},{"group":"dihedral group of order 12","room_assignment":["grey","yellow","orange","red","cyan","brown","pink","blue","purple","ivory","olive","green"],"door_color_assignment":["white","black"],"door_generator_assignment":[0,1],"goal":10,"start":8,"action_noise":0.15,"location_history":"[8,7,6,11,5,0,6,11,5,11,10]","action_history":"[0,0,0,0,0,1,1,1,1,1]","door_history":"[0,0,0,0,0,1,1,1,1,1]","location_rts":"[667,276,379,388,315,1092,411,475,468,483]","trial_type":"two-door-navigation","trial_index":30,"time_elapsed":770893,"internal_node_id":"0.0-2.0-28.0"},{"group":"dihedral group of order 12","room_assignment":["grey","yellow","orange","red","cyan","brown","pink","blue","purple","ivory","olive","green"],"door_color_assignment":["white","black"],"door_generator_assignment":[0,1],"goal":7,"start":10,"action_noise":0.15,"location_history":"[10,4,10,9,8,2,3,4,5,11,5,11,5,0,6,0,1,2,3,4,5,0,6,0,6,0,1,7]","action_history":"[1,1,1,1,1,0,0,0,1,1,1,1,1,1,1,0,0,0,0,0,0,1,1,1,1,0,1]","door_history":"[1,1,1,1,1,0,0,0,1,1,1,1,1,1,1,0,0,0,0,0,0,1,1,1,1,0,1]","location_rts":"[372,409,512,513,515,659,409,524,882,389,387,399,389,579,747,365,347,333,365,450,322,396,355,387,355,408,738]","trial_type":"two-door-navigation","trial_index":31,"time_elapsed":814465,"internal_node_id":"0.0-2.0-29.0"},{"group":"dihedral group of order 12","room_assignment":["grey","yellow","orange","red","cyan","brown","pink","blue","purple","ivory","olive","green"],"door_color_assignment":["white","black"],"door_generator_assignment":[0,1],"goal":6,"start":7,"action_noise":0.15,"location_history":"[7,6]","action_history":"[0]","door_history":"[0]","location_rts":"[795]","trial_type":"two-door-navigation","trial_index":32,"time_elapsed":819784,"internal_node_id":"0.0-2.0-30.0"},{"group":"dihedral group of order 12","room_assignment":["grey","yellow","orange","red","cyan","brown","pink","blue","purple","ivory","olive","green"],"door_color_assignment":["white","black"],"door_generator_assignment":[0,1],"goal":0,"start":6,"action_noise":0.15,"location_history":"[6,11,10,9,8,7,6,0]","action_history":"[0,0,0,0,0,0,1]","door_history":"[0,0,0,0,0,0,1]","location_rts":"[980,1598,468,653,402,379,1107]","trial_type":"two-door-navigation","trial_index":33,"time_elapsed":836015,"internal_node_id":"0.0-2.0-31.0"},{"group":"dihedral group of order 12","room_assignment":["grey","yellow","orange","red","cyan","brown","pink","blue","purple","ivory","olive","green"],"door_color_assignment":["white","black"],"door_generator_assignment":[0,1],"goal":11,"start":0,"action_noise":0.15,"location_history":"[0,1,7,6,11]","action_history":"[1,1,0,0]","door_history":"[1,1,0,0]","location_rts":"[1693,364,449,345]","trial_type":"two-door-navigation","trial_index":34,"time_elapsed":846452,"internal_node_id":"0.0-2.0-32.0"},{"group":"dihedral group of order 12","room_assignment":["grey","yellow","orange","red","cyan","brown","pink","blue","purple","ivory","olive","green"],"door_color_assignment":["white","black"],"door_generator_assignment":[0,1],"goal":9,"start":11,"action_noise":0.15,"location_history":"[11,5,11,5,11,10,4,10,4,5,0,6,0,1,7,1,2,3,9]","action_history":"[1,1,1,0,0,1,1,1,0,0,1,1,1,1,0,0,0,0]","door_history":"[1,1,1,0,0,1,1,1,0,0,1,1,1,1,0,0,0,0]","location_rts":"[1310,365,324,346,350,343,317,419,260,347,493,332,887,539,330,412,539,440]","trial_type":"two-door-navigation","trial_index":35,"time_elapsed":876698,"internal_node_id":"0.0-2.0-33.0"},{"group":"dihedral group of order 12","room_assignment":["grey","yellow","orange","red","cyan","brown","pink","blue","purple","ivory","olive","green"],"door_color_assignment":["white","black"],"door_generator_assignment":[0,1],"goal":5,"start":9,"action_noise":0.15,"location_history":"[9,3,9,3,9,8,7,6,0,6,0,6,11,10,4,5]","action_history":"[1,1,1,1,0,0,0,1,1,1,1,0,0,0,0]","door_history":"[1,1,1,1,0,0,0,1,1,1,1,0,0,0,0]","location_rts":"[348,355,299,347,508,317,396,443,341,396,380,436,483,548,426]","trial_type":"two-door-navigation","trial_index":36,"time_elapsed":901564,"internal_node_id":"0.0-2.0-34.0"},{"view_history":"[{\"page_index\":0,\"viewing_time\":28298}]","rt":28299,"trial_type":"instructions","trial_index":37,"time_elapsed":930864,"internal_node_id":"0.0-3.0"},{"view_history":"[{\"page_index\":0,\"viewing_time\":6239},{\"page_index\":1,\"viewing_time\":38707}]","rt":44947,"trial_type":"instructions","trial_index":38,"time_elapsed":976812,"internal_node_id":"0.0-4.0"},{"group":"dihedral group of order 12","fractal_assignment":["../images/org_blu.png","../images/grn_blu.png","../images/ylw_slt.png","../images/red_prp.png","../images/gry_blk.png","../images/grn_prp.png","../images/blu_wht.png","../images/wht_red.png","../images/grn_red.png","../images/ylw_pnk.png","../images/cyn_red.png","../images/pnk_blu.png"],"mutagen_generator_assignment":[1,0],"goal":7,"start":11,"action_noise":0.15,"location_history":"[11,5,0,1,7]","action_history":"[1,0,0,1]","mutagen_history":"[0,1,1,0]","location_rts":"[2720,634,485,643]","trial_type":"fractal-mutation","trial_index":39,"time_elapsed":989240,"internal_node_id":"0.0-5.0-0.0"},{"group":"dihedral group of order 12","fractal_assignment":["../images/org_blu.png","../images/grn_blu.png","../images/ylw_slt.png","../images/red_prp.png","../images/gry_blk.png","../images/grn_prp.png","../images/blu_wht.png","../images/wht_red.png","../images/grn_red.png","../images/ylw_pnk.png","../images/cyn_red.png","../images/pnk_blu.png"],"mutagen_generator_assignment":[1,0],"goal":8,"start":7,"action_noise":0.15,"location_history":"[7,1,7,1,7,6,0,1,2,3,4,5,11,10,4,5,0,1,2,3,9,3,4,10,9,8]","action_history":"[1,1,1,1,0,1,0,0,0,0,0,1,0,1,0,0,0,0,0,1,0,0,1,0,0]","mutagen_history":"[0,0,0,0,1,0,1,1,1,1,1,0,1,0,1,1,1,1,1,0,1,1,0,1,1]","location_rts":"[541,376,369,506,599,500,510,435,449,466,622,721,416,513,429,475,492,476,475,504,418,663,430,334,405]","trial_type":"fractal-mutation","trial_index":40,"time_elapsed":1032472,"internal_node_id":"0.0-5.0-1.0"},{"group":"dihedral group of order 12","fractal_assignment":["../images/org_blu.png","../images/grn_blu.png","../images/ylw_slt.png","../images/red_prp.png","../images/gry_blk.png","../images/grn_prp.png","../images/blu_wht.png","../images/wht_red.png","../images/grn_red.png","../images/ylw_pnk.png","../images/cyn_red.png","../images/pnk_blu.png"],"mutagen_generator_assignment":[1,0],"goal":4,"start":8,"action_noise":0.15,"location_history":"[8,7,1,2,3,4]","action_history":"[0,0,0,0,0]","mutagen_history":"[1,1,1,1,1]","location_rts":"[819,357,398,362,422]","trial_type":"fractal-mutation","trial_index":41,"time_elapsed":1043990,"internal_node_id":"0.0-5.0-2.0"},{"group":"dihedral group of order 12","fractal_assignment":["../images/org_blu.png","../images/grn_blu.png","../images/ylw_slt.png","../images/red_prp.png","../images/gry_blk.png","../images/grn_prp.png","../images/blu_wht.png","../images/wht_red.png","../images/grn_red.png","../images/ylw_pnk.png","../images/cyn_red.png","../images/pnk_blu.png"],"mutagen_generator_assignment":[1,0],"goal":5,"start":4,"action_noise":0.15,"location_history":"[4,5]","action_history":"[0]","mutagen_history":"[1]","location_rts":"[645]","trial_type":"fractal-mutation","trial_index":42,"time_elapsed":1049271,"internal_node_id":"0.0-5.0-3.0"},{"group":"dihedral group of order 12","fractal_assignment":["../images/org_blu.png","../images/grn_blu.png","../images/ylw_slt.png","../images/red_prp.png","../images/gry_blk.png","../images/grn_prp.png","../images/blu_wht.png","../images/wht_red.png","../images/grn_red.png","../images/ylw_pnk.png","../images/cyn_red.png","../images/pnk_blu.png"],"mutagen_generator_assignment":[1,0],"goal":10,"start":5,"action_noise":0.15,"location_history":"[5,0,6,11,10]","action_history":"[1,1,0,0]","mutagen_history":"[0,0,1,1]","location_rts":"[1132,530,707,414]","trial_type":"fractal-mutation","trial_index":43,"time_elapsed":1059877,"internal_node_id":"0.0-5.0-4.0"},{"group":"dihedral group of order 12","fractal_assignment":["../images/org_blu.png","../images/grn_blu.png","../images/ylw_slt.png","../images/red_prp.png","../images/gry_blk.png","../images/grn_prp.png","../images/blu_wht.png","../images/wht_red.png","../images/grn_red.png","../images/ylw_pnk.png","../images/cyn_red.png","../images/pnk_blu.png"],"mutagen_generator_assignment":[1,0],"goal":1,"start":10,"action_noise":0.15,"location_history":"[10,4,10,4,5,11,10,9,8,7,1]","action_history":"[1,1,1,0,1,1,0,0,0,1]","mutagen_history":"[0,0,0,1,0,0,1,1,1,0]","location_rts":"[702,794,516,457,581,425,477,391,1145,466]","trial_type":"fractal-mutation","trial_index":44,"time_elapsed":1080137,"internal_node_id":"0.0-5.0-5.0"},{"group":"dihedral group of order 12","fractal_assignment":["../images/org_blu.png","../images/grn_blu.png","../images/ylw_slt.png","../images/red_prp.png","../images/gry_blk.png","../images/grn_prp.png","../images/blu_wht.png","../images/wht_red.png","../images/grn_red.png","../images/ylw_pnk.png","../images/cyn_red.png","../images/pnk_blu.png"],"mutagen_generator_assignment":[1,0],"goal":6,"start":1,"action_noise":0.15,"location_history":"[1,2,3,4,10,9,8,7,6]","action_history":"[0,0,0,0,1,0,0,0]","mutagen_history":"[1,1,1,1,0,1,1,1]","location_rts":"[1034,500,415,2061,813,531,477,416]","trial_type":"fractal-mutation","trial_index":45,"time_elapsed":1098875,"internal_node_id":"0.0-5.0-6.0"},{"group":"dihedral group of order 12","fractal_assignment":["../images/org_blu.png","../images/grn_blu.png","../images/ylw_slt.png","../images/red_prp.png","../images/gry_blk.png","../images/grn_prp.png","../images/blu_wht.png","../images/wht_red.png","../images/grn_red.png","../images/ylw_pnk.png","../images/cyn_red.png","../images/pnk_blu.png"],"mutagen_generator_assignment":[1,0],"goal":9,"start":6,"action_noise":0.15,"location_history":"[6,0,1,2,8,7,6,11,5,11,5,11,10,9]","action_history":"[0,0,0,1,0,0,0,1,1,1,0,0,0]","mutagen_history":"[1,1,1,0,1,1,1,0,0,0,1,1,1]","location_rts":"[990,484,401,764,668,451,458,530,396,542,521,498,424]","trial_type":"fractal-mutation","trial_index":46,"time_elapsed":1123962,"internal_node_id":"0.0-5.0-7.0"},{"group":"dihedral group of order 12","fractal_assignment":["../images/org_blu.png","../images/grn_blu.png","../images/ylw_slt.png","../images/red_prp.png","../images/gry_blk.png","../images/grn_prp.png","../images/blu_wht.png","../images/wht_red.png","../images/grn_red.png","../images/ylw_pnk.png","../images/cyn_red.png","../images/pnk_blu.png"],"mutagen_generator_assignment":[1,0],"goal":2,"start":9,"action_noise":0.15,"location_history":"[9,3,9,8,7,1,2]","action_history":"[1,1,0,0,0,0]","mutagen_history":"[0,0,1,1,1,1]","location_rts":"[793,507,818,671,592,1016]","trial_type":"fractal-mutation","trial_index":47,"time_elapsed":1138458,"internal_node_id":"0.0-5.0-8.0"},{"group":"dihedral group of order 12","fractal_assignment":["../images/org_blu.png","../images/grn_blu.png","../images/ylw_slt.png","../images/red_prp.png","../images/gry_blk.png","../images/grn_prp.png","../images/blu_wht.png","../images/wht_red.png","../images/grn_red.png","../images/ylw_pnk.png","../images/cyn_red.png","../images/pnk_blu.png"],"mutagen_generator_assignment":[1,0],"goal":0,"start":2,"action_noise":0.15,"location_history":"[2,3,4,5,11,5,0]","action_history":"[0,0,0,1,1,0]","mutagen_history":"[1,1,1,0,0,1]","location_rts":"[976,455,398,519,456,440]","trial_type":"fractal-mutation","trial_index":48,"time_elapsed":1151912,"internal_node_id":"0.0-5.0-9.0"},{"group":"dihedral group of order 12","fractal_assignment":["../images/org_blu.png","../images/grn_blu.png","../images/ylw_slt.png","../images/red_prp.png","../images/gry_blk.png","../images/grn_prp.png","../images/blu_wht.png","../images/wht_red.png","../images/grn_red.png","../images/ylw_pnk.png","../images/cyn_red.png","../images/pnk_blu.png"],"mutagen_generator_assignment":[1,0],"goal":3,"start":0,"action_noise":0.15,"location_history":"[0,1,2,3]","action_history":"[0,0,0]","mutagen_history":"[1,1,1]","location_rts":"[897,374,389]","trial_type":"fractal-mutation","trial_index":49,"time_elapsed":1160448,"internal_node_id":"0.0-5.0-10.0"},{"group":"dihedral group of order 12","fractal_assignment":["../images/org_blu.png","../images/grn_blu.png","../images/ylw_slt.png","../images/red_prp.png","../images/gry_blk.png","../images/grn_prp.png","../images/blu_wht.png","../images/wht_red.png","../images/grn_red.png","../images/ylw_pnk.png","../images/cyn_red.png","../images/pnk_blu.png"],"mutagen_generator_assignment":[1,0],"goal":10,"start":3,"action_noise":0.15,"location_history":"[3,9,3,9,8,7,6,0,1,2,3,4,10]","action_history":"[1,1,1,0,0,0,0,0,0,0,0,1]","mutagen_history":"[0,0,0,1,1,1,1,1,1,1,1,0]","location_rts":"[392,426,499,496,462,352,368,595,517,419,527,477]","trial_type":"fractal-mutation","trial_index":50,"time_elapsed":1182729,"internal_node_id":"0.0-5.0-11.0"},{"group":"dihedral group of order 12","fractal_assignment":["../images/org_blu.png","../images/grn_blu.png","../images/ylw_slt.png","../images/red_prp.png","../images/gry_blk.png","../images/grn_prp.png","../images/blu_wht.png","../images/wht_red.png","../images/grn_red.png","../images/ylw_pnk.png","../images/cyn_red.png","../images/pnk_blu.png"],"mutagen_generator_assignment":[1,0],"goal":8,"start":10,"action_noise":0.15,"location_history":"[10,9,3,4,5,11,5,0,1,7,1,7,6,0,1,2,8]","action_history":"[0,0,0,0,1,1,0,0,1,1,0,0,0,0,0,1]","mutagen_history":"[1,1,1,1,0,0,1,1,0,0,1,1,1,1,1,0]","location_rts":"[825,430,295,412,393,428,471,574,387,434,556,485,494,562,440,414]","trial_type":"fractal-mutation","trial_index":51,"time_elapsed":1211651,"internal_node_id":"0.0-5.0-12.0"},{"group":"dihedral group of order 12","fractal_assignment":["../images/org_blu.png","../images/grn_blu.png","../images/ylw_slt.png","../images/red_prp.png","../images/gry_blk.png","../images/grn_prp.png","../images/blu_wht.png","../images/wht_red.png","../images/grn_red.png","../images/ylw_pnk.png","../images/cyn_red.png","../images/pnk_blu.png"],"mutagen_generator_assignment":[1,0],"goal":4,"start":8,"action_noise":0.15,"location_history":"[8,7,6,11,10,4]","action_history":"[0,0,0,0,1]","mutagen_history":"[1,1,1,1,0]","location_rts":"[4597,559,400,424,351]","trial_type":"fractal-mutation","trial_index":52,"time_elapsed":1227057,"internal_node_id":"0.0-5.0-13.0"},{"group":"dihedral group of order 12","fractal_assignment":["../images/org_blu.png","../images/grn_blu.png","../images/ylw_slt.png","../images/red_prp.png","../images/gry_blk.png","../images/grn_prp.png","../images/blu_wht.png","../images/wht_red.png","../images/grn_red.png","../images/ylw_pnk.png","../images/cyn_red.png","../images/pnk_blu.png"],"mutagen_generator_assignment":[1,0],"goal":0,"start":4,"action_noise":0.15,"location_history":"[4,5,11,5,11,10,9,3,4,10,4,10,9,8,7,6,11,5,0]","action_history":"[0,0,0,1,0,0,1,0,1,1,0,0,0,0,0,0,0,0]","mutagen_history":"[1,1,1,0,1,1,0,1,0,0,1,1,1,1,1,1,1,1]","location_rts":"[633,286,343,300,292,310,427,998,643,2012,809,645,766,611,645,805,759,809]","trial_type":"fractal-mutation","trial_index":53,"time_elapsed":1262783,"internal_node_id":"0.0-5.0-14.0"},{"group":"dihedral group of order 12","fractal_assignment":["../images/org_blu.png","../images/grn_blu.png","../images/ylw_slt.png","../images/red_prp.png","../images/gry_blk.png","../images/grn_prp.png","../images/blu_wht.png","../images/wht_red.png","../images/grn_red.png","../images/ylw_pnk.png","../images/cyn_red.png","../images/pnk_blu.png"],"mutagen_generator_assignment":[1,0],"goal":11,"start":0,"action_noise":0.15,"location_history":"[0,6,11]","action_history":"[0,0]","mutagen_history":"[1,1]","location_rts":"[2634,431]","trial_type":"fractal-mutation","trial_index":54,"time_elapsed":1271592,"internal_node_id":"0.0-5.0-15.0"},{"group":"dihedral group of order 12","fractal_assignment":["../images/org_blu.png","../images/grn_blu.png","../images/ylw_slt.png","../images/red_prp.png","../images/gry_blk.png","../images/grn_prp.png","../images/blu_wht.png","../images/wht_red.png","../images/grn_red.png","../images/ylw_pnk.png","../images/cyn_red.png","../images/pnk_blu.png"],"mutagen_generator_assignment":[1,0],"goal":2,"start":11,"action_noise":0.15,"location_history":"[11,10,9,8,7,1,2]","action_history":"[0,0,0,0,0,0]","mutagen_history":"[1,1,1,1,1,1]","location_rts":"[760,517,597,351,551,858]","trial_type":"fractal-mutation","trial_index":55,"time_elapsed":1285510,"internal_node_id":"0.0-5.0-16.0"},{"group":"dihedral group of order 12","fractal_assignment":["../images/org_blu.png","../images/grn_blu.png","../images/ylw_slt.png","../images/red_prp.png","../images/gry_blk.png","../images/grn_prp.png","../images/blu_wht.png","../images/wht_red.png","../images/grn_red.png","../images/ylw_pnk.png","../images/cyn_red.png","../images/pnk_blu.png"],"mutagen_generator_assignment":[1,0],"goal":7,"start":2,"action_noise":0.15,"location_history":"[2,8,2,3,9,8,2,3,9,3,9,3,9,3,9,8,7]","action_history":"[0,0,0,0,0,0,0,1,1,1,1,1,1,1,0,0]","mutagen_history":"[1,1,1,1,1,1,1,0,0,0,0,0,0,0,1,1]","location_rts":"[636,508,323,460,437,481,511,400,347,563,401,557,618,986,454,599]","trial_type":"fractal-mutation","trial_index":56,"time_elapsed":1315008,"internal_node_id":"0.0-5.0-17.0"},{"group":"dihedral group of order 12","fractal_assignment":["../images/org_blu.png","../images/grn_blu.png","../images/ylw_slt.png","../images/red_prp.png","../images/gry_blk.png","../images/grn_prp.png","../images/blu_wht.png","../images/wht_red.png","../images/grn_red.png","../images/ylw_pnk.png","../images/cyn_red.png","../images/pnk_blu.png"],"mutagen_generator_assignment":[1,0],"goal":5,"start":7,"action_noise":0.15,"location_history":"[7,1,7,6,0,1,2,8,7,6,11,10,4,10,4,10,9,8,7,6,0,6,0,1,2,3,4,10,4,10,9,3,4,5]","action_history":"[1,1,1,1,0,0,0,0,0,0,0,1,1,1,0,0,0,0,0,1,1,1,0,0,0,0,1,1,1,0,0,0,0]","mutagen_history":"[0,0,0,0,1,1,1,1,1,1,1,0,0,0,1,1,1,1,1,0,0,0,1,1,1,1,0,0,0,1,1,1,1]","location_rts":"[880,801,379,470,666,487,430,533,393,409,507,542,402,803,684,420,407,668,432,663,364,419,738,457,476,444,459,448,507,481,414,543,536]","trial_type":"fractal-mutation","trial_index":57,"time_elapsed":1372130,"internal_node_id":"0.0-5.0-18.0"},{"group":"dihedral group of order 12","fractal_assignment":["../images/org_blu.png","../images/grn_blu.png","../images/ylw_slt.png","../images/red_prp.png","../images/gry_blk.png","../images/grn_prp.png","../images/blu_wht.png","../images/wht_red.png","../images/grn_red.png","../images/ylw_pnk.png","../images/cyn_red.png","../images/pnk_blu.png"],"mutagen_generator_assignment":[1,0],"goal":6,"start":5,"action_noise":0.15,"location_history":"[5,0,1,2,3,4,10,4,10,4,5,0,6]","action_history":"[0,0,0,0,0,0,1,1,1,1,0,0]","mutagen_history":"[1,1,1,1,1,1,0,0,0,0,1,1]","location_rts":"[1511,358,389,411,405,482,426,509,342,561,404,430]","trial_type":"fractal-mutation","trial_index":58,"time_elapsed":1395192,"internal_node_id":"0.0-5.0-19.0"},{"group":"dihedral group of order 12","fractal_assignment":["../images/org_blu.png","../images/grn_blu.png","../images/ylw_slt.png","../images/red_prp.png","../images/gry_blk.png","../images/grn_prp.png","../images/blu_wht.png","../images/wht_red.png","../images/grn_red.png","../images/ylw_pnk.png","../images/cyn_red.png","../images/pnk_blu.png"],"mutagen_generator_assignment":[1,0],"goal":3,"start":6,"action_noise":0.15,"location_history":"[6,11,10,9,8,7,6,11,10,9,8,7,1,7,1,7,1,2,3]","action_history":"[0,0,0,0,0,1,0,0,0,0,0,0,0,1,1,1,0,0]","mutagen_history":"[1,1,1,1,1,0,1,1,1,1,1,1,1,0,0,0,1,1]","location_rts":"[1096,592,1074,515,371,1017,369,395,472,367,1717,503,640,661,365,428,749,805]","trial_type":"fractal-mutation","trial_index":59,"time_elapsed":1430964,"internal_node_id":"0.0-5.0-20.0"},{"group":"dihedral group of order 12","fractal_assignment":["../images/org_blu.png","../images/grn_blu.png","../images/ylw_slt.png","../images/red_prp.png","../images/gry_blk.png","../images/grn_prp.png","../images/blu_wht.png","../images/wht_red.png","../images/grn_red.png","../images/ylw_pnk.png","../images/cyn_red.png","../images/pnk_blu.png"],"mutagen_generator_assignment":[1,0],"goal":1,"start":3,"action_noise":0.15,"location_history":"[3,4,5,11,10,9,8,7,6,0,1]","action_history":"[0,0,0,0,0,0,0,0,1,0]","mutagen_history":"[1,1,1,1,1,1,1,1,0,1]","location_rts":"[692,363,444,414,381,401,401,389,643,449]","trial_type":"fractal-mutation","trial_index":60,"time_elapsed":1450283,"internal_node_id":"0.0-5.0-21.0"},{"group":"dihedral group of order 12","fractal_assignment":["../images/org_blu.png","../images/grn_blu.png","../images/ylw_slt.png","../images/red_prp.png","../images/gry_blk.png","../images/grn_prp.png","../images/blu_wht.png","../images/wht_red.png","../images/grn_red.png","../images/ylw_pnk.png","../images/cyn_red.png","../images/pnk_blu.png"],"mutagen_generator_assignment":[1,0],"goal":9,"start":1,"action_noise":0.15,"location_history":"[1,7,1,7,6,11,5,0,1,7,6,0,1,7,6,11,10,9]","action_history":"[1,1,1,0,0,1,0,0,1,0,1,0,0,0,0,0,0]","mutagen_history":"[0,0,0,1,1,0,1,1,0,1,0,1,1,1,1,1,1]","location_rts":"[548,360,442,722,536,450,512,445,414,460,411,489,372,480,410,373,406]","trial_type":"fractal-mutation","trial_index":61,"time_elapsed":1480323,"internal_node_id":"0.0-5.0-22.0"},{"group":"dihedral group of order 12","fractal_assignment":["../images/org_blu.png","../images/grn_blu.png","../images/ylw_slt.png","../images/red_prp.png","../images/gry_blk.png","../images/grn_prp.png","../images/blu_wht.png","../images/wht_red.png","../images/grn_red.png","../images/ylw_pnk.png","../images/cyn_red.png","../images/pnk_blu.png"],"mutagen_generator_assignment":[1,0],"goal":3,"start":9,"action_noise":0.15,"location_history":"[9,3]","action_history":"[1]","mutagen_history":"[0]","location_rts":"[46805]","trial_type":"fractal-mutation","trial_index":62,"time_elapsed":1531653,"internal_node_id":"0.0-5.0-23.0"},{"group":"dihedral group of order 12","fractal_assignment":["../images/org_blu.png","../images/grn_blu.png","../images/ylw_slt.png","../images/red_prp.png","../images/gry_blk.png","../images/grn_prp.png","../images/blu_wht.png","../images/wht_red.png","../images/grn_red.png","../images/ylw_pnk.png","../images/cyn_red.png","../images/pnk_blu.png"],"mutagen_generator_assignment":[1,0],"goal":4,"start":3,"action_noise":0.15,"location_history":"[3,4]","action_history":"[0]","mutagen_history":"[1]","location_rts":"[850]","trial_type":"fractal-mutation","trial_index":63,"time_elapsed":1537122,"internal_node_id":"0.0-5.0-24.0"},{"group":"dihedral group of order 12","fractal_assignment":["../images/org_blu.png","../images/grn_blu.png","../images/ylw_slt.png","../images/red_prp.png","../images/gry_blk.png","../images/grn_prp.png","../images/blu_wht.png","../images/wht_red.png","../images/grn_red.png","../images/ylw_pnk.png","../images/cyn_red.png","../images/pnk_blu.png"],"mutagen_generator_assignment":[1,0],"goal":2,"start":4,"action_noise":0.15,"location_history":"[4,10,9,8,7,1,2]","action_history":"[0,0,0,1,1,0]","mutagen_history":"[1,1,1,0,0,1]","location_rts":"[887,636,530,366,693,465]","trial_type":"fractal-mutation","trial_index":64,"time_elapsed":1550887,"internal_node_id":"0.0-5.0-25.0"},{"group":"dihedral group of order 12","fractal_assignment":["../images/org_blu.png","../images/grn_blu.png","../images/ylw_slt.png","../images/red_prp.png","../images/gry_blk.png","../images/grn_prp.png","../images/blu_wht.png","../images/wht_red.png","../images/grn_red.png","../images/ylw_pnk.png","../images/cyn_red.png","../images/pnk_blu.png"],"mutagen_generator_assignment":[1,0],"goal":1,"start":2,"action_noise":0.15,"location_history":"[2,3,4,10,9,8,2,3,4,10,9,8,7,6,11,5,0,1]","action_history":"[0,0,0,0,0,0,0,1,1,0,0,0,0,1,1,0,0]","mutagen_history":"[1,1,1,1,1,1,1,0,0,1,1,1,1,0,0,1,1]","location_rts":"[601,398,428,687,471,593,774,393,524,441,459,397,455,456,545,790,513]","trial_type":"fractal-mutation","trial_index":65,"time_elapsed":1582331,"internal_node_id":"0.0-5.0-26.0"},{"group":"dihedral group of order 12","fractal_assignment":["../images/org_blu.png","../images/grn_blu.png","../images/ylw_slt.png","../images/red_prp.png","../images/gry_blk.png","../images/grn_prp.png","../images/blu_wht.png","../images/wht_red.png","../images/grn_red.png","../images/ylw_pnk.png","../images/cyn_red.png","../images/pnk_blu.png"],"mutagen_generator_assignment":[1,0],"goal":8,"start":1,"action_noise":0.15,"location_history":"[1,2,3,4,5,0,1,2,3,4,5,11,5,11,10,9,8]","action_history":"[1,0,0,0,0,0,0,0,0,0,1,1,0,0,0,0]","mutagen_history":"[0,1,1,1,1,1,1,1,1,1,0,0,1,1,1,1]","location_rts":"[1892,426,517,504,624,688,448,582,480,451,709,415,666,382,454,650]","trial_type":"fractal-mutation","trial_index":66,"time_elapsed":1613632,"internal_node_id":"0.0-5.0-27.0"},{"group":"dihedral group of order 12","fractal_assignment":["../images/org_blu.png","../images/grn_blu.png","../images/ylw_slt.png","../images/red_prp.png","../images/gry_blk.png","../images/grn_prp.png","../images/blu_wht.png","../images/wht_red.png","../images/grn_red.png","../images/ylw_pnk.png","../images/cyn_red.png","../images/pnk_blu.png"],"mutagen_generator_assignment":[1,0],"goal":10,"start":8,"action_noise":0.15,"location_history":"[8,7,6,0,1,2,3,9,8,7,6,0,6,11,5,0,1,2,3,4,10]","action_history":"[0,0,1,1,0,0,1,0,0,1,1,1,1,1,0,0,0,0,0,1]","mutagen_history":"[1,1,0,0,1,1,0,1,1,0,0,0,0,0,1,1,1,1,1,0]","location_rts":"[719,338,367,593,445,737,472,399,366,417,369,458,454,744,445,497,386,489,697,504]","trial_type":"fractal-mutation","trial_index":67,"time_elapsed":1649143,"internal_node_id":"0.0-5.0-28.0"},{"group":"dihedral group of order 12","fractal_assignment":["../images/org_blu.png","../images/grn_blu.png","../images/ylw_slt.png","../images/red_prp.png","../images/gry_blk.png","../images/grn_prp.png","../images/blu_wht.png","../images/wht_red.png","../images/grn_red.png","../images/ylw_pnk.png","../images/cyn_red.png","../images/pnk_blu.png"],"mutagen_generator_assignment":[1,0],"goal":7,"start":10,"action_noise":0.15,"location_history":"[10,9,3,4,5,0,6,11,10,9,3,4,10,4,10,4,5,0,1,7]","action_history":"[1,1,0,0,1,1,0,0,0,0,0,1,1,1,1,0,0,0,1]","mutagen_history":"[0,0,1,1,0,0,1,1,1,1,1,0,0,0,0,1,1,1,0]","location_rts":"[3488,419,306,416,564,466,451,411,543,498,623,585,492,413,353,454,398,894,351]","trial_type":"fractal-mutation","trial_index":68,"time_elapsed":1685658,"internal_node_id":"0.0-5.0-29.0"},{"group":"dihedral group of order 12","fractal_assignment":["../images/org_blu.png","../images/grn_blu.png","../images/ylw_slt.png","../images/red_prp.png","../images/gry_blk.png","../images/grn_prp.png","../images/blu_wht.png","../images/wht_red.png","../images/grn_red.png","../images/ylw_pnk.png","../images/cyn_red.png","../images/pnk_blu.png"],"mutagen_generator_assignment":[1,0],"goal":6,"start":7,"action_noise":0.15,"location_history":"[7,1,7,6]","action_history":"[1,0,0]","mutagen_history":"[0,1,1]","location_rts":"[668,290,369]","trial_type":"fractal-mutation","trial_index":69,"time_elapsed":1693752,"internal_node_id":"0.0-5.0-30.0"},{"group":"dihedral group of order 12","fractal_assignment":["../images/org_blu.png","../images/grn_blu.png","../images/ylw_slt.png","../images/red_prp.png","../images/gry_blk.png","../images/grn_prp.png","../images/blu_wht.png","../images/wht_red.png","../images/grn_red.png","../images/ylw_pnk.png","../images/cyn_red.png","../images/pnk_blu.png"],"mutagen_generator_assignment":[1,0],"goal":0,"start":6,"action_noise":0.15,"location_history":"[6,11,10,9,8,7,1,7,6,11,10,4,10,9,8,7,6,0]","action_history":"[0,0,0,0,0,1,1,0,0,0,0,1,0,0,0,0,1]","mutagen_history":"[1,1,1,1,1,0,0,1,1,1,1,0,1,1,1,1,0]","location_rts":"[661,7258,504,559,461,547,474,601,366,404,488,760,480,425,446,494,407]","trial_type":"fractal-mutation","trial_index":70,"time_elapsed":1731673,"internal_node_id":"0.0-5.0-31.0"},{"group":"dihedral group of order 12","fractal_assignment":["../images/org_blu.png","../images/grn_blu.png","../images/ylw_slt.png","../images/red_prp.png","../images/gry_blk.png","../images/grn_prp.png","../images/blu_wht.png","../images/wht_red.png","../images/grn_red.png","../images/ylw_pnk.png","../images/cyn_red.png","../images/pnk_blu.png"],"mutagen_generator_assignment":[1,0],"goal":11,"start":0,"action_noise":0.15,"location_history":"[0,1,2,3,9,8,7,6,0,6,11]","action_history":"[0,0,0,0,0,0,0,1,1,0]","mutagen_history":"[1,1,1,1,1,1,1,0,0,1]","location_rts":"[469,414,440,350,409,394,530,426,353,628]","trial_type":"fractal-mutation","trial_index":71,"time_elapsed":1750901,"internal_node_id":"0.0-5.0-32.0"},{"group":"dihedral group of order 12","fractal_assignment":["../images/org_blu.png","../images/grn_blu.png","../images/ylw_slt.png","../images/red_prp.png","../images/gry_blk.png","../images/grn_prp.png","../images/blu_wht.png","../images/wht_red.png","../images/grn_red.png","../images/ylw_pnk.png","../images/cyn_red.png","../images/pnk_blu.png"],"mutagen_generator_assignment":[1,0],"goal":9,"start":11,"action_noise":0.15,"location_history":"[11,10,9]","action_history":"[0,0]","mutagen_history":"[1,1]","location_rts":"[641,436]","trial_type":"fractal-mutation","trial_index":72,"time_elapsed":1757748,"internal_node_id":"0.0-5.0-33.0"},{"group":"dihedral group of order 12","fractal_assignment":["../images/org_blu.png","../images/grn_blu.png","../images/ylw_slt.png","../images/red_prp.png","../images/gry_blk.png","../images/grn_prp.png","../images/blu_wht.png","../images/wht_red.png","../images/grn_red.png","../images/ylw_pnk.png","../images/cyn_red.png","../images/pnk_blu.png"],"mutagen_generator_assignment":[1,0],"goal":5,"start":9,"action_noise":0.15,"location_history":"[9,8,7,6,11,10,4,10,4,5]","action_history":"[0,0,0,0,0,0,1,1,0]","mutagen_history":"[1,1,1,1,1,1,0,0,1]","location_rts":"[490,522,1903,623,803,501,489,483,482]","trial_type":"fractal-mutation","trial_index":73,"time_elapsed":1777656,"internal_node_id":"0.0-5.0-34.0"},{"view_history":"[{\"page_index\":0,\"viewing_time\":10101}]","rt":10101,"trial_type":"instructions","trial_index":74,"time_elapsed":1788758,"internal_node_id":"0.0-6.0"},{"rt":10123,"responses":"{\"Q0\":\"No\"}","trial_type":"survey-text","trial_index":75,"time_elapsed":1799886,"internal_node_id":"0.0-7.0"}]