[{"view_history":"[{\"page_index\":0,\"viewing_time\":1390313},{\"page_index\":1,\"viewing_time\":15815}]","rt":1406130,"trial_type":"instructions","trial_index":0,"time_elapsed":1406132,"internal_node_id":"0.0-0.0"},{"view_history":"[{\"page_index\":0,\"viewing_time\":2175},{\"page_index\":1,\"viewing_time\":23510}]","rt":25686,"trial_type":"instructions","trial_index":1,"time_elapsed":1432821,"internal_node_id":"0.0-1.0"},{"group":"dihedral group of order 12","room_assignment":["orange","green","red","olive","pink","cyan","yellow","purple","blue","brown","grey","ivory"],"door_color_assignment":["white","black"],"door_generator_assignment":[1,0],"goal":7,"start":11,"action_noise":0.15,"location_history":"[11,10,9,8,7]","action_history":"[1,0,0,0]","door_history":"[0,1,1,1]","location_rts":"[57582,2176,963,534]","trial_type":"two-door-navigation","trial_index":2,"time_elapsed":1501698,"internal_node_id":"0.0-2.0-0.0"},{"group":"dihedral group of order 12","room_assignment":["orange","green","red","olive","pink","cyan","yellow","purple","blue","brown","grey","ivory"],"door_color_assignment":["white","black"],"door_generator_assignment":[1,0],"goal":8,"start":7,"action_noise":0.15,"location_history":"[7,1,7,6,11,10,9,8]","action_history":"[1,0,0,0,0,1,0]","door_history":"[0,1,1,1,1,0,1]","location_rts":"[6048,776,432,618,971,1200,1086]","trial_type":"two-door-navigation","trial_index":3,"time_elapsed":1523499,"internal_node_id":"0.0-2.0-1.0"},{"group":"dihedral group of order 12","room_assignment":["orange","green","red","olive","pink","cyan","yellow","purple","blue","brown","grey","ivory"],"door_color_assignment":["white","black"],"door_generator_assignment":[1,0],"goal":4,"start":8,"action_noise":0.15,"location_history":"[8,2,8,7,1,2,3,4]","action_history":"[1,1,0,0,0,0,0]","door_history":"[0,0,1,1,1,1,1]","location_rts":"[5167,797,524,470,386,552,665]","trial_type":"two-door-navigation","trial_index":4,"time_elapsed":1542740,"internal_node_id":"0.0-2.0-2.0"},{"group":"dihedral group of order 12","room_assignment":["orange","green","red","olive","pink","cyan","yellow","purple","blue","brown","grey","ivory"],"door_color_assignment":["white","black"],"door_generator_assignment":[1,0],"goal":5,"start":4,"action_noise":0.15,"location_history":"[4,10,4,10,9,8,7,6,11,10,4,5]","action_history":"[1,1,1,0,0,0,0,0,0,1,0]","door_history":"[0,0,0,1,1,1,1,1,1,0,1]","location_rts":"[2313,1399,420,592,339,380,341,449,553,943,373]","trial_type":"two-door-navigation","trial_index":5,"time_elapsed":1565601,"internal_node_id":"0.0-2.0-3.0"},{"group":"dihedral group of order 12","room_assignment":["orange","green","red","olive","pink","cyan","yellow","purple","blue","brown","grey","ivory"],"door_color_assignment":["white","black"],"door_generator_assignment":[1,0],"goal":10,"start":5,"action_noise":0.15,"location_history":"[5,0,6,0,6,0,1,2,8,2,3,4,5,0,1,7,1,2,8,7,6,11,10]","action_history":"[0,1,1,1,1,0,0,0,0,0,0,0,0,0,1,1,1,1,0,0,0,0]","door_history":"[1,0,0,0,0,1,1,1,1,1,1,1,1,1,0,0,0,0,1,1,1,1]","location_rts":"[1390,255,426,409,789,586,620,448,392,320,407,380,302,370,406,573,456,400,293,291,773,305]","trial_type":"two-door-navigation","trial_index":6,"time_elapsed":1602249,"internal_node_id":"0.0-2.0-4.0"},{"group":"dihedral group of order 12","room_assignment":["orange","green","red","olive","pink","cyan","yellow","purple","blue","brown","grey","ivory"],"door_color_assignment":["white","black"],"door_generator_assignment":[1,0],"goal":1,"start":10,"action_noise":0.15,"location_history":"[10,4,10,4,5,0,1]","action_history":"[1,1,0,0,0,0]","door_history":"[0,0,1,1,1,1]","location_rts":"[2308,750,803,669,1180,729]","trial_type":"two-door-navigation","trial_index":7,"time_elapsed":1618324,"internal_node_id":"0.0-2.0-5.0"},{"group":"dihedral group of order 12","room_assignment":["orange","green","red","olive","pink","cyan","yellow","purple","blue","brown","grey","ivory"],"door_color_assignment":["white","black"],"door_generator_assignment":[1,0],"goal":6,"start":1,"action_noise":0.15,"location_history":"[1,7,1,7,1,2,8,2,3,4,5,0,1,2,3,9,3,9,8,7,1,7,6]","action_history":"[1,1,1,1,1,1,1,0,0,0,0,0,0,0,0,0,0,1,1,1,1,0]","door_history":"[0,0,0,0,0,0,0,1,1,1,1,1,1,1,1,1,1,0,0,0,0,1]","location_rts":"[2027,465,637,673,1669,698,720,359,297,68,4091,2019,1790,5036,706,699,1017,582,542,573,410,290]","trial_type":"two-door-navigation","trial_index":8,"time_elapsed":1669730,"internal_node_id":"0.0-2.0-6.0"},{"group":"dihedral group of order 12","room_assignment":["orange","green","red","olive","pink","cyan","yellow","purple","blue","brown","grey","ivory"],"door_color_assignment":["white","black"],"door_generator_assignment":[1,0],"goal":9,"start":6,"action_noise":0.15,"location_history":"[6,11,10,9]","action_history":"[0,0,0]","door_history":"[1,1,1]","location_rts":"[2046,649,654]","trial_type":"two-door-navigation","trial_index":9,"time_elapsed":1679652,"internal_node_id":"0.0-2.0-7.0"},{"group":"dihedral group of order 12","room_assignment":["orange","green","red","olive","pink","cyan","yellow","purple","blue","brown","grey","ivory"],"door_color_assignment":["white","black"],"door_generator_assignment":[1,0],"goal":2,"start":9,"action_noise":0.15,"location_history":"[9,3,9,8,2]","action_history":"[1,1,1,1]","door_history":"[0,0,0,0]","location_rts":"[1936,371,816,487]","trial_type":"two-door-navigation","trial_index":10,"time_elapsed":1690857,"internal_node_id":"0.0-2.0-8.0"},{"group":"dihedral group of order 12","room_assignment":["orange","green","red","olive","pink","cyan","yellow","purple","blue","brown","grey","ivory"],"door_color_assignment":["white","black"],"door_generator_assignment":[1,0],"goal":0,"start":2,"action_noise":0.15,"location_history":"[2,8,2,8,7,1,2,3,4,10,9,8,2,3,4,5,0]","action_history":"[1,1,1,0,0,0,0,0,0,0,0,0,0,0,0,0]","door_history":"[0,0,0,1,1,1,1,1,1,1,1,1,1,1,1,1]","location_rts":"[2701,911,602,637,638,302,19003,272,304,271,222,149,196,436,434,299]","trial_type":"two-door-navigation","trial_index":11,"time_elapsed":1738160,"internal_node_id":"0.0-2.0-9.0"},{"group":"dihedral group of order 12","room_assignment":["orange","green","red","olive","pink","cyan","yellow","purple","blue","brown","grey","ivory"],"door_color_assignment":["white","black"],"door_generator_assignment":[1,0],"goal":3,"start":0,"action_noise":0.15,"location_history":"[0,1,7,6,0,1,2,3]","action_history":"[1,1,1,1,0,0,0]","door_history":"[0,0,0,0,1,1,1]","location_rts":"[29771,796,1567,538,971,817,463]","trial_type":"two-door-navigation","trial_index":12,"time_elapsed":1783748,"internal_node_id":"0.0-2.0-10.0"},{"group":"dihedral group of order 12","room_assignment":["orange","green","red","olive","pink","cyan","yellow","purple","blue","brown","grey","ivory"],"door_color_assignment":["white","black"],"door_generator_assignment":[1,0],"goal":10,"start":3,"action_noise":0.15,"location_history":"[3,9,3,4,5,0,1,2,3,4,5,11,5,11,5,0,1,2,8,2,8,2,8,2,3,4,10]","action_history":"[1,1,1,0,0,0,0,0,0,0,1,1,1,1,0,0,0,1,1,1,1,1,1,0,0,0]","door_history":"[0,0,0,1,1,1,1,1,1,1,0,0,0,0,1,1,1,0,0,0,0,0,0,1,1,1]","location_rts":"[2061,444,455,923,934,1226,724,2038,1739,658,2004,1035,1034,1075,1214,971,409,1825,502,707,947,1073,1122,1568,925,633]","trial_type":"two-door-navigation","trial_index":13,"time_elapsed":1842091,"internal_node_id":"0.0-2.0-11.0"},{"group":"dihedral group of order 12","room_assignment":["orange","green","red","olive","pink","cyan","yellow","purple","blue","brown","grey","ivory"],"door_color_assignment":["white","black"],"door_generator_assignment":[1,0],"goal":8,"start":10,"action_noise":0.15,"location_history":"[10,9,3,4,5,0,6,0,1,7,6,11,10,9,8]","action_history":"[0,0,0,0,0,0,0,0,1,0,0,0,0,0]","door_history":"[1,1,1,1,1,1,1,1,0,1,1,1,1,1]","location_rts":"[2007,414,1145,1077,1501,880,469,628,1144,1404,514,552,971,1416]","trial_type":"two-door-navigation","trial_index":14,"time_elapsed":1874043,"internal_node_id":"0.0-2.0-12.0"},{"group":"dihedral group of order 12","room_assignment":["orange","green","red","olive","pink","cyan","yellow","purple","blue","brown","grey","ivory"],"door_color_assignment":["white","black"],"door_generator_assignment":[1,0],"goal":4,"start":8,"action_noise":0.15,"location_history":"[8,2,8,2,3,4]","action_history":"[1,1,1,0,0]","door_history":"[0,0,0,1,1]","location_rts":"[6134,597,866,4877,7157]","trial_type":"two-door-navigation","trial_index":15,"time_elapsed":1902293,"internal_node_id":"0.0-2.0-13.0"},{"group":"dihedral group of order 12","room_assignment":["orange","green","red","olive","pink","cyan","yellow","purple","blue","brown","grey","ivory"],"door_color_assignment":["white","black"],"door_generator_assignment":[1,0],"goal":0,"start":4,"action_noise":0.15,"location_history":"[4,5,11,10,9,8,7,6,11,10,9,8,2,8,7,1,7,1,7,6,0]","action_history":"[0,1,0,0,0,0,0,0,0,0,0,0,0,0,1,1,1,0,0,1]","door_history":"[1,0,1,1,1,1,1,1,1,1,1,1,1,1,0,0,0,1,1,0]","location_rts":"[2019,2338,2036,1862,1063,723,1009,1396,674,429,540,792,1045,877,909,372,434,1024,639,1034]","trial_type":"two-door-navigation","trial_index":16,"time_elapsed":1947488,"internal_node_id":"0.0-2.0-14.0"},{"group":"dihedral group of order 12","room_assignment":["orange","green","red","olive","pink","cyan","yellow","purple","blue","brown","grey","ivory"],"door_color_assignment":["white","black"],"door_generator_assignment":[1,0],"goal":11,"start":0,"action_noise":0.15,"location_history":"[0,1,2,8,7,6,0,6,11]","action_history":"[0,0,0,0,0,0,0,0]","door_history":"[1,1,1,1,1,1,1,1]","location_rts":"[1432,821,1036,822,738,900,2140,887]","trial_type":"two-door-navigation","trial_index":17,"time_elapsed":1967952,"internal_node_id":"0.0-2.0-15.0"},{"group":"dihedral group of order 12","room_assignment":["orange","green","red","olive","pink","cyan","yellow","purple","blue","brown","grey","ivory"],"door_color_assignment":["white","black"],"door_generator_assignment":[1,0],"goal":2,"start":11,"action_noise":0.15,"location_history":"[11,5,11,5,11,5,11,5,0,1,2]","action_history":"[1,1,1,1,1,1,1,0,0,0]","door_history":"[0,0,0,0,0,0,0,1,1,1]","location_rts":"[2009,1116,674,1045,662,648,468,1665,1649,164966]","trial_type":"two-door-navigation","trial_index":18,"time_elapsed":2156602,"internal_node_id":"0.0-2.0-16.0"},{"group":"dihedral group of order 12","room_assignment":["orange","green","red","olive","pink","cyan","yellow","purple","blue","brown","grey","ivory"],"door_color_assignment":["white","black"],"door_generator_assignment":[1,0],"goal":7,"start":2,"action_noise":0.15,"location_history":"[2,8,2,8,2,3,9,3,4,10,4,10,4,10,9,8,7]","action_history":"[1,1,1,1,0,1,1,1,1,1,1,1,1,0,0,0]","door_history":"[0,0,0,0,1,0,0,0,0,0,0,0,0,1,1,1]","location_rts":"[337905,1024,2182,10210,7399,688,304,370,528,9576,9163,1307,6678,543,1223,782]","trial_type":"two-door-navigation","trial_index":19,"time_elapsed":2566377,"internal_node_id":"0.0-2.0-17.0"},{"group":"dihedral group of order 12","room_assignment":["orange","green","red","olive","pink","cyan","yellow","purple","blue","brown","grey","ivory"],"door_color_assignment":["white","black"],"door_generator_assignment":[1,0],"goal":5,"start":7,"action_noise":0.15,"location_history":"[7,6,11,10,9,8,7,6,0,1,2,3,4,5]","action_history":"[0,0,0,0,0,0,0,1,0,0,0,0,0]","door_history":"[1,1,1,1,1,1,1,0,1,1,1,1,1]","location_rts":"[3414,615,463,437,22448,2813,1183,744,874,930,5646,1330,980]","trial_type":"two-door-navigation","trial_index":20,"time_elapsed":2625095,"internal_node_id":"0.0-2.0-18.0"},{"group":"dihedral group of order 12","room_assignment":["orange","green","red","olive","pink","cyan","yellow","purple","blue","brown","grey","ivory"],"door_color_assignment":["white","black"],"door_generator_assignment":[1,0],"goal":6,"start":5,"action_noise":0.15,"location_history":"[5,11,5,0,1,2,3,4,5,11,10,9,8,7,1,2,3,9,8,7,6]","action_history":"[1,0,0,0,0,0,0,0,0,0,0,0,0,0,0,0,0,0,0,0]","door_history":"[0,1,1,1,1,1,1,1,1,1,1,1,1,1,1,1,1,1,1,1]","location_rts":"[2315,1140,4462,1794,3830,9535,2539,14247,1455,657,914,2994,2718,774,599,1861,1628,694,1038,842]","trial_type":"two-door-navigation","trial_index":21,"time_elapsed":2705094,"internal_node_id":"0.0-2.0-19.0"},{"group":"dihedral group of order 12","room_assignment":["orange","green","red","olive","pink","cyan","yellow","purple","blue","brown","grey","ivory"],"door_color_assignment":["white","black"],"door_generator_assignment":[1,0],"goal":3,"start":6,"action_noise":0.15,"location_history":"[6,11,10,4,5,11,10,9,8,7,6,0,1,2,3]","action_history":"[0,0,0,0,0,1,0,0,0,0,0,0,0,0]","door_history":"[1,1,1,1,1,0,1,1,1,1,1,1,1,1]","location_rts":"[6408,2040,644,896,984,313,1299,495,3978,1719,912,679,650,712]","trial_type":"two-door-navigation","trial_index":22,"time_elapsed":2744650,"internal_node_id":"0.0-2.0-20.0"},{"group":"dihedral group of order 12","room_assignment":["orange","green","red","olive","pink","cyan","yellow","purple","blue","brown","grey","ivory"],"door_color_assignment":["white","black"],"door_generator_assignment":[1,0],"goal":1,"start":3,"action_noise":0.15,"location_history":"[3,4,5,0,1]","action_history":"[0,0,1,0]","door_history":"[1,1,0,1]","location_rts":"[20220,1953,1611,1023]","trial_type":"two-door-navigation","trial_index":23,"time_elapsed":2777052,"internal_node_id":"0.0-2.0-21.0"},{"group":"dihedral group of order 12","room_assignment":["orange","green","red","olive","pink","cyan","yellow","purple","blue","brown","grey","ivory"],"door_color_assignment":["white","black"],"door_generator_assignment":[1,0],"goal":9,"start":1,"action_noise":0.15,"location_history":"[1,7,6,11,10,9]","action_history":"[0,1,0,0,0]","door_history":"[1,0,1,1,1]","location_rts":"[13625,1000,633,686,872]","trial_type":"two-door-navigation","trial_index":24,"time_elapsed":2802513,"internal_node_id":"0.0-2.0-22.0"},{"group":"dihedral group of order 12","room_assignment":["orange","green","red","olive","pink","cyan","yellow","purple","blue","brown","grey","ivory"],"door_color_assignment":["white","black"],"door_generator_assignment":[1,0],"goal":3,"start":9,"action_noise":0.15,"location_history":"[9,8,2,3]","action_history":"[0,0,0]","door_history":"[1,1,1]","location_rts":"[2834,9599,520]","trial_type":"two-door-navigation","trial_index":25,"time_elapsed":2822038,"internal_node_id":"0.0-2.0-23.0"},{"group":"dihedral group of order 12","room_assignment":["orange","green","red","olive","pink","cyan","yellow","purple","blue","brown","grey","ivory"],"door_color_assignment":["white","black"],"door_generator_assignment":[1,0],"goal":4,"start":3,"action_noise":0.15,"location_history":"[3,4]","action_history":"[0]","door_history":"[1]","location_rts":"[24853]","trial_type":"two-door-navigation","trial_index":26,"time_elapsed":2851415,"internal_node_id":"0.0-2.0-24.0"},{"group":"dihedral group of order 12","room_assignment":["orange","green","red","olive","pink","cyan","yellow","purple","blue","brown","grey","ivory"],"door_color_assignment":["white","black"],"door_generator_assignment":[1,0],"goal":2,"start":4,"action_noise":0.15,"location_history":"[4,5,11,10,9,8,7,6,0,1,2]","action_history":"[0,1,0,0,0,0,1,0,0,0]","door_history":"[1,0,1,1,1,1,0,1,1,1]","location_rts":"[1301,1112,787,771,986,867,1494,1061,886,845]","trial_type":"two-door-navigation","trial_index":27,"time_elapsed":2875264,"internal_node_id":"0.0-2.0-25.0"},{"group":"dihedral group of order 12","room_assignment":["orange","green","red","olive","pink","cyan","yellow","purple","blue","brown","grey","ivory"],"door_color_assignment":["white","black"],"door_generator_assignment":[1,0],"goal":1,"start":2,"action_noise":0.15,"location_history":"[2,3,4,5,11,10,9,8,7,6,0,1]","action_history":"[0,0,0,0,0,0,0,0,0,0,0]","door_history":"[1,1,1,1,1,1,1,1,1,1,1]","location_rts":"[1291,1369,1834,1162,4194,9293,14213,1009,657,1541,709]","trial_type":"two-door-navigation","trial_index":28,"time_elapsed":2927286,"internal_node_id":"0.0-2.0-26.0"},{"group":"dihedral group of order 12","room_assignment":["orange","green","red","olive","pink","cyan","yellow","purple","blue","brown","grey","ivory"],"door_color_assignment":["white","black"],"door_generator_assignment":[1,0],"goal":8,"start":1,"action_noise":0.15,"location_history":"[1,7,6,11,10,9,8]","action_history":"[1,0,0,0,0,0]","door_history":"[0,1,1,1,1,1]","location_rts":"[6103,985,1307,4034,1363,1822]","trial_type":"two-door-navigation","trial_index":29,"time_elapsed":2952544,"internal_node_id":"0.0-2.0-27.0"},{"group":"dihedral group of order 12","room_assignment":["orange","green","red","olive","pink","cyan","yellow","purple","blue","brown","grey","ivory"],"door_color_assignment":["white","black"],"door_generator_assignment":[1,0],"goal":10,"start":8,"action_noise":0.15,"location_history":"[8,7,6,11,10]","action_history":"[0,0,0,0]","door_history":"[1,1,1,1]","location_rts":"[1233,1150,1015,18834]","trial_type":"two-door-navigation","trial_index":30,"time_elapsed":2982379,"internal_node_id":"0.0-2.0-28.0"},{"group":"dihedral group of order 12","room_assignment":["orange","green","red","olive","pink","cyan","yellow","purple","blue","brown","grey","ivory"],"door_color_assignment":["white","black"],"door_generator_assignment":[1,0],"goal":7,"start":10,"action_noise":0.15,"location_history":"[10,9,8,7]","action_history":"[0,0,0]","door_history":"[1,1,1]","location_rts":"[1239,3049,1154]","trial_type":"two-door-navigation","trial_index":31,"time_elapsed":2994395,"internal_node_id":"0.0-2.0-29.0"},{"group":"dihedral group of order 12","room_assignment":["orange","green","red","olive","pink","cyan","yellow","purple","blue","brown","grey","ivory"],"door_color_assignment":["white","black"],"door_generator_assignment":[1,0],"goal":6,"start":7,"action_noise":0.15,"location_history":"[7,6]","action_history":"[0]","door_history":"[1]","location_rts":"[28325]","trial_type":"two-door-navigation","trial_index":32,"time_elapsed":3027243,"internal_node_id":"0.0-2.0-30.0"},{"group":"dihedral group of order 12","room_assignment":["orange","green","red","olive","pink","cyan","yellow","purple","blue","brown","grey","ivory"],"door_color_assignment":["white","black"],"door_generator_assignment":[1,0],"goal":0,"start":6,"action_noise":0.15,"location_history":"[6,11,10,9,8,7,6,0]","action_history":"[0,0,0,0,0,0,1]","door_history":"[1,1,1,1,1,1,0]","location_rts":"[410637,118926,1759,1028,627,480,311]","trial_type":"two-door-navigation","trial_index":33,"time_elapsed":3571673,"internal_node_id":"0.0-2.0-31.0"},{"group":"dihedral group of order 12","room_assignment":["orange","green","red","olive","pink","cyan","yellow","purple","blue","brown","grey","ivory"],"door_color_assignment":["white","black"],"door_generator_assignment":[1,0],"goal":11,"start":0,"action_noise":0.15,"location_history":"[0,1,2,8,7,6,0,6,11]","action_history":"[0,1,0,0,0,1,0,0]","door_history":"[1,0,1,1,1,0,1,1]","location_rts":"[1378,1456,1546,1086,746,1512,934,359]","trial_type":"two-door-navigation","trial_index":34,"time_elapsed":3592395,"internal_node_id":"0.0-2.0-32.0"},{"group":"dihedral group of order 12","room_assignment":["orange","green","red","olive","pink","cyan","yellow","purple","blue","brown","grey","ivory"],"door_color_assignment":["white","black"],"door_generator_assignment":[1,0],"goal":9,"start":11,"action_noise":0.15,"location_history":"[11,10,9]","action_history":"[0,0]","door_history":"[1,1]","location_rts":"[690,701]","trial_type":"two-door-navigation","trial_index":35,"time_elapsed":3599338,"internal_node_id":"0.0-2.0-33.0"},{"group":"dihedral group of order 12","room_assignment":["orange","green","red","olive","pink","cyan","yellow","purple","blue","brown","grey","ivory"],"door_color_assignment":["white","black"],"door_generator_assignment":[1,0],"goal":5,"start":9,"action_noise":0.15,"location_history":"[9,8,7,6,11,10,4,5]","action_history":"[0,0,0,0,0,0,0]","door_history":"[1,1,1,1,1,1,1]","location_rts":"[622,31275,6232,2292,3263,1681,2397]","trial_type":"two-door-navigation","trial_index":36,"time_elapsed":3657760,"internal_node_id":"0.0-2.0-34.0"},{"view_history":"[{\"page_index\":0,\"viewing_time\":9196}]","rt":9196,"trial_type":"instructions","trial_index":37,"time_elapsed":3667959,"internal_node_id":"0.0-3.0"},{"view_history":"[{\"page_index\":0,\"viewing_time\":10347},{\"page_index\":1,\"viewing_time\":51010}]","rt":61358,"trial_type":"instructions","trial_index":38,"time_elapsed":3730325,"internal_node_id":"0.0-4.0"},{"group":"dicyclic group of order 12","fractal_assignment":["../images/wht_red.png","../images/grn_blu.png","../images/org_blu.png","../images/gry_blk.png","../images/cyn_red.png","../images/grn_red.png","../images/pnk_blu.png","../images/grn_prp.png","../images/red_prp.png","../images/blu_wht.png","../images/ylw_slt.png","../images/ylw_pnk.png"],"mutagen_generator_assignment":[0,1],"goal":7,"start":11,"action_noise":0.15,"location_history":"[11,4,9,1,5,9,1,5,10,7]","action_history":"[0,0,0,1,1,1,1,0,0]","mutagen_history":"[0,0,0,1,1,1,1,0,0]","location_rts":"[18172,1309,5735,1109,2871,70871,1051,495,1022]","trial_type":"fractal-mutation","trial_index":39,"time_elapsed":3846711,"internal_node_id":"0.0-5.0-0.0"},{"group":"dicyclic group of order 12","fractal_assignment":["../images/wht_red.png","../images/grn_blu.png","../images/org_blu.png","../images/gry_blk.png","../images/cyn_red.png","../images/grn_red.png","../images/pnk_blu.png","../images/grn_prp.png","../images/red_prp.png","../images/blu_wht.png","../images/ylw_slt.png","../images/ylw_pnk.png"],"mutagen_generator_assignment":[0,1],"goal":8,"start":7,"action_noise":0.15,"location_history":"[7,11,4,8]","action_history":"[1,1,1]","mutagen_history":"[1,1,1]","location_rts":"[5413,1057,1863]","trial_type":"fractal-mutation","trial_index":40,"time_elapsed":3862181,"internal_node_id":"0.0-5.0-1.0"},{"group":"dicyclic group of order 12","fractal_assignment":["../images/wht_red.png","../images/grn_blu.png","../images/org_blu.png","../images/gry_blk.png","../images/cyn_red.png","../images/grn_red.png","../images/pnk_blu.png","../images/grn_prp.png","../images/red_prp.png","../images/blu_wht.png","../images/ylw_slt.png","../images/ylw_pnk.png"],"mutagen_generator_assignment":[0,1],"goal":4,"start":8,"action_noise":0.15,"location_history":"[8,5,10,7,8,0,4]","action_history":"[0,0,0,0,0,0]","mutagen_history":"[0,0,0,0,0,0]","location_rts":"[1363,675,592,929,950,583]","trial_type":"fractal-mutation","trial_index":41,"time_elapsed":3876955,"internal_node_id":"0.0-5.0-2.0"},{"group":"dicyclic group of order 12","fractal_assignment":["../images/wht_red.png","../images/grn_blu.png","../images/org_blu.png","../images/gry_blk.png","../images/cyn_red.png","../images/grn_red.png","../images/pnk_blu.png","../images/grn_prp.png","../images/red_prp.png","../images/blu_wht.png","../images/ylw_slt.png","../images/ylw_pnk.png"],"mutagen_generator_assignment":[0,1],"goal":5,"start":4,"action_noise":0.15,"location_history":"[4,8,5]","action_history":"[1,0]","mutagen_history":"[1,0]","location_rts":"[2234,1242]","trial_type":"fractal-mutation","trial_index":42,"time_elapsed":3886249,"internal_node_id":"0.0-5.0-3.0"},{"group":"dicyclic group of order 12","fractal_assignment":["../images/wht_red.png","../images/grn_blu.png","../images/org_blu.png","../images/gry_blk.png","../images/cyn_red.png","../images/grn_red.png","../images/pnk_blu.png","../images/grn_prp.png","../images/red_prp.png","../images/blu_wht.png","../images/ylw_slt.png","../images/ylw_pnk.png"],"mutagen_generator_assignment":[0,1],"goal":10,"start":5,"action_noise":0.15,"location_history":"[5,10]","action_history":"[0]","mutagen_history":"[0]","location_rts":"[881]","trial_type":"fractal-mutation","trial_index":43,"time_elapsed":3891659,"internal_node_id":"0.0-5.0-4.0"},{"group":"dicyclic group of order 12","fractal_assignment":["../images/wht_red.png","../images/grn_blu.png","../images/org_blu.png","../images/gry_blk.png","../images/cyn_red.png","../images/grn_red.png","../images/pnk_blu.png","../images/grn_prp.png","../images/red_prp.png","../images/blu_wht.png","../images/ylw_slt.png","../images/ylw_pnk.png"],"mutagen_generator_assignment":[0,1],"goal":1,"start":10,"action_noise":0.15,"location_history":"[10,7,8,0,1]","action_history":"[1,0,1,0]","mutagen_history":"[1,0,1,0]","location_rts":"[841,792,1380,1185]","trial_type":"fractal-mutation","trial_index":44,"time_elapsed":3903991,"internal_node_id":"0.0-5.0-5.0"},{"group":"dicyclic group of order 12","fractal_assignment":["../images/wht_red.png","../images/grn_blu.png","../images/org_blu.png","../images/gry_blk.png","../images/cyn_red.png","../images/grn_red.png","../images/pnk_blu.png","../images/grn_prp.png","../images/red_prp.png","../images/blu_wht.png","../images/ylw_slt.png","../images/ylw_pnk.png"],"mutagen_generator_assignment":[0,1],"goal":6,"start":1,"action_noise":0.15,"location_history":"[1,5,9,1,5,9,1,5,10,2,3,7,11,4,9,6]","action_history":"[1,1,1,1,1,0,1,0,1,0,1,0,1,0,0]","mutagen_history":"[1,1,1,1,1,0,1,0,1,0,1,0,1,0,0]","location_rts":"[4615,567,704,833,549,989,721,2402,969,1786,558,1516,3234,45668,629]","trial_type":"fractal-mutation","trial_index":45,"time_elapsed":3990822,"internal_node_id":"0.0-5.0-6.0"},{"group":"dicyclic group of order 12","fractal_assignment":["../images/wht_red.png","../images/grn_blu.png","../images/org_blu.png","../images/gry_blk.png","../images/cyn_red.png","../images/grn_red.png","../images/pnk_blu.png","../images/grn_prp.png","../images/red_prp.png","../images/blu_wht.png","../images/ylw_slt.png","../images/ylw_pnk.png"],"mutagen_generator_assignment":[0,1],"goal":9,"start":6,"action_noise":0.15,"location_history":"[6,11,4,8,5,9]","action_history":"[0,0,1,0,1]","mutagen_history":"[0,0,1,0,1]","location_rts":"[1905,627,251,1044,1205]","trial_type":"fractal-mutation","trial_index":46,"time_elapsed":4004931,"internal_node_id":"0.0-5.0-7.0"},{"group":"dicyclic group of order 12","fractal_assignment":["../images/wht_red.png","../images/grn_blu.png","../images/org_blu.png","../images/gry_blk.png","../images/cyn_red.png","../images/grn_red.png","../images/pnk_blu.png","../images/grn_prp.png","../images/red_prp.png","../images/blu_wht.png","../images/ylw_slt.png","../images/ylw_pnk.png"],"mutagen_generator_assignment":[0,1],"goal":2,"start":9,"action_noise":0.15,"location_history":"[9,1,5,9,1,5,9,1,2]","action_history":"[1,1,1,1,1,1,1,1]","mutagen_history":"[1,1,1,1,1,1,1,1]","location_rts":"[632,456,467,1244,1056,1722,1203,1188]","trial_type":"fractal-mutation","trial_index":47,"time_elapsed":4025994,"internal_node_id":"0.0-5.0-8.0"},{"group":"dicyclic group of order 12","fractal_assignment":["../images/wht_red.png","../images/grn_blu.png","../images/org_blu.png","../images/gry_blk.png","../images/cyn_red.png","../images/grn_red.png","../images/pnk_blu.png","../images/grn_prp.png","../images/red_prp.png","../images/blu_wht.png","../images/ylw_slt.png","../images/ylw_pnk.png"],"mutagen_generator_assignment":[0,1],"goal":0,"start":2,"action_noise":0.15,"location_history":"[2,6,11,3,0]","action_history":"[1,0,1,1]","mutagen_history":"[1,0,1,1]","location_rts":"[1488,856,2181,741]","trial_type":"fractal-mutation","trial_index":48,"time_elapsed":4039522,"internal_node_id":"0.0-5.0-9.0"},{"group":"dicyclic group of order 12","fractal_assignment":["../images/wht_red.png","../images/grn_blu.png","../images/org_blu.png","../images/gry_blk.png","../images/cyn_red.png","../images/grn_red.png","../images/pnk_blu.png","../images/grn_prp.png","../images/red_prp.png","../images/blu_wht.png","../images/ylw_slt.png","../images/ylw_pnk.png"],"mutagen_generator_assignment":[0,1],"goal":3,"start":0,"action_noise":0.15,"location_history":"[0,4,9,6,10,7,8,5,10,2,6,10,2,3]","action_history":"[1,0,0,1,0,0,0,0,0,1,1,1,1]","mutagen_history":"[1,0,0,1,0,0,0,0,0,1,1,1,1]","location_rts":"[1338,850,830,1076,505,1634,400,569,1044,3251,579,497,1521]","trial_type":"fractal-mutation","trial_index":49,"time_elapsed":4072236,"internal_node_id":"0.0-5.0-10.0"},{"group":"dicyclic group of order 12","fractal_assignment":["../images/wht_red.png","../images/grn_blu.png","../images/org_blu.png","../images/gry_blk.png","../images/cyn_red.png","../images/grn_red.png","../images/pnk_blu.png","../images/grn_prp.png","../images/red_prp.png","../images/blu_wht.png","../images/ylw_slt.png","../images/ylw_pnk.png"],"mutagen_generator_assignment":[0,1],"goal":10,"start":3,"action_noise":0.15,"location_history":"[3,7,11,3,0,1,2,3,0,1,5,10]","action_history":"[1,1,1,0,0,0,0,0,0,1,0]","mutagen_history":"[1,1,1,0,0,0,0,0,0,1,0]","location_rts":"[1478,778,574,848,614,821,630,980,803,932,4580]","trial_type":"fractal-mutation","trial_index":50,"time_elapsed":4101400,"internal_node_id":"0.0-5.0-11.0"},{"group":"dicyclic group of order 12","fractal_assignment":["../images/wht_red.png","../images/grn_blu.png","../images/org_blu.png","../images/gry_blk.png","../images/cyn_red.png","../images/grn_red.png","../images/pnk_blu.png","../images/grn_prp.png","../images/red_prp.png","../images/blu_wht.png","../images/ylw_slt.png","../images/ylw_pnk.png"],"mutagen_generator_assignment":[0,1],"goal":8,"start":10,"action_noise":0.15,"location_history":"[10,2,3,0,4,9,6,11,3,7,11,3,7,8]","action_history":"[1,0,1,0,0,0,0,0,1,1,1,1,1]","mutagen_history":"[1,0,1,0,0,0,0,0,1,1,1,1,1]","location_rts":"[2266,2210,552,638,1368,415,451,519,352,749,502,677,682]","trial_type":"fractal-mutation","trial_index":51,"time_elapsed":4131430,"internal_node_id":"0.0-5.0-12.0"},{"group":"dicyclic group of order 12","fractal_assignment":["../images/wht_red.png","../images/grn_blu.png","../images/org_blu.png","../images/gry_blk.png","../images/cyn_red.png","../images/grn_red.png","../images/pnk_blu.png","../images/grn_prp.png","../images/red_prp.png","../images/blu_wht.png","../images/ylw_slt.png","../images/ylw_pnk.png"],"mutagen_generator_assignment":[0,1],"goal":4,"start":8,"action_noise":0.15,"location_history":"[8,5,9,1,2,6,11,4]","action_history":"[0,1,1,0,0,0,0]","mutagen_history":"[0,1,1,0,0,0,0]","location_rts":"[14167,824,3781,601,837,614,579]","trial_type":"fractal-mutation","trial_index":52,"time_elapsed":4164272,"internal_node_id":"0.0-5.0-13.0"},{"group":"dicyclic group of order 12","fractal_assignment":["../images/wht_red.png","../images/grn_blu.png","../images/org_blu.png","../images/gry_blk.png","../images/cyn_red.png","../images/grn_red.png","../images/pnk_blu.png","../images/grn_prp.png","../images/red_prp.png","../images/blu_wht.png","../images/ylw_slt.png","../images/ylw_pnk.png"],"mutagen_generator_assignment":[0,1],"goal":0,"start":4,"action_noise":0.15,"location_history":"[4,9,6,11,3,0]","action_history":"[0,0,0,0,0]","mutagen_history":"[0,0,0,0,0]","location_rts":"[1136,3175,1571,1124,857]","trial_type":"fractal-mutation","trial_index":53,"time_elapsed":4180775,"internal_node_id":"0.0-5.0-14.0"},{"group":"dicyclic group of order 12","fractal_assignment":["../images/wht_red.png","../images/grn_blu.png","../images/org_blu.png","../images/gry_blk.png","../images/cyn_red.png","../images/grn_red.png","../images/pnk_blu.png","../images/grn_prp.png","../images/red_prp.png","../images/blu_wht.png","../images/ylw_slt.png","../images/ylw_pnk.png"],"mutagen_generator_assignment":[0,1],"goal":11,"start":0,"action_noise":0.15,"location_history":"[0,1,2,3,0,4,9,1,2,3,0,4,9,6,11]","action_history":"[0,0,0,1,1,0,0,0,0,0,1,0,0,0]","mutagen_history":"[0,0,0,1,1,0,0,0,0,0,1,0,0,0]","location_rts":"[3124,1270,2922,813,778,417,396,380,801,752,1107,757,614,525]","trial_type":"fractal-mutation","trial_index":54,"time_elapsed":4214556,"internal_node_id":"0.0-5.0-15.0"},{"group":"dicyclic group of order 12","fractal_assignment":["../images/wht_red.png","../images/grn_blu.png","../images/org_blu.png","../images/gry_blk.png","../images/cyn_red.png","../images/grn_red.png","../images/pnk_blu.png","../images/grn_prp.png","../images/red_prp.png","../images/blu_wht.png","../images/ylw_slt.png","../images/ylw_pnk.png"],"mutagen_generator_assignment":[0,1],"goal":2,"start":11,"action_noise":0.15,"location_history":"[11,4,8,0,1,2]","action_history":"[0,1,1,0,0]","mutagen_history":"[0,1,1,0,0]","location_rts":"[1338,899,820,1205,602]","trial_type":"fractal-mutation","trial_index":55,"time_elapsed":4228641,"internal_node_id":"0.0-5.0-16.0"},{"group":"dicyclic group of order 12","fractal_assignment":["../images/wht_red.png","../images/grn_blu.png","../images/org_blu.png","../images/gry_blk.png","../images/cyn_red.png","../images/grn_red.png","../images/pnk_blu.png","../images/grn_prp.png","../images/red_prp.png","../images/blu_wht.png","../images/ylw_slt.png","../images/ylw_pnk.png"],"mutagen_generator_assignment":[0,1],"goal":7,"start":2,"action_noise":0.15,"location_history":"[2,6,10,7]","action_history":"[0,1,0]","mutagen_history":"[0,1,0]","location_rts":"[2042,1524,845]","trial_type":"fractal-mutation","trial_index":56,"time_elapsed":4239910,"internal_node_id":"0.0-5.0-17.0"},{"group":"dicyclic group of order 12","fractal_assignment":["../images/wht_red.png","../images/grn_blu.png","../images/org_blu.png","../images/gry_blk.png","../images/cyn_red.png","../images/grn_red.png","../images/pnk_blu.png","../images/grn_prp.png","../images/red_prp.png","../images/blu_wht.png","../images/ylw_slt.png","../images/ylw_pnk.png"],"mutagen_generator_assignment":[0,1],"goal":5,"start":7,"action_noise":0.15,"location_history":"[7,8,0,1,2,6,11,3,0,4,9,6,10,7,8,5]","action_history":"[0,1,0,0,1,0,1,0,1,0,0,1,0,0,0]","mutagen_history":"[0,1,0,0,1,0,1,0,1,0,0,1,0,0,0]","location_rts":"[868,732,1706,977,1191,743,2862,7232,475,919,2827,589,696,607,1248]","trial_type":"fractal-mutation","trial_index":57,"time_elapsed":4284302,"internal_node_id":"0.0-5.0-18.0"},{"group":"dicyclic group of order 12","fractal_assignment":["../images/wht_red.png","../images/grn_blu.png","../images/org_blu.png","../images/gry_blk.png","../images/cyn_red.png","../images/grn_red.png","../images/pnk_blu.png","../images/grn_prp.png","../images/red_prp.png","../images/blu_wht.png","../images/ylw_slt.png","../images/ylw_pnk.png"],"mutagen_generator_assignment":[0,1],"goal":6,"start":5,"action_noise":0.15,"location_history":"[5,9,1,2,6]","action_history":"[0,1,0,1]","mutagen_history":"[0,1,0,1]","location_rts":"[853,1311,2437,1030]","trial_type":"fractal-mutation","trial_index":58,"time_elapsed":4297984,"internal_node_id":"0.0-5.0-19.0"},{"group":"dicyclic group of order 12","fractal_assignment":["../images/wht_red.png","../images/grn_blu.png","../images/org_blu.png","../images/gry_blk.png","../images/cyn_red.png","../images/grn_red.png","../images/pnk_blu.png","../images/grn_prp.png","../images/red_prp.png","../images/blu_wht.png","../images/ylw_slt.png","../images/ylw_pnk.png"],"mutagen_generator_assignment":[0,1],"goal":3,"start":6,"action_noise":0.15,"location_history":"[6,11,3]","action_history":"[0,1]","mutagen_history":"[0,1]","location_rts":"[614,1067]","trial_type":"fractal-mutation","trial_index":59,"time_elapsed":4305402,"internal_node_id":"0.0-5.0-20.0"},{"group":"dicyclic group of order 12","fractal_assignment":["../images/wht_red.png","../images/grn_blu.png","../images/org_blu.png","../images/gry_blk.png","../images/cyn_red.png","../images/grn_red.png","../images/pnk_blu.png","../images/grn_prp.png","../images/red_prp.png","../images/blu_wht.png","../images/ylw_slt.png","../images/ylw_pnk.png"],"mutagen_generator_assignment":[0,1],"goal":1,"start":3,"action_noise":0.15,"location_history":"[3,7,11,3,0,1]","action_history":"[0,1,1,0,0]","mutagen_history":"[0,1,1,0,0]","location_rts":"[819,238,1440,708,1376]","trial_type":"fractal-mutation","trial_index":60,"time_elapsed":4319159,"internal_node_id":"0.0-5.0-21.0"},{"group":"dicyclic group of order 12","fractal_assignment":["../images/wht_red.png","../images/grn_blu.png","../images/org_blu.png","../images/gry_blk.png","../images/cyn_red.png","../images/grn_red.png","../images/pnk_blu.png","../images/grn_prp.png","../images/red_prp.png","../images/blu_wht.png","../images/ylw_slt.png","../images/ylw_pnk.png"],"mutagen_generator_assignment":[0,1],"goal":9,"start":1,"action_noise":0.15,"location_history":"[1,5,10,2,6,11,3,7,8,5,10,2,6,10,2,6,10,7,11,4,9]","action_history":"[1,0,1,1,1,1,1,0,1,1,1,1,1,1,1,0,0,1,0,0]","mutagen_history":"[1,0,1,1,1,1,1,0,1,1,1,1,1,1,1,0,0,1,0,0]","location_rts":"[2246,880,628,488,1023,3440,1356,820,878,710,1330,757,445,662,635,627,2242,926,634,1271]","trial_type":"fractal-mutation","trial_index":61,"time_elapsed":4368145,"internal_node_id":"0.0-5.0-22.0"},{"group":"dicyclic group of order 12","fractal_assignment":["../images/wht_red.png","../images/grn_blu.png","../images/org_blu.png","../images/gry_blk.png","../images/cyn_red.png","../images/grn_red.png","../images/pnk_blu.png","../images/grn_prp.png","../images/red_prp.png","../images/blu_wht.png","../images/ylw_slt.png","../images/ylw_pnk.png"],"mutagen_generator_assignment":[0,1],"goal":3,"start":9,"action_noise":0.15,"location_history":"[9,6,11,4,8,5,9,6,11,3]","action_history":"[0,0,0,1,0,1,0,0,1]","mutagen_history":"[0,0,0,1,0,1,0,0,1]","location_rts":"[852,871,3378,1009,1009,545,770,519,1512]","trial_type":"fractal-mutation","trial_index":62,"time_elapsed":4392199,"internal_node_id":"0.0-5.0-23.0"},{"group":"dicyclic group of order 12","fractal_assignment":["../images/wht_red.png","../images/grn_blu.png","../images/org_blu.png","../images/gry_blk.png","../images/cyn_red.png","../images/grn_red.png","../images/pnk_blu.png","../images/grn_prp.png","../images/red_prp.png","../images/blu_wht.png","../images/ylw_slt.png","../images/ylw_pnk.png"],"mutagen_generator_assignment":[0,1],"goal":4,"start":3,"action_noise":0.15,"location_history":"[3,0,1,5,10,7,8,5,10,7,8,5,10,2,6,11,4]","action_history":"[0,0,1,0,0,0,0,0,0,0,0,0,1,0,0,0]","mutagen_history":"[0,0,1,0,0,0,0,0,0,0,0,0,1,0,0,0]","location_rts":"[838,935,3256,935,2465,917,793,3055,1051,5536,1305,6088,866,835,877,1282]","trial_type":"fractal-mutation","trial_index":63,"time_elapsed":4444602,"internal_node_id":"0.0-5.0-24.0"},{"group":"dicyclic group of order 12","fractal_assignment":["../images/wht_red.png","../images/grn_blu.png","../images/org_blu.png","../images/gry_blk.png","../images/cyn_red.png","../images/grn_red.png","../images/pnk_blu.png","../images/grn_prp.png","../images/red_prp.png","../images/blu_wht.png","../images/ylw_slt.png","../images/ylw_pnk.png"],"mutagen_generator_assignment":[0,1],"goal":2,"start":4,"action_noise":0.15,"location_history":"[4,9,6,10,7,8,5,10,2]","action_history":"[0,0,1,0,0,0,0,1]","mutagen_history":"[0,0,1,0,0,0,0,1]","location_rts":"[735,784,990,760,410,774,3497,739]","trial_type":"fractal-mutation","trial_index":64,"time_elapsed":4465730,"internal_node_id":"0.0-5.0-25.0"},{"group":"dicyclic group of order 12","fractal_assignment":["../images/wht_red.png","../images/grn_blu.png","../images/org_blu.png","../images/gry_blk.png","../images/cyn_red.png","../images/grn_red.png","../images/pnk_blu.png","../images/grn_prp.png","../images/red_prp.png","../images/blu_wht.png","../images/ylw_slt.png","../images/ylw_pnk.png"],"mutagen_generator_assignment":[0,1],"goal":1,"start":2,"action_noise":0.15,"location_history":"[2,3,7,8,0,4,8,5,9,1]","action_history":"[0,1,0,1,1,1,0,1,1]","mutagen_history":"[0,1,0,1,1,1,0,1,1]","location_rts":"[712,1496,3669,2232,945,1285,779,574,662]","trial_type":"fractal-mutation","trial_index":65,"time_elapsed":4492063,"internal_node_id":"0.0-5.0-26.0"},{"group":"dicyclic group of order 12","fractal_assignment":["../images/wht_red.png","../images/grn_blu.png","../images/org_blu.png","../images/gry_blk.png","../images/cyn_red.png","../images/grn_red.png","../images/pnk_blu.png","../images/grn_prp.png","../images/red_prp.png","../images/blu_wht.png","../images/ylw_slt.png","../images/ylw_pnk.png"],"mutagen_generator_assignment":[0,1],"goal":8,"start":1,"action_noise":0.15,"location_history":"[1,5,9,6,10,7,11,4,8]","action_history":"[1,1,0,1,0,1,0,1]","mutagen_history":"[1,1,0,1,0,1,0,1]","location_rts":"[1141,1180,663,866,736,1920,952,1193]","trial_type":"fractal-mutation","trial_index":66,"time_elapsed":4513571,"internal_node_id":"0.0-5.0-27.0"},{"group":"dicyclic group of order 12","fractal_assignment":["../images/wht_red.png","../images/grn_blu.png","../images/org_blu.png","../images/gry_blk.png","../images/cyn_red.png","../images/grn_red.png","../images/pnk_blu.png","../images/grn_prp.png","../images/red_prp.png","../images/blu_wht.png","../images/ylw_slt.png","../images/ylw_pnk.png"],"mutagen_generator_assignment":[0,1],"goal":10,"start":8,"action_noise":0.15,"location_history":"[8,0,1,2,3,0,1,5,10]","action_history":"[0,0,0,1,0,0,1,0]","mutagen_history":"[0,0,0,1,0,0,1,0]","location_rts":"[111439,1752,913,70,667,794,390,846]","trial_type":"fractal-mutation","trial_index":67,"time_elapsed":4642804,"internal_node_id":"0.0-5.0-28.0"},{"group":"dicyclic group of order 12","fractal_assignment":["../images/wht_red.png","../images/grn_blu.png","../images/org_blu.png","../images/gry_blk.png","../images/cyn_red.png","../images/grn_red.png","../images/pnk_blu.png","../images/grn_prp.png","../images/red_prp.png","../images/blu_wht.png","../images/ylw_slt.png","../images/ylw_pnk.png"],"mutagen_generator_assignment":[0,1],"goal":7,"start":10,"action_noise":0.15,"location_history":"[10,7]","action_history":"[0]","mutagen_history":"[0]","location_rts":"[778]","trial_type":"fractal-mutation","trial_index":68,"time_elapsed":4648118,"internal_node_id":"0.0-5.0-29.0"},{"group":"dicyclic group of order 12","fractal_assignment":["../images/wht_red.png","../images/grn_blu.png","../images/org_blu.png","../images/gry_blk.png","../images/cyn_red.png","../images/grn_red.png","../images/pnk_blu.png","../images/grn_prp.png","../images/red_prp.png","../images/blu_wht.png","../images/ylw_slt.png","../images/ylw_pnk.png"],"mutagen_generator_assignment":[0,1],"goal":6,"start":7,"action_noise":0.15,"location_history":"[7,11,3,7,8,0,1,2,3,7,11,4,8,0,1,2,6]","action_history":"[0,1,0,0,1,0,0,0,1,1,0,0,1,0,0,1]","mutagen_history":"[0,1,0,0,1,0,0,0,1,1,0,0,1,0,0,1]","location_rts":"[638,670,476,3101,2122,457,1716,756,792,2798,729,1086,407,547,765,639]","trial_type":"fractal-mutation","trial_index":69,"time_elapsed":4687628,"internal_node_id":"0.0-5.0-30.0"},{"group":"dicyclic group of order 12","fractal_assignment":["../images/wht_red.png","../images/grn_blu.png","../images/org_blu.png","../images/gry_blk.png","../images/cyn_red.png","../images/grn_red.png","../images/pnk_blu.png","../images/grn_prp.png","../images/red_prp.png","../images/blu_wht.png","../images/ylw_slt.png","../images/ylw_pnk.png"],"mutagen_generator_assignment":[0,1],"goal":0,"start":6,"action_noise":0.15,"location_history":"[6,11,3,0]","action_history":"[0,1,0]","mutagen_history":"[0,1,0]","location_rts":"[1098,1471,13884]","trial_type":"fractal-mutation","trial_index":70,"time_elapsed":4710911,"internal_node_id":"0.0-5.0-31.0"},{"group":"dicyclic group of order 12","fractal_assignment":["../images/wht_red.png","../images/grn_blu.png","../images/org_blu.png","../images/gry_blk.png","../images/cyn_red.png","../images/grn_red.png","../images/pnk_blu.png","../images/grn_prp.png","../images/red_prp.png","../images/blu_wht.png","../images/ylw_slt.png","../images/ylw_pnk.png"],"mutagen_generator_assignment":[0,1],"goal":11,"start":0,"action_noise":0.15,"location_history":"[0,1,5,10,7,11]","action_history":"[0,1,0,1,1]","mutagen_history":"[0,1,0,1,1]","location_rts":"[943,1922,855,410,808]","trial_type":"fractal-mutation","trial_index":71,"time_elapsed":4725101,"internal_node_id":"0.0-5.0-32.0"},{"group":"dicyclic group of order 12","fractal_assignment":["../images/wht_red.png","../images/grn_blu.png","../images/org_blu.png","../images/gry_blk.png","../images/cyn_red.png","../images/grn_red.png","../images/pnk_blu.png","../images/grn_prp.png","../images/red_prp.png","../images/blu_wht.png","../images/ylw_slt.png","../images/ylw_pnk.png"],"mutagen_generator_assignment":[0,1],"goal":9,"start":11,"action_noise":0.15,"location_history":"[11,4,9]","action_history":"[0,0]","mutagen_history":"[0,0]","location_rts":"[1174,450]","trial_type":"fractal-mutation","trial_index":72,"time_elapsed":4732284,"internal_node_id":"0.0-5.0-33.0"},{"group":"dicyclic group of order 12","fractal_assignment":["../images/wht_red.png","../images/grn_blu.png","../images/org_blu.png","../images/gry_blk.png","../images/cyn_red.png","../images/grn_red.png","../images/pnk_blu.png","../images/grn_prp.png","../images/red_prp.png","../images/blu_wht.png","../images/ylw_slt.png","../images/ylw_pnk.png"],"mutagen_generator_assignment":[0,1],"goal":5,"start":9,"action_noise":0.15,"location_history":"[9,6,10,7,11,3,0,1,5]","action_history":"[0,1,1,1,0,0,0,0]","mutagen_history":"[0,1,1,1,0,0,0,0]","location_rts":"[1897,300,418,441,606,338,443,398]","trial_type":"fractal-mutation","trial_index":73,"time_elapsed":4749773,"internal_node_id":"0.0-5.0-34.0"},{"view_history":"[{\"page_index\":0,\"viewing_time\":6594}]","rt":6595,"trial_type":"instructions","trial_index":74,"time_elapsed":4757370,"internal_node_id":"0.0-6.0"},{"rt":12852,"responses":"{\"Q0\":\"Interesting as always.\"}","trial_type":"survey-text","trial_index":75,"time_elapsed":4771230,"internal_node_id":"0.0-7.0"}]