[{"view_history":"[{\"page_index\":0,\"viewing_time\":24700},{\"page_index\":1,\"viewing_time\":8555}]","rt":33255,"trial_type":"instructions","trial_index":0,"time_elapsed":33256,"internal_node_id":"0.0-0.0"},{"view_history":"[{\"page_index\":0,\"viewing_time\":1151},{\"page_index\":1,\"viewing_time\":17164}]","rt":18316,"trial_type":"instructions","trial_index":1,"time_elapsed":52573,"internal_node_id":"0.0-1.0"},{"group":"dicyclic group of order 12","room_assignment":["olive","blue","yellow","red","orange","pink","cyan","green","purple","grey","ivory","brown"],"door_color_assignment":["white","black"],"door_generator_assignment":[0,1],"goal":7,"start":11,"action_noise":0.15,"location_history":"[11,3,0,1,2,6,10,7]","action_history":"[1,0,0,1,1,1,0]","door_history":"[1,0,0,1,1,1,0]","location_rts":"[22757,902,605,385,325,282,243]","trial_type":"two-door-navigation","trial_index":2,"time_elapsed":88723,"internal_node_id":"0.0-2.0-0.0"},{"group":"dicyclic group of order 12","room_assignment":["olive","blue","yellow","red","orange","pink","cyan","green","purple","grey","ivory","brown"],"door_color_assignment":["white","black"],"door_generator_assignment":[0,1],"goal":8,"start":7,"action_noise":0.15,"location_history":"[7,11,3,7,8]","action_history":"[1,1,1,0]","door_history":"[1,1,1,0]","location_rts":"[475,368,349,304]","trial_type":"two-door-navigation","trial_index":3,"time_elapsed":97797,"internal_node_id":"0.0-2.0-1.0"},{"group":"dicyclic group of order 12","room_assignment":["olive","blue","yellow","red","orange","pink","cyan","green","purple","grey","ivory","brown"],"door_color_assignment":["white","black"],"door_generator_assignment":[0,1],"goal":4,"start":8,"action_noise":0.15,"location_history":"[8,0,1,5,10,7,8,5,9,1,2,3,0,4]","action_history":"[1,1,1,0,0,0,1,1,1,0,0,0,0]","door_history":"[1,1,1,0,0,0,1,1,1,0,0,0,0]","location_rts":"[556,242,249,255,18,143,246,222,224,288,227,228,310]","trial_type":"two-door-navigation","trial_index":4,"time_elapsed":117759,"internal_node_id":"0.0-2.0-2.0"},{"group":"dicyclic group of order 12","room_assignment":["olive","blue","yellow","red","orange","pink","cyan","green","purple","grey","ivory","brown"],"door_color_assignment":["white","black"],"door_generator_assignment":[0,1],"goal":5,"start":4,"action_noise":0.15,"location_history":"[4,8,0,1,2,3,0,4,8,0,1,2,3,0,4,8,0,4,8,0,1,2,3,0,1,2,3,0,1,2,3,0,4,8,0,4,8,0,4,9,1,2,6,10,2,6,11,3,7,11,3,0,1,5]","action_history":"[1,1,1,0,0,0,1,1,1,0,0,0,0,0,1,1,1,1,1,0,0,0,0,0,0,0,0,0,0,0,0,1,1,1,1,1,1,1,1,1,1,1,1,1,1,1,1,1,1,1,0,0,0]","door_history":"[1,1,1,0,0,0,1,1,1,0,0,0,0,0,1,1,1,1,1,0,0,0,0,0,0,0,0,0,0,0,0,1,1,1,1,1,1,1,1,1,1,1,1,1,1,1,1,1,1,1,0,0,0]","location_rts":"[354,211,316,343,334,324,457,279,272,292,661,75,237,331,282,338,315,233,289,332,318,194,99,12,71,112,71,160,204,168,116,127,114,198,154,105,157,167,202,5,97,150,148,363,316,178,70,170,105,161,25,194,94]","trial_type":"two-door-navigation","trial_index":5,"time_elapsed":186354,"internal_node_id":"0.0-2.0-3.0"},{"group":"dicyclic group of order 12","room_assignment":["olive","blue","yellow","red","orange","pink","cyan","green","purple","grey","ivory","brown"],"door_color_assignment":["white","black"],"door_generator_assignment":[0,1],"goal":10,"start":5,"action_noise":0.15,"location_history":"[5,10]","action_history":"[1]","door_history":"[1]","location_rts":"[307]","trial_type":"two-door-navigation","trial_index":6,"time_elapsed":191184,"internal_node_id":"0.0-2.0-4.0"},{"group":"dicyclic group of order 12","room_assignment":["olive","blue","yellow","red","orange","pink","cyan","green","purple","grey","ivory","brown"],"door_color_assignment":["white","black"],"door_generator_assignment":[0,1],"goal":1,"start":10,"action_noise":0.15,"location_history":"[10,7,8,5,10,2,3,0,1]","action_history":"[0,0,0,0,0,0,0,0]","door_history":"[0,0,0,0,0,0,0,0]","location_rts":"[634,65,325,83,162,133,193,191]","trial_type":"two-door-navigation","trial_index":7,"time_elapsed":204629,"internal_node_id":"0.0-2.0-5.0"},{"group":"dicyclic group of order 12","room_assignment":["olive","blue","yellow","red","orange","pink","cyan","green","purple","grey","ivory","brown"],"door_color_assignment":["white","black"],"door_generator_assignment":[0,1],"goal":6,"start":1,"action_noise":0.15,"location_history":"[1,5,10,2,3,7,11,3,0,1,2,3,7,8,5,10,2,6]","action_history":"[1,1,1,1,1,1,1,0,0,0,0,0,0,0,0,1,1]","door_history":"[1,1,1,1,1,1,1,0,0,0,0,0,0,0,0,1,1]","location_rts":"[785,384,603,22,290,314,435,1148,171,401,140,194,347,136,121,140,139]","trial_type":"two-door-navigation","trial_index":8,"time_elapsed":231217,"internal_node_id":"0.0-2.0-6.0"},{"group":"dicyclic group of order 12","room_assignment":["olive","blue","yellow","red","orange","pink","cyan","green","purple","grey","ivory","brown"],"door_color_assignment":["white","black"],"door_generator_assignment":[0,1],"goal":9,"start":6,"action_noise":0.15,"location_history":"[6,10,2,3,0,1,2,3,7,11,3,7,11,3,7,11,3,7,8,5,10,7,8,5,10,7,8,0,4,8,5,9]","action_history":"[1,1,0,0,0,0,0,1,1,1,1,1,1,1,1,1,1,0,0,0,1,0,1,0,1,0,1,0,1,1,1]","door_history":"[1,1,0,0,0,0,0,1,1,1,1,1,1,1,1,1,1,0,0,0,1,0,1,0,1,0,1,0,1,1,1]","location_rts":"[477,326,641,77,467,163,395,298,87,4,47,57,130,247,97,54,356,260,106,104,175,253,641,158,48,222,175,158,147,259,203]","trial_type":"two-door-navigation","trial_index":9,"time_elapsed":273130,"internal_node_id":"0.0-2.0-7.0"},{"group":"dicyclic group of order 12","room_assignment":["olive","blue","yellow","red","orange","pink","cyan","green","purple","grey","ivory","brown"],"door_color_assignment":["white","black"],"door_generator_assignment":[0,1],"goal":2,"start":9,"action_noise":0.15,"location_history":"[9,1,5,10,7,8,5,10,7,8,0,1,5,9,1,5,10,7,11,3,7,8,5,10,7,8,0,4,8,0,4,8,0,1,2]","action_history":"[1,1,1,0,0,0,0,0,0,1,1,1,1,1,0,0,0,1,1,1,0,0,0,0,0,1,1,1,1,1,1,1,0,0]","door_history":"[1,1,1,0,0,0,0,0,0,1,1,1,1,1,0,0,0,1,1,1,0,0,0,0,0,1,1,1,1,1,1,1,0,0]","location_rts":"[627,292,251,283,211,535,231,191,276,212,141,462,108,77,261,194,330,164,141,42,110,125,132,300,38,197,231,70,278,215,256,251,141,236]","trial_type":"two-door-navigation","trial_index":10,"time_elapsed":318840,"internal_node_id":"0.0-2.0-8.0"},{"group":"dicyclic group of order 12","room_assignment":["olive","blue","yellow","red","orange","pink","cyan","green","purple","grey","ivory","brown"],"door_color_assignment":["white","black"],"door_generator_assignment":[0,1],"goal":0,"start":2,"action_noise":0.15,"location_history":"[2,6,10,2,6,11,4,9,6,10,2,6,11,3,0]","action_history":"[1,1,1,1,0,0,0,0,0,1,1,1,1,0]","door_history":"[1,1,1,1,0,0,0,0,0,1,1,1,1,0]","location_rts":"[1069,191,196,285,291,202,263,377,265,62,278,246,314,347]","trial_type":"two-door-navigation","trial_index":11,"time_elapsed":340993,"internal_node_id":"0.0-2.0-9.0"},{"group":"dicyclic group of order 12","room_assignment":["olive","blue","yellow","red","orange","pink","cyan","green","purple","grey","ivory","brown"],"door_color_assignment":["white","black"],"door_generator_assignment":[0,1],"goal":3,"start":0,"action_noise":0.15,"location_history":"[0,4,8,0,1,5,10,7,8,5,9,1,2,6,10,2,3]","action_history":"[1,1,1,0,0,0,0,0,0,1,1,1,1,1,0,1]","door_history":"[1,1,1,0,0,0,0,0,0,1,1,1,1,1,0,1]","location_rts":"[380,85,297,327,255,203,155,316,257,12,214,115,34,820,462,254]","trial_type":"two-door-navigation","trial_index":12,"time_elapsed":364977,"internal_node_id":"0.0-2.0-10.0"},{"group":"dicyclic group of order 12","room_assignment":["olive","blue","yellow","red","orange","pink","cyan","green","purple","grey","ivory","brown"],"door_color_assignment":["white","black"],"door_generator_assignment":[0,1],"goal":10,"start":3,"action_noise":0.15,"location_history":"[3,7,11,4,9,1,5,10]","action_history":"[1,1,0,0,1,1,0]","door_history":"[1,1,0,0,1,1,0]","location_rts":"[337,307,932,291,174,241,256]","trial_type":"two-door-navigation","trial_index":13,"time_elapsed":378163,"internal_node_id":"0.0-2.0-11.0"},{"group":"dicyclic group of order 12","room_assignment":["olive","blue","yellow","red","orange","pink","cyan","green","purple","grey","ivory","brown"],"door_color_assignment":["white","black"],"door_generator_assignment":[0,1],"goal":8,"start":10,"action_noise":0.15,"location_history":"[10,7,11,4,9,1,5,9,6,11,4,9,1,5,10,7,8]","action_history":"[1,1,0,0,1,1,0,0,1,1,1,1,1,0,0,0]","door_history":"[1,1,0,0,1,1,0,0,1,1,1,1,1,0,0,0]","location_rts":"[288,196,282,258,273,152,278,240,287,230,152,227,404,985,197,210]","trial_type":"two-door-navigation","trial_index":14,"time_elapsed":402625,"internal_node_id":"0.0-2.0-12.0"},{"group":"dicyclic group of order 12","room_assignment":["olive","blue","yellow","red","orange","pink","cyan","green","purple","grey","ivory","brown"],"door_color_assignment":["white","black"],"door_generator_assignment":[0,1],"goal":4,"start":8,"action_noise":0.15,"location_history":"[8,5,10,2,6,10,2,6,11,4]","action_history":"[0,0,1,1,1,1,1,0,0]","door_history":"[0,0,1,1,1,1,1,0,0]","location_rts":"[2559,253,160,272,278,420,80,324,152]","trial_type":"two-door-navigation","trial_index":15,"time_elapsed":419787,"internal_node_id":"0.0-2.0-13.0"},{"group":"dicyclic group of order 12","room_assignment":["olive","blue","yellow","red","orange","pink","cyan","green","purple","grey","ivory","brown"],"door_color_assignment":["white","black"],"door_generator_assignment":[0,1],"goal":0,"start":4,"action_noise":0.15,"location_history":"[4,8,0]","action_history":"[1,1]","door_history":"[1,1]","location_rts":"[569,270]","trial_type":"two-door-navigation","trial_index":16,"time_elapsed":426167,"internal_node_id":"0.0-2.0-14.0"},{"group":"dicyclic group of order 12","room_assignment":["olive","blue","yellow","red","orange","pink","cyan","green","purple","grey","ivory","brown"],"door_color_assignment":["white","black"],"door_generator_assignment":[0,1],"goal":11,"start":0,"action_noise":0.15,"location_history":"[0,4,8,0,4,9,6,11]","action_history":"[1,1,1,1,0,0,0]","door_history":"[1,1,1,1,0,0,0]","location_rts":"[14246,23569,249,225,189,272,297]","trial_type":"two-door-navigation","trial_index":17,"time_elapsed":475851,"internal_node_id":"0.0-2.0-15.0"},{"group":"dicyclic group of order 12","room_assignment":["olive","blue","yellow","red","orange","pink","cyan","green","purple","grey","ivory","brown"],"door_color_assignment":["white","black"],"door_generator_assignment":[0,1],"goal":2,"start":11,"action_noise":0.15,"location_history":"[11,3,7,11,4,9,6,10,2]","action_history":"[1,1,1,0,0,0,1,1]","door_history":"[1,1,1,0,0,0,1,1]","location_rts":"[575,228,261,308,220,339,300,235]","trial_type":"two-door-navigation","trial_index":18,"time_elapsed":489969,"internal_node_id":"0.0-2.0-16.0"},{"group":"dicyclic group of order 12","room_assignment":["olive","blue","yellow","red","orange","pink","cyan","green","purple","grey","ivory","brown"],"door_color_assignment":["white","black"],"door_generator_assignment":[0,1],"goal":7,"start":2,"action_noise":0.15,"location_history":"[2,6,10,7]","action_history":"[1,1,0]","door_history":"[1,1,0]","location_rts":"[557,399,244]","trial_type":"two-door-navigation","trial_index":19,"time_elapsed":497728,"internal_node_id":"0.0-2.0-17.0"},{"group":"dicyclic group of order 12","room_assignment":["olive","blue","yellow","red","orange","pink","cyan","green","purple","grey","ivory","brown"],"door_color_assignment":["white","black"],"door_generator_assignment":[0,1],"goal":5,"start":7,"action_noise":0.15,"location_history":"[7,8,0,1,2,6,10,2,6,11,3,7,8,5]","action_history":"[1,1,0,0,1,1,1,1,0,1,1,0,0]","door_history":"[1,1,0,0,1,1,1,1,0,1,1,0,0]","location_rts":"[534,280,253,214,654,218,478,372,400,413,426,311,537]","trial_type":"two-door-navigation","trial_index":20,"time_elapsed":519565,"internal_node_id":"0.0-2.0-18.0"},{"group":"dicyclic group of order 12","room_assignment":["olive","blue","yellow","red","orange","pink","cyan","green","purple","grey","ivory","brown"],"door_color_assignment":["white","black"],"door_generator_assignment":[0,1],"goal":6,"start":5,"action_noise":0.15,"location_history":"[5,9,1,5,9,1,5,10,7,8,5,9,1,5,10,7,8,5,9,1,2,6]","action_history":"[1,1,1,1,1,1,0,0,0,1,1,1,1,0,0,0,0,0,0,0,1]","door_history":"[1,1,1,1,1,1,0,0,0,1,1,1,1,0,0,0,0,0,0,0,1]","location_rts":"[510,252,261,198,217,410,221,300,361,440,303,325,248,268,122,23,45,125,241,450,244]","trial_type":"two-door-navigation","trial_index":21,"time_elapsed":550029,"internal_node_id":"0.0-2.0-19.0"},{"group":"dicyclic group of order 12","room_assignment":["olive","blue","yellow","red","orange","pink","cyan","green","purple","grey","ivory","brown"],"door_color_assignment":["white","black"],"door_generator_assignment":[0,1],"goal":3,"start":6,"action_noise":0.15,"location_history":"[6,10,2,3]","action_history":"[1,1,0]","door_history":"[1,1,0]","location_rts":"[762,71,96]","trial_type":"two-door-navigation","trial_index":22,"time_elapsed":557513,"internal_node_id":"0.0-2.0-20.0"},{"group":"dicyclic group of order 12","room_assignment":["olive","blue","yellow","red","orange","pink","cyan","green","purple","grey","ivory","brown"],"door_color_assignment":["white","black"],"door_generator_assignment":[0,1],"goal":1,"start":3,"action_noise":0.15,"location_history":"[3,7,8,0,1]","action_history":"[1,0,1,0]","door_history":"[1,0,1,0]","location_rts":"[528,465,505,283]","trial_type":"two-door-navigation","trial_index":23,"time_elapsed":566873,"internal_node_id":"0.0-2.0-21.0"},{"group":"dicyclic group of order 12","room_assignment":["olive","blue","yellow","red","orange","pink","cyan","green","purple","grey","ivory","brown"],"door_color_assignment":["white","black"],"door_generator_assignment":[0,1],"goal":9,"start":1,"action_noise":0.15,"location_history":"[1,2,6,11,3,0,4,9]","action_history":"[0,1,0,1,0,1,0]","door_history":"[0,1,0,1,0,1,0]","location_rts":"[1621,16393,543,324,206,247,214]","trial_type":"two-door-navigation","trial_index":24,"time_elapsed":597043,"internal_node_id":"0.0-2.0-22.0"},{"group":"dicyclic group of order 12","room_assignment":["olive","blue","yellow","red","orange","pink","cyan","green","purple","grey","ivory","brown"],"door_color_assignment":["white","black"],"door_generator_assignment":[0,1],"goal":3,"start":9,"action_noise":0.15,"location_history":"[9,1,2,3]","action_history":"[1,0,1]","door_history":"[1,0,1]","location_rts":"[767,1022,266]","trial_type":"two-door-navigation","trial_index":25,"time_elapsed":605661,"internal_node_id":"0.0-2.0-23.0"},{"group":"dicyclic group of order 12","room_assignment":["olive","blue","yellow","red","orange","pink","cyan","green","purple","grey","ivory","brown"],"door_color_assignment":["white","black"],"door_generator_assignment":[0,1],"goal":4,"start":3,"action_noise":0.15,"location_history":"[3,0,1,5,10,2,3,7,11,3,0,4]","action_history":"[1,0,1,0,1,0,1,0,1,0,1]","door_history":"[1,0,1,0,1,0,1,0,1,0,1]","location_rts":"[1367,522,409,145,192,122,234,218,228,290,275]","trial_type":"two-door-navigation","trial_index":26,"time_elapsed":624373,"internal_node_id":"0.0-2.0-24.0"},{"group":"dicyclic group of order 12","room_assignment":["olive","blue","yellow","red","orange","pink","cyan","green","purple","grey","ivory","brown"],"door_color_assignment":["white","black"],"door_generator_assignment":[0,1],"goal":2,"start":4,"action_noise":0.15,"location_history":"[4,9,1,2]","action_history":"[0,1,0]","door_history":"[0,1,0]","location_rts":"[968,356,409]","trial_type":"two-door-navigation","trial_index":27,"time_elapsed":632655,"internal_node_id":"0.0-2.0-25.0"},{"group":"dicyclic group of order 12","room_assignment":["olive","blue","yellow","red","orange","pink","cyan","green","purple","grey","ivory","brown"],"door_color_assignment":["white","black"],"door_generator_assignment":[0,1],"goal":1,"start":2,"action_noise":0.15,"location_history":"[2,3,7,8,0,1]","action_history":"[0,1,0,1,0]","door_history":"[0,1,0,1,0]","location_rts":"[904,451,169,157,243]","trial_type":"two-door-navigation","trial_index":28,"time_elapsed":643168,"internal_node_id":"0.0-2.0-26.0"},{"group":"dicyclic group of order 12","room_assignment":["olive","blue","yellow","red","orange","pink","cyan","green","purple","grey","ivory","brown"],"door_color_assignment":["white","black"],"door_generator_assignment":[0,1],"goal":8,"start":1,"action_noise":0.15,"location_history":"[1,2,6,11,3,7,11,4,8]","action_history":"[0,1,0,1,0,1,0,1]","door_history":"[0,1,0,1,0,1,0,1]","location_rts":"[859,355,147,100,68,127,233,215]","trial_type":"two-door-navigation","trial_index":29,"time_elapsed":656930,"internal_node_id":"0.0-2.0-27.0"},{"group":"dicyclic group of order 12","room_assignment":["olive","blue","yellow","red","orange","pink","cyan","green","purple","grey","ivory","brown"],"door_color_assignment":["white","black"],"door_generator_assignment":[0,1],"goal":10,"start":8,"action_noise":0.15,"location_history":"[8,5,9,6,10]","action_history":"[0,1,0,1]","door_history":"[0,1,0,1]","location_rts":"[692,529,52,57]","trial_type":"two-door-navigation","trial_index":30,"time_elapsed":665834,"internal_node_id":"0.0-2.0-28.0"},{"group":"dicyclic group of order 12","room_assignment":["olive","blue","yellow","red","orange","pink","cyan","green","purple","grey","ivory","brown"],"door_color_assignment":["white","black"],"door_generator_assignment":[0,1],"goal":7,"start":10,"action_noise":0.15,"location_history":"[10,7]","action_history":"[0]","door_history":"[0]","location_rts":"[744]","trial_type":"two-door-navigation","trial_index":31,"time_elapsed":671097,"internal_node_id":"0.0-2.0-29.0"},{"group":"dicyclic group of order 12","room_assignment":["olive","blue","yellow","red","orange","pink","cyan","green","purple","grey","ivory","brown"],"door_color_assignment":["white","black"],"door_generator_assignment":[0,1],"goal":6,"start":7,"action_noise":0.15,"location_history":"[7,11,3,7,11,3,0,1,5,10,2,3,0,1,5,10,2,6]","action_history":"[1,0,1,0,1,0,0,1,0,1,0,1,0,1,0,1,0]","door_history":"[1,0,1,0,1,0,0,1,0,1,0,1,0,1,0,1,0]","location_rts":"[661,440,95,145,309,866,404,686,682,160,114,103,90,249,126,589,295]","trial_type":"two-door-navigation","trial_index":32,"time_elapsed":697929,"internal_node_id":"0.0-2.0-30.0"},{"group":"dicyclic group of order 12","room_assignment":["olive","blue","yellow","red","orange","pink","cyan","green","purple","grey","ivory","brown"],"door_color_assignment":["white","black"],"door_generator_assignment":[0,1],"goal":0,"start":6,"action_noise":0.15,"location_history":"[6,11,4,8,0]","action_history":"[1,1,1,1]","door_history":"[1,1,1,1]","location_rts":"[680,759,585,492]","trial_type":"two-door-navigation","trial_index":33,"time_elapsed":708025,"internal_node_id":"0.0-2.0-31.0"},{"group":"dicyclic group of order 12","room_assignment":["olive","blue","yellow","red","orange","pink","cyan","green","purple","grey","ivory","brown"],"door_color_assignment":["white","black"],"door_generator_assignment":[0,1],"goal":11,"start":0,"action_noise":0.15,"location_history":"[0,4,9,1,2,3,0,4,8,0,1,2,3,7,11]","action_history":"[0,0,1,0,1,0,1,0,1,0,1,0,0,1]","door_history":"[0,0,1,0,1,0,1,0,1,0,1,0,0,1]","location_rts":"[573,1115,527,564,254,233,3706,499,201,145,120,154,279,447]","trial_type":"two-door-navigation","trial_index":34,"time_elapsed":734599,"internal_node_id":"0.0-2.0-32.0"},{"group":"dicyclic group of order 12","room_assignment":["olive","blue","yellow","red","orange","pink","cyan","green","purple","grey","ivory","brown"],"door_color_assignment":["white","black"],"door_generator_assignment":[0,1],"goal":9,"start":11,"action_noise":0.15,"location_history":"[11,4,8,5,10,2,3,7,8,5,10,2,3,7,8,0,1,5,10,2,3,0,1,2,3,7,8,0,1,5,9]","action_history":"[0,1,0,0,1,0,1,0,0,0,1,0,1,0,1,0,1,0,1,0,0,0,0,1,1,0,1,0,1,0]","door_history":"[0,1,0,0,1,0,1,0,0,0,1,0,1,0,1,0,1,0,1,0,0,0,0,1,1,0,1,0,1,0]","location_rts":"[737,306,306,678,954,328,332,534,262,222,294,428,420,255,841,269,235,238,289,293,202,255,260,226,226,230,257,175,148,269]","trial_type":"two-door-navigation","trial_index":35,"time_elapsed":779121,"internal_node_id":"0.0-2.0-33.0"},{"group":"dicyclic group of order 12","room_assignment":["olive","blue","yellow","red","orange","pink","cyan","green","purple","grey","ivory","brown"],"door_color_assignment":["white","black"],"door_generator_assignment":[0,1],"goal":5,"start":9,"action_noise":0.15,"location_history":"[9,1,5]","action_history":"[1,0]","door_history":"[1,0]","location_rts":"[696,838]","trial_type":"two-door-navigation","trial_index":36,"time_elapsed":786201,"internal_node_id":"0.0-2.0-34.0"},{"view_history":"[{\"page_index\":0,\"viewing_time\":1931113}]","rt":1931114,"trial_type":"instructions","trial_index":37,"time_elapsed":2718316,"internal_node_id":"0.0-3.0"},{"view_history":"[{\"page_index\":0,\"viewing_time\":882},{\"page_index\":1,\"viewing_time\":7504}]","rt":8386,"trial_type":"instructions","trial_index":38,"time_elapsed":2727702,"internal_node_id":"0.0-4.0"},{"group":"dihedral group of order 12","fractal_assignment":["../images/cyn_red.png","../images/red_prp.png","../images/grn_blu.png","../images/grn_prp.png","../images/pnk_blu.png","../images/org_blu.png","../images/wht_red.png","../images/ylw_slt.png","../images/gry_blk.png","../images/grn_red.png","../images/blu_wht.png","../images/ylw_pnk.png"],"mutagen_generator_assignment":[0,1],"goal":7,"start":11,"action_noise":0.15,"location_history":"[11,10,4,10,4,5,0,6,11,10,9,3,9,3,9,8,2,8,2,3,9,3,9,8,7]","action_history":"[0,1,0,1,1,1,1,0,0,0,1,1,1,1,0,1,1,1,0,1,1,1,0,0]","mutagen_history":"[0,1,0,1,1,1,1,0,0,0,1,1,1,1,0,1,1,1,0,1,1,1,0,0]","location_rts":"[4308,713,114,445,256,294,322,199,288,269,236,361,331,354,310,249,340,289,180,265,317,316,16,533]","trial_type":"fractal-mutation","trial_index":39,"time_elapsed":2768747,"internal_node_id":"0.0-5.0-0.0"},{"group":"dihedral group of order 12","fractal_assignment":["../images/cyn_red.png","../images/red_prp.png","../images/grn_blu.png","../images/grn_prp.png","../images/pnk_blu.png","../images/org_blu.png","../images/wht_red.png","../images/ylw_slt.png","../images/gry_blk.png","../images/grn_red.png","../images/blu_wht.png","../images/ylw_pnk.png"],"mutagen_generator_assignment":[0,1],"goal":8,"start":7,"action_noise":0.15,"location_history":"[7,6,0,6,11,5,11,10,9,3,9,3,9,8]","action_history":"[0,1,1,0,0,1,0,0,1,1,1,0,0]","mutagen_history":"[0,1,1,0,0,1,0,0,1,1,1,0,0]","location_rts":"[1453,548,317,263,271,602,341,318,363,493,580,125,847]","trial_type":"fractal-mutation","trial_index":40,"time_elapsed":2792875,"internal_node_id":"0.0-5.0-1.0"},{"group":"dihedral group of order 12","fractal_assignment":["../images/cyn_red.png","../images/red_prp.png","../images/grn_blu.png","../images/grn_prp.png","../images/pnk_blu.png","../images/org_blu.png","../images/wht_red.png","../images/ylw_slt.png","../images/gry_blk.png","../images/grn_red.png","../images/blu_wht.png","../images/ylw_pnk.png"],"mutagen_generator_assignment":[0,1],"goal":4,"start":8,"action_noise":0.15,"location_history":"[8,2,8,2,3,9,3,4]","action_history":"[1,0,1,0,1,0,0]","mutagen_history":"[1,0,1,0,1,0,0]","location_rts":"[1529,1067,1305,409,739,504,789]","trial_type":"fractal-mutation","trial_index":41,"time_elapsed":2810314,"internal_node_id":"0.0-5.0-2.0"},{"group":"dihedral group of order 12","fractal_assignment":["../images/cyn_red.png","../images/red_prp.png","../images/grn_blu.png","../images/grn_prp.png","../images/pnk_blu.png","../images/org_blu.png","../images/wht_red.png","../images/ylw_slt.png","../images/gry_blk.png","../images/grn_red.png","../images/blu_wht.png","../images/ylw_pnk.png"],"mutagen_generator_assignment":[0,1],"goal":5,"start":4,"action_noise":0.15,"location_history":"[4,10,4,10,9,8,7,6,0,1,2,8,2,8,7,6,0,6,11,10,9,8,7,6,0,6,0,1,2,3,9,3,4,5]","action_history":"[1,1,1,0,1,1,1,1,0,0,1,1,1,0,0,1,1,0,0,0,0,0,0,1,1,1,0,0,0,1,1,0,1]","mutagen_history":"[1,1,1,0,1,1,1,1,0,0,1,1,1,0,0,1,1,0,0,0,0,0,0,1,1,1,0,0,0,1,1,0,1]","location_rts":"[1028,650,451,288,924,355,582,508,474,560,415,357,464,333,322,341,263,372,318,390,316,339,308,203,400,805,200,630,459,260,313,234,838]","trial_type":"fractal-mutation","trial_index":42,"time_elapsed":2864512,"internal_node_id":"0.0-5.0-3.0"},{"group":"dihedral group of order 12","fractal_assignment":["../images/cyn_red.png","../images/red_prp.png","../images/grn_blu.png","../images/grn_prp.png","../images/pnk_blu.png","../images/org_blu.png","../images/wht_red.png","../images/ylw_slt.png","../images/gry_blk.png","../images/grn_red.png","../images/blu_wht.png","../images/ylw_pnk.png"],"mutagen_generator_assignment":[0,1],"goal":10,"start":5,"action_noise":0.15,"location_history":"[5,0,6,0,1,2,3,4,5,0,6,11,10]","action_history":"[0,1,1,0,0,1,0,0,1,1,0,0]","mutagen_history":"[0,1,1,0,0,1,0,0,1,1,0,0]","location_rts":"[1160,490,407,1929,395,336,624,656,332,309,388,373]","trial_type":"fractal-mutation","trial_index":43,"time_elapsed":2888393,"internal_node_id":"0.0-5.0-4.0"},{"group":"dihedral group of order 12","fractal_assignment":["../images/cyn_red.png","../images/red_prp.png","../images/grn_blu.png","../images/grn_prp.png","../images/pnk_blu.png","../images/org_blu.png","../images/wht_red.png","../images/ylw_slt.png","../images/gry_blk.png","../images/grn_red.png","../images/blu_wht.png","../images/ylw_pnk.png"],"mutagen_generator_assignment":[0,1],"goal":1,"start":10,"action_noise":0.15,"location_history":"[10,9,3,9,8,2,8,2,3,4,5,11,10,4,10,9,8,2,8,2,3,4,5,11,10,9,3,9,3,4,5,11,10,9,8,7,1]","action_history":"[1,1,0,0,0,1,1,0,0,0,1,1,1,1,0,0,0,1,1,0,0,0,1,0,0,1,1,1,0,0,1,0,0,0,0,0]","mutagen_history":"[1,1,0,0,0,1,1,0,0,0,1,1,1,1,0,0,0,1,1,0,0,0,1,0,0,1,1,1,0,0,1,0,0,0,0,0]","location_rts":"[549,352,326,333,331,392,356,327,304,379,702,377,428,549,512,545,594,588,226,277,401,435,1182,742,446,455,393,390,302,312,1167,360,316,392,262,257]","trial_type":"fractal-mutation","trial_index":44,"time_elapsed":2947203,"internal_node_id":"0.0-5.0-5.0"},{"group":"dihedral group of order 12","fractal_assignment":["../images/cyn_red.png","../images/red_prp.png","../images/grn_blu.png","../images/grn_prp.png","../images/pnk_blu.png","../images/org_blu.png","../images/wht_red.png","../images/ylw_slt.png","../images/gry_blk.png","../images/grn_red.png","../images/blu_wht.png","../images/ylw_pnk.png"],"mutagen_generator_assignment":[0,1],"goal":6,"start":1,"action_noise":0.15,"location_history":"[1,7,1,7,1,7,6]","action_history":"[0,1,1,1,1,0]","mutagen_history":"[0,1,1,1,1,0]","location_rts":"[1220,449,374,406,298,265]","trial_type":"fractal-mutation","trial_index":45,"time_elapsed":2960260,"internal_node_id":"0.0-5.0-6.0"},{"group":"dihedral group of order 12","fractal_assignment":["../images/cyn_red.png","../images/red_prp.png","../images/grn_blu.png","../images/grn_prp.png","../images/pnk_blu.png","../images/org_blu.png","../images/wht_red.png","../images/ylw_slt.png","../images/gry_blk.png","../images/grn_red.png","../images/blu_wht.png","../images/ylw_pnk.png"],"mutagen_generator_assignment":[0,1],"goal":9,"start":6,"action_noise":0.15,"location_history":"[6,0,6,0,6,11,10,9]","action_history":"[1,1,1,1,0,0,1]","mutagen_history":"[1,1,1,1,0,0,1]","location_rts":"[1318,432,338,374,227,389,394]","trial_type":"fractal-mutation","trial_index":46,"time_elapsed":2974940,"internal_node_id":"0.0-5.0-7.0"},{"group":"dihedral group of order 12","fractal_assignment":["../images/cyn_red.png","../images/red_prp.png","../images/grn_blu.png","../images/grn_prp.png","../images/pnk_blu.png","../images/org_blu.png","../images/wht_red.png","../images/ylw_slt.png","../images/gry_blk.png","../images/grn_red.png","../images/blu_wht.png","../images/ylw_pnk.png"],"mutagen_generator_assignment":[0,1],"goal":2,"start":9,"action_noise":0.15,"location_history":"[9,3,9,3,4,5,11,5,11,10,4,10,9,3,9,8,7,1,7,1,7,6,0,6,0,6,11,5,0,6,11,10,4,10,4,5,0,6,0,1,7,1,7,6,0,1,7,6,0,6,11,10,9,3,4,5,0,6,11,5,11,5,0,1,7,6,0,6,11,5,0,1,7,1,2]","action_history":"[1,1,1,0,1,1,1,1,0,1,1,0,1,1,1,0,1,1,1,1,0,1,1,1,0,1,1,1,1,0,1,1,1,1,0,1,1,1,0,1,1,1,0,0,0,0,1,1,1,0,0,0,0,0,0,0,0,0,1,1,1,0,0,0,0,1,1,0,1,0,0,1,1,0]","mutagen_history":"[1,1,1,0,1,1,1,1,0,1,1,0,1,1,1,0,1,1,1,1,0,1,1,1,0,1,1,1,1,0,1,1,1,1,0,1,1,1,0,1,1,1,0,0,0,0,1,1,1,0,0,0,0,0,0,0,0,0,1,1,1,0,0,0,0,1,1,0,1,0,0,1,1,0]","location_rts":"[1207,462,559,596,504,339,373,421,507,427,267,569,310,472,283,232,623,393,492,399,317,353,417,420,278,378,312,341,412,227,269,333,521,326,388,301,324,366,635,270,423,297,712,249,232,268,328,259,270,239,256,192,379,400,274,426,590,614,499,580,309,504,358,357,374,283,207,272,1392,257,396,357,531,524]","trial_type":"fractal-mutation","trial_index":47,"time_elapsed":3089491,"internal_node_id":"0.0-5.0-8.0"},{"group":"dihedral group of order 12","fractal_assignment":["../images/cyn_red.png","../images/red_prp.png","../images/grn_blu.png","../images/grn_prp.png","../images/pnk_blu.png","../images/org_blu.png","../images/wht_red.png","../images/ylw_slt.png","../images/gry_blk.png","../images/grn_red.png","../images/blu_wht.png","../images/ylw_pnk.png"],"mutagen_generator_assignment":[0,1],"goal":0,"start":2,"action_noise":0.15,"location_history":"[2,3,9,8,2,8,7,1,2,8,2,8,2,8,7,6,11,10,9,8,7,1,7,1,7,6,0]","action_history":"[0,1,1,0,1,1,1,0,1,1,1,1,0,0,0,0,0,0,0,0,0,1,1,1,0,1]","mutagen_history":"[0,1,1,0,1,1,1,0,1,1,1,1,0,0,0,0,0,0,0,0,0,1,1,1,0,1]","location_rts":"[848,473,379,385,360,223,217,534,338,225,344,343,204,379,464,492,246,315,617,629,444,197,308,282,242,338]","trial_type":"fractal-mutation","trial_index":48,"time_elapsed":3131066,"internal_node_id":"0.0-5.0-9.0"},{"group":"dihedral group of order 12","fractal_assignment":["../images/cyn_red.png","../images/red_prp.png","../images/grn_blu.png","../images/grn_prp.png","../images/pnk_blu.png","../images/org_blu.png","../images/wht_red.png","../images/ylw_slt.png","../images/gry_blk.png","../images/grn_red.png","../images/blu_wht.png","../images/ylw_pnk.png"],"mutagen_generator_assignment":[0,1],"goal":3,"start":0,"action_noise":0.15,"location_history":"[0,1,7,1,7,6,11,10,4,10,9,3]","action_history":"[0,1,1,1,0,0,1,1,1,0,1]","mutagen_history":"[0,1,1,1,0,0,1,1,1,0,1]","location_rts":"[30245,325,288,361,184,297,276,312,336,270,563]","trial_type":"fractal-mutation","trial_index":49,"time_elapsed":3180018,"internal_node_id":"0.0-5.0-10.0"},{"group":"dihedral group of order 12","fractal_assignment":["../images/cyn_red.png","../images/red_prp.png","../images/grn_blu.png","../images/grn_prp.png","../images/pnk_blu.png","../images/org_blu.png","../images/wht_red.png","../images/ylw_slt.png","../images/gry_blk.png","../images/grn_red.png","../images/blu_wht.png","../images/ylw_pnk.png"],"mutagen_generator_assignment":[0,1],"goal":10,"start":3,"action_noise":0.15,"location_history":"[3,4,10]","action_history":"[0,1]","mutagen_history":"[0,1]","location_rts":"[970,903]","trial_type":"fractal-mutation","trial_index":50,"time_elapsed":3187521,"internal_node_id":"0.0-5.0-11.0"},{"group":"dihedral group of order 12","fractal_assignment":["../images/cyn_red.png","../images/red_prp.png","../images/grn_blu.png","../images/grn_prp.png","../images/pnk_blu.png","../images/org_blu.png","../images/wht_red.png","../images/ylw_slt.png","../images/gry_blk.png","../images/grn_red.png","../images/blu_wht.png","../images/ylw_pnk.png"],"mutagen_generator_assignment":[0,1],"goal":8,"start":10,"action_noise":0.15,"location_history":"[10,9,8]","action_history":"[0,1]","mutagen_history":"[0,1]","location_rts":"[1280,628]","trial_type":"fractal-mutation","trial_index":51,"time_elapsed":3195054,"internal_node_id":"0.0-5.0-12.0"},{"group":"dihedral group of order 12","fractal_assignment":["../images/cyn_red.png","../images/red_prp.png","../images/grn_blu.png","../images/grn_prp.png","../images/pnk_blu.png","../images/org_blu.png","../images/wht_red.png","../images/ylw_slt.png","../images/gry_blk.png","../images/grn_red.png","../images/blu_wht.png","../images/ylw_pnk.png"],"mutagen_generator_assignment":[0,1],"goal":4,"start":8,"action_noise":0.15,"location_history":"[8,2,3,9,8,7,1,2,8,7,6,11,10,4]","action_history":"[1,0,1,1,1,1,1,1,0,0,0,0,1]","mutagen_history":"[1,0,1,1,1,1,1,1,0,0,0,0,1]","location_rts":"[1127,584,346,371,536,296,402,454,419,352,455,386,846]","trial_type":"fractal-mutation","trial_index":52,"time_elapsed":3219349,"internal_node_id":"0.0-5.0-13.0"},{"group":"dihedral group of order 12","fractal_assignment":["../images/cyn_red.png","../images/red_prp.png","../images/grn_blu.png","../images/grn_prp.png","../images/pnk_blu.png","../images/org_blu.png","../images/wht_red.png","../images/ylw_slt.png","../images/gry_blk.png","../images/grn_red.png","../images/blu_wht.png","../images/ylw_pnk.png"],"mutagen_generator_assignment":[0,1],"goal":0,"start":4,"action_noise":0.15,"location_history":"[4,5,11,5,0]","action_history":"[0,1,1,0]","mutagen_history":"[0,1,1,0]","location_rts":"[1062,634,466,596]","trial_type":"fractal-mutation","trial_index":53,"time_elapsed":3229911,"internal_node_id":"0.0-5.0-14.0"},{"group":"dihedral group of order 12","fractal_assignment":["../images/cyn_red.png","../images/red_prp.png","../images/grn_blu.png","../images/grn_prp.png","../images/pnk_blu.png","../images/org_blu.png","../images/wht_red.png","../images/ylw_slt.png","../images/gry_blk.png","../images/grn_red.png","../images/blu_wht.png","../images/ylw_pnk.png"],"mutagen_generator_assignment":[0,1],"goal":11,"start":0,"action_noise":0.15,"location_history":"[0,6,0,6,11]","action_history":"[1,1,1,0]","mutagen_history":"[1,1,1,0]","location_rts":"[1379,761,424,791]","trial_type":"fractal-mutation","trial_index":54,"time_elapsed":3241153,"internal_node_id":"0.0-5.0-15.0"},{"group":"dihedral group of order 12","fractal_assignment":["../images/cyn_red.png","../images/red_prp.png","../images/grn_blu.png","../images/grn_prp.png","../images/pnk_blu.png","../images/org_blu.png","../images/wht_red.png","../images/ylw_slt.png","../images/gry_blk.png","../images/grn_red.png","../images/blu_wht.png","../images/ylw_pnk.png"],"mutagen_generator_assignment":[0,1],"goal":2,"start":11,"action_noise":0.15,"location_history":"[11,10,4,10,4,5,11,10,9,8,7,1,7,1,7,6,0,6,11,5,0,6,0,1,2]","action_history":"[0,1,1,1,0,1,1,1,0,0,1,1,0,1,1,1,0,0,0,1,1,1,0,0]","mutagen_history":"[0,1,1,1,0,1,1,1,0,0,1,1,0,1,1,1,0,0,0,1,1,1,0,0]","location_rts":"[1123,508,759,443,206,660,867,514,1083,920,823,695,721,380,370,386,351,496,413,628,295,511,503,326]","trial_type":"fractal-mutation","trial_index":55,"time_elapsed":3284778,"internal_node_id":"0.0-5.0-16.0"},{"group":"dihedral group of order 12","fractal_assignment":["../images/cyn_red.png","../images/red_prp.png","../images/grn_blu.png","../images/grn_prp.png","../images/pnk_blu.png","../images/org_blu.png","../images/wht_red.png","../images/ylw_slt.png","../images/gry_blk.png","../images/grn_red.png","../images/blu_wht.png","../images/ylw_pnk.png"],"mutagen_generator_assignment":[0,1],"goal":7,"start":2,"action_noise":0.15,"location_history":"[2,3,9,3,9,8,2,3,9,8,2,3,9,3,4,10,4,5,11,10,9,3,9,3,9,8,2,3,9,8,7]","action_history":"[0,0,1,1,0,1,1,1,0,0,0,1,1,1,1,0,0,1,0,0,1,0,1,0,0,1,0,1,0,0]","mutagen_history":"[0,0,1,1,0,1,1,1,0,0,0,1,1,1,1,0,0,1,0,0,1,0,1,0,0,1,0,1,0,0]","location_rts":"[888,452,655,433,398,1014,816,588,323,457,1010,608,584,456,657,487,688,338,448,678,486,5623,383,297,1020,474,659,352,486,268]","trial_type":"fractal-mutation","trial_index":56,"time_elapsed":3342933,"internal_node_id":"0.0-5.0-17.0"},{"group":"dihedral group of order 12","fractal_assignment":["../images/cyn_red.png","../images/red_prp.png","../images/grn_blu.png","../images/grn_prp.png","../images/pnk_blu.png","../images/org_blu.png","../images/wht_red.png","../images/ylw_slt.png","../images/gry_blk.png","../images/grn_red.png","../images/blu_wht.png","../images/ylw_pnk.png"],"mutagen_generator_assignment":[0,1],"goal":5,"start":7,"action_noise":0.15,"location_history":"[7,6,0,6,0,6,11,5]","action_history":"[0,1,1,1,1,0,1]","mutagen_history":"[0,1,1,1,1,0,1]","location_rts":"[478,449,445,340,594,269,623]","trial_type":"fractal-mutation","trial_index":57,"time_elapsed":3357259,"internal_node_id":"0.0-5.0-18.0"},{"group":"dihedral group of order 12","fractal_assignment":["../images/cyn_red.png","../images/red_prp.png","../images/grn_blu.png","../images/grn_prp.png","../images/pnk_blu.png","../images/org_blu.png","../images/wht_red.png","../images/ylw_slt.png","../images/gry_blk.png","../images/grn_red.png","../images/blu_wht.png","../images/ylw_pnk.png"],"mutagen_generator_assignment":[0,1],"goal":6,"start":5,"action_noise":0.15,"location_history":"[5,11,10,9,8,2,3,4,5,11,5,0,1,2,8,2,3,9,8,2,8,2,8,7,1,7,1,7,1,2,3,9,8,2,3,4,5,11,5,0,6]","action_history":"[1,0,0,0,1,1,0,0,1,1,0,1,0,1,1,0,0,0,0,1,1,1,0,1,1,0,1,1,1,0,1,1,1,0,0,0,1,1,1,0]","mutagen_history":"[1,0,0,0,1,1,0,0,1,1,0,1,0,1,1,0,0,0,0,1,1,1,0,1,1,0,1,1,1,0,1,1,1,0,0,0,1,1,1,0]","location_rts":"[661,631,576,634,417,465,360,887,747,433,851,459,957,769,413,375,363,343,333,229,322,364,199,913,577,704,691,424,484,230,1054,453,459,389,281,431,437,353,968,502]","trial_type":"fractal-mutation","trial_index":58,"time_elapsed":3425451,"internal_node_id":"0.0-5.0-19.0"},{"group":"dihedral group of order 12","fractal_assignment":["../images/cyn_red.png","../images/red_prp.png","../images/grn_blu.png","../images/grn_prp.png","../images/pnk_blu.png","../images/org_blu.png","../images/wht_red.png","../images/ylw_slt.png","../images/gry_blk.png","../images/grn_red.png","../images/blu_wht.png","../images/ylw_pnk.png"],"mutagen_generator_assignment":[0,1],"goal":3,"start":6,"action_noise":0.15,"location_history":"[6,0,6,11,10,4,5,11,5,0,1,7,1,2,3]","action_history":"[1,0,0,0,1,1,1,1,0,0,1,1,0,0]","mutagen_history":"[1,0,0,0,1,1,1,1,0,0,1,1,0,0]","location_rts":"[1047,581,311,355,318,500,413,414,301,416,485,382,517,711]","trial_type":"fractal-mutation","trial_index":59,"time_elapsed":3450938,"internal_node_id":"0.0-5.0-20.0"},{"group":"dihedral group of order 12","fractal_assignment":["../images/cyn_red.png","../images/red_prp.png","../images/grn_blu.png","../images/grn_prp.png","../images/pnk_blu.png","../images/org_blu.png","../images/wht_red.png","../images/ylw_slt.png","../images/gry_blk.png","../images/grn_red.png","../images/blu_wht.png","../images/ylw_pnk.png"],"mutagen_generator_assignment":[0,1],"goal":1,"start":3,"action_noise":0.15,"location_history":"[3,9,8,7,1]","action_history":"[1,0,0,1]","mutagen_history":"[1,0,0,1]","location_rts":"[690,386,364,653]","trial_type":"fractal-mutation","trial_index":60,"time_elapsed":3460912,"internal_node_id":"0.0-5.0-21.0"},{"group":"dihedral group of order 12","fractal_assignment":["../images/cyn_red.png","../images/red_prp.png","../images/grn_blu.png","../images/grn_prp.png","../images/pnk_blu.png","../images/org_blu.png","../images/wht_red.png","../images/ylw_slt.png","../images/gry_blk.png","../images/grn_red.png","../images/blu_wht.png","../images/ylw_pnk.png"],"mutagen_generator_assignment":[0,1],"goal":9,"start":1,"action_noise":0.15,"location_history":"[1,2,8,2,8,7,6,0,6,11,10,4,10,4,10,4,5,0,1,2,8,2,3,4,10,4,10,9]","action_history":"[0,1,1,1,0,0,1,1,0,0,1,1,0,1,1,0,0,1,1,1,1,0,1,1,1,0,0]","mutagen_history":"[0,1,1,1,0,0,1,1,0,0,1,1,0,1,1,0,0,1,1,1,1,0,1,1,1,0,0]","location_rts":"[1252,676,361,411,484,526,442,455,393,366,428,534,360,287,474,368,222,271,350,595,670,394,856,437,418,351,1475]","trial_type":"fractal-mutation","trial_index":61,"time_elapsed":3507686,"internal_node_id":"0.0-5.0-22.0"},{"group":"dihedral group of order 12","fractal_assignment":["../images/cyn_red.png","../images/red_prp.png","../images/grn_blu.png","../images/grn_prp.png","../images/pnk_blu.png","../images/org_blu.png","../images/wht_red.png","../images/ylw_slt.png","../images/gry_blk.png","../images/grn_red.png","../images/blu_wht.png","../images/ylw_pnk.png"],"mutagen_generator_assignment":[0,1],"goal":3,"start":9,"action_noise":0.15,"location_history":"[9,8,2,8,2,8,7,6,0,6,11,10,4,10,9,8,7,1,2,8,2,8,7,6,11,5,11,5,0,6,0,6,11,5,11,10,4,10,4,10,4,5,11,5,11,5,0,6,11,5,11,10,4,10,9,3]","action_history":"[0,1,1,1,1,0,1,1,1,0,0,1,1,0,0,0,1,1,1,1,0,0,0,1,1,1,1,0,1,1,1,0,1,1,0,1,1,1,1,0,0,1,1,1,1,0,1,1,1,1,0,1,1,0,1]","mutagen_history":"[0,1,1,1,1,0,1,1,1,0,0,1,1,0,0,0,1,1,1,1,0,0,0,1,1,1,1,0,1,1,1,0,1,1,0,1,1,1,1,0,0,1,1,1,1,0,1,1,1,1,0,1,1,0,1]","location_rts":"[1150,751,941,396,633,318,615,508,653,289,356,357,421,365,810,422,496,371,416,399,560,503,685,476,634,324,339,300,317,335,234,392,395,310,340,462,351,288,384,158,604,377,317,408,407,268,543,333,420,373,878,445,416,245,743]","trial_type":"fractal-mutation","trial_index":62,"time_elapsed":3596501,"internal_node_id":"0.0-5.0-23.0"},{"group":"dihedral group of order 12","fractal_assignment":["../images/cyn_red.png","../images/red_prp.png","../images/grn_blu.png","../images/grn_prp.png","../images/pnk_blu.png","../images/org_blu.png","../images/wht_red.png","../images/ylw_slt.png","../images/gry_blk.png","../images/grn_red.png","../images/blu_wht.png","../images/ylw_pnk.png"],"mutagen_generator_assignment":[0,1],"goal":4,"start":3,"action_noise":0.15,"location_history":"[3,9,3,4]","action_history":"[1,1,0]","mutagen_history":"[1,1,0]","location_rts":"[2180,603,216]","trial_type":"fractal-mutation","trial_index":63,"time_elapsed":3606285,"internal_node_id":"0.0-5.0-24.0"},{"group":"dihedral group of order 12","fractal_assignment":["../images/cyn_red.png","../images/red_prp.png","../images/grn_blu.png","../images/grn_prp.png","../images/pnk_blu.png","../images/org_blu.png","../images/wht_red.png","../images/ylw_slt.png","../images/gry_blk.png","../images/grn_red.png","../images/blu_wht.png","../images/ylw_pnk.png"],"mutagen_generator_assignment":[0,1],"goal":2,"start":4,"action_noise":0.15,"location_history":"[4,5,0,6,0,1,2]","action_history":"[0,0,1,1,0,0]","mutagen_history":"[0,0,1,1,0,0]","location_rts":"[1466,1275,706,402,501,1143]","trial_type":"fractal-mutation","trial_index":64,"time_elapsed":3621677,"internal_node_id":"0.0-5.0-25.0"},{"group":"dihedral group of order 12","fractal_assignment":["../images/cyn_red.png","../images/red_prp.png","../images/grn_blu.png","../images/grn_prp.png","../images/pnk_blu.png","../images/org_blu.png","../images/wht_red.png","../images/ylw_slt.png","../images/gry_blk.png","../images/grn_red.png","../images/blu_wht.png","../images/ylw_pnk.png"],"mutagen_generator_assignment":[0,1],"goal":1,"start":2,"action_noise":0.15,"location_history":"[2,3,9,8,7,6,11,10,4,5,0,1]","action_history":"[0,0,0,0,0,0,0,0,0,0,0]","mutagen_history":"[0,0,0,0,0,0,0,0,0,0,0]","location_rts":"[1664,436,518,453,372,398,360,327,354,481,397]","trial_type":"fractal-mutation","trial_index":65,"time_elapsed":3642183,"internal_node_id":"0.0-5.0-26.0"},{"group":"dihedral group of order 12","fractal_assignment":["../images/cyn_red.png","../images/red_prp.png","../images/grn_blu.png","../images/grn_prp.png","../images/pnk_blu.png","../images/org_blu.png","../images/wht_red.png","../images/ylw_slt.png","../images/gry_blk.png","../images/grn_red.png","../images/blu_wht.png","../images/ylw_pnk.png"],"mutagen_generator_assignment":[0,1],"goal":8,"start":1,"action_noise":0.15,"location_history":"[1,2,3,4,10,9,8]","action_history":"[0,0,0,0,0,0]","mutagen_history":"[0,0,0,0,0,0]","location_rts":"[2514,405,639,555,357,302]","trial_type":"fractal-mutation","trial_index":66,"time_elapsed":3656595,"internal_node_id":"0.0-5.0-27.0"},{"group":"dihedral group of order 12","fractal_assignment":["../images/cyn_red.png","../images/red_prp.png","../images/grn_blu.png","../images/grn_prp.png","../images/pnk_blu.png","../images/org_blu.png","../images/wht_red.png","../images/ylw_slt.png","../images/gry_blk.png","../images/grn_red.png","../images/blu_wht.png","../images/ylw_pnk.png"],"mutagen_generator_assignment":[0,1],"goal":10,"start":8,"action_noise":0.15,"location_history":"[8,7,1,2,8,2,3,4,5,0,1,2,8,7,6,11,10]","action_history":"[1,1,0,1,1,0,0,0,0,0,0,0,0,0,0,0]","mutagen_history":"[1,1,0,1,1,0,0,0,0,0,0,0,0,0,0,0]","location_rts":"[1262,930,699,550,1071,385,534,738,709,570,455,375,523,319,353,344]","trial_type":"fractal-mutation","trial_index":67,"time_elapsed":3687119,"internal_node_id":"0.0-5.0-28.0"},{"group":"dihedral group of order 12","fractal_assignment":["../images/cyn_red.png","../images/red_prp.png","../images/grn_blu.png","../images/grn_prp.png","../images/pnk_blu.png","../images/org_blu.png","../images/wht_red.png","../images/ylw_slt.png","../images/gry_blk.png","../images/grn_red.png","../images/blu_wht.png","../images/ylw_pnk.png"],"mutagen_generator_assignment":[0,1],"goal":7,"start":10,"action_noise":0.15,"location_history":"[10,4,10,4,10,4,10,9,3,9,8,2,3,9,3,4,5,0,1,2,3,4,5,0,1,2,3,4,5,0,1,7]","action_history":"[1,1,1,1,1,0,0,1,1,0,0,0,1,1,0,0,0,0,0,0,0,0,0,0,0,0,0,0,0,0,1]","mutagen_history":"[1,1,1,1,1,0,0,1,1,0,0,0,1,1,0,0,0,0,0,0,0,0,0,0,0,0,0,0,0,0,1]","location_rts":"[1213,397,369,286,317,311,935,768,471,1050,758,555,924,512,416,496,571,389,305,368,271,439,543,364,352,364,328,336,654,365,261]","trial_type":"fractal-mutation","trial_index":68,"time_elapsed":3739771,"internal_node_id":"0.0-5.0-29.0"},{"group":"dihedral group of order 12","fractal_assignment":["../images/cyn_red.png","../images/red_prp.png","../images/grn_blu.png","../images/grn_prp.png","../images/pnk_blu.png","../images/org_blu.png","../images/wht_red.png","../images/ylw_slt.png","../images/gry_blk.png","../images/grn_red.png","../images/blu_wht.png","../images/ylw_pnk.png"],"mutagen_generator_assignment":[0,1],"goal":6,"start":7,"action_noise":0.15,"location_history":"[7,1,2,3,4,5,11,10,9,8,7,6]","action_history":"[1,0,0,0,0,0,0,0,0,0,0]","mutagen_history":"[1,0,0,0,0,0,0,0,0,0,0]","location_rts":"[1104,362,361,310,447,468,389,369,353,385,379]","trial_type":"fractal-mutation","trial_index":69,"time_elapsed":3759977,"internal_node_id":"0.0-5.0-30.0"},{"group":"dihedral group of order 12","fractal_assignment":["../images/cyn_red.png","../images/red_prp.png","../images/grn_blu.png","../images/grn_prp.png","../images/pnk_blu.png","../images/org_blu.png","../images/wht_red.png","../images/ylw_slt.png","../images/gry_blk.png","../images/grn_red.png","../images/blu_wht.png","../images/ylw_pnk.png"],"mutagen_generator_assignment":[0,1],"goal":0,"start":6,"action_noise":0.15,"location_history":"[6,11,10,9,8,2,8,7,6,11,10,9,3,9,3,9,8,2,8,2,8,2,8,7,6,11,10,9,3,4,5,0]","action_history":"[1,0,0,0,1,0,0,0,0,0,0,1,1,1,0,0,1,1,1,0,1,1,0,0,0,0,0,0,0,0,0]","mutagen_history":"[1,0,0,0,1,0,0,0,0,0,0,1,1,1,0,0,1,1,1,0,1,1,0,0,0,0,0,0,0,0,0]","location_rts":"[796,510,358,638,288,410,346,371,417,338,374,371,331,1118,174,455,595,275,373,310,377,571,323,272,204,270,307,277,275,255,320]","trial_type":"fractal-mutation","trial_index":70,"time_elapsed":3809241,"internal_node_id":"0.0-5.0-31.0"},{"group":"dihedral group of order 12","fractal_assignment":["../images/cyn_red.png","../images/red_prp.png","../images/grn_blu.png","../images/grn_prp.png","../images/pnk_blu.png","../images/org_blu.png","../images/wht_red.png","../images/ylw_slt.png","../images/gry_blk.png","../images/grn_red.png","../images/blu_wht.png","../images/ylw_pnk.png"],"mutagen_generator_assignment":[0,1],"goal":11,"start":0,"action_noise":0.15,"location_history":"[0,1,2,3,9,8,2,3,4,10,9,8,7,6,11]","action_history":"[0,0,0,0,0,0,0,0,0,0,0,0,0,0]","mutagen_history":"[0,0,0,0,0,0,0,0,0,0,0,0,0,0]","location_rts":"[591,218,96,139,231,146,255,302,546,339,355,332,334,446]","trial_type":"fractal-mutation","trial_index":71,"time_elapsed":3831426,"internal_node_id":"0.0-5.0-32.0"},{"group":"dihedral group of order 12","fractal_assignment":["../images/cyn_red.png","../images/red_prp.png","../images/grn_blu.png","../images/grn_prp.png","../images/pnk_blu.png","../images/org_blu.png","../images/wht_red.png","../images/ylw_slt.png","../images/gry_blk.png","../images/grn_red.png","../images/blu_wht.png","../images/ylw_pnk.png"],"mutagen_generator_assignment":[0,1],"goal":9,"start":11,"action_noise":0.15,"location_history":"[11,5,11,10,4,5,11,5,0,1,2,3,4,5,0,1,2,8,7,6,0,1,2,8,7,1,7,6,0,6,0,1,2,3,9]","action_history":"[1,1,0,0,0,1,1,0,0,0,0,0,0,0,0,0,0,0,0,0,0,1,1,0,0,1,1,1,1,1,0,0,0,0]","mutagen_history":"[1,1,0,0,0,1,1,0,0,0,0,0,0,0,0,0,0,0,0,0,0,1,1,0,0,1,1,1,1,1,0,0,0,0]","location_rts":"[697,743,813,371,382,457,311,457,544,277,286,189,364,243,202,129,269,334,279,288,530,268,372,229,558,385,293,436,398,372,506,254,333,697]","trial_type":"fractal-mutation","trial_index":72,"time_elapsed":3884957,"internal_node_id":"0.0-5.0-33.0"},{"group":"dihedral group of order 12","fractal_assignment":["../images/cyn_red.png","../images/red_prp.png","../images/grn_blu.png","../images/grn_prp.png","../images/pnk_blu.png","../images/org_blu.png","../images/wht_red.png","../images/ylw_slt.png","../images/gry_blk.png","../images/grn_red.png","../images/blu_wht.png","../images/ylw_pnk.png"],"mutagen_generator_assignment":[0,1],"goal":5,"start":9,"action_noise":0.15,"location_history":"[9,8,7,6,11,10,9,8,7,6,0,1,2,3,4,10,4,10,9,3,9,8,7,6,0,6,0,6,11,10,9,3,9,8,2,8,7,1,7,1,7,1,7,1,2,8,2,8,2,8,7,6,11,10,9,8,2,3,9,3,9,8,7,6,0,6,11,5]","action_history":"[1,1,0,0,0,0,0,0,0,0,0,0,0,0,1,1,1,1,1,1,0,0,0,1,1,1,0,0,0,0,1,1,0,0,0,0,1,1,0,1,1,1,1,0,0,0,0,1,1,0,0,0,0,0,0,1,1,1,1,1,0,0,0,1,1,1,1]","mutagen_history":"[1,1,0,0,0,0,0,0,0,0,0,0,0,0,1,1,1,1,1,1,0,0,0,1,1,1,0,0,0,0,1,1,0,0,0,0,1,1,0,1,1,1,1,0,0,0,0,1,1,0,0,0,0,0,0,1,1,1,1,1,0,0,0,1,1,1,1]","location_rts":"[653,326,260,182,216,326,197,240,214,374,437,277,272,424,276,364,470,372,497,408,620,549,1361,653,1220,662,720,507,787,921,640,414,586,335,292,320,302,511,370,937,378,211,5,347,278,529,553,352,318,389,723,272,385,663,464,2487,613,617,383,385,319,323,290,552,450,288,421]","trial_type":"fractal-mutation","trial_index":73,"time_elapsed":3993753,"internal_node_id":"0.0-5.0-34.0"},{"view_history":"[{\"page_index\":0,\"viewing_time\":4542}]","rt":4543,"trial_type":"instructions","trial_index":74,"time_elapsed":3999297,"internal_node_id":"0.0-6.0"},{"rt":1699,"responses":"{\"Q0\":\"\"}","trial_type":"survey-text","trial_index":75,"time_elapsed":4002000,"internal_node_id":"0.0-7.0"}]