[{"view_history":"[{\"page_index\":0,\"viewing_time\":2871},{\"page_index\":1,\"viewing_time\":16513}]","rt":19384,"trial_type":"instructions","trial_index":0,"time_elapsed":19384,"internal_node_id":"0.0-0.0"},{"view_history":"[{\"page_index\":0,\"viewing_time\":4028},{\"page_index\":1,\"viewing_time\":11248}]","rt":15277,"trial_type":"instructions","trial_index":1,"time_elapsed":35665,"internal_node_id":"0.0-1.0"},{"group":"dicyclic group of order 12","room_assignment":["brown","green","purple","blue","red","yellow","pink","ivory","orange","grey","olive","cyan"],"door_color_assignment":["white","black"],"door_generator_assignment":[1,0],"goal":7,"start":11,"action_noise":0.15,"location_history":"[11,4,8,5,10,2,3,7]","action_history":"[1,1,0,0,0,0,1]","door_history":"[0,0,1,1,1,1,0]","location_rts":"[2071,1221,777,1076,702,587,731]","trial_type":"two-door-navigation","trial_index":2,"time_elapsed":53893,"internal_node_id":"0.0-2.0-0.0"},{"group":"dicyclic group of order 12","room_assignment":["brown","green","purple","blue","red","yellow","pink","ivory","orange","grey","olive","cyan"],"door_color_assignment":["white","black"],"door_generator_assignment":[1,0],"goal":8,"start":7,"action_noise":0.15,"location_history":"[7,11,4,8]","action_history":"[1,1,1]","door_history":"[0,0,0]","location_rts":"[1328,1062,533]","trial_type":"two-door-navigation","trial_index":3,"time_elapsed":63544,"internal_node_id":"0.0-2.0-1.0"},{"group":"dicyclic group of order 12","room_assignment":["brown","green","purple","blue","red","yellow","pink","ivory","orange","grey","olive","cyan"],"door_color_assignment":["white","black"],"door_generator_assignment":[1,0],"goal":4,"start":8,"action_noise":0.15,"location_history":"[8,0,1,2,3,7,11,4]","action_history":"[1,0,0,0,0,1,0]","door_history":"[0,1,1,1,1,0,1]","location_rts":"[1914,727,411,545,721,1123,441]","trial_type":"two-door-navigation","trial_index":4,"time_elapsed":80477,"internal_node_id":"0.0-2.0-2.0"},{"group":"dicyclic group of order 12","room_assignment":["brown","green","purple","blue","red","yellow","pink","ivory","orange","grey","olive","cyan"],"door_color_assignment":["white","black"],"door_generator_assignment":[1,0],"goal":5,"start":4,"action_noise":0.15,"location_history":"[4,9,6,11,3,7,8,5]","action_history":"[0,0,0,1,1,0,0]","door_history":"[1,1,1,0,0,1,1]","location_rts":"[2028,602,821,819,629,1171,612]","trial_type":"two-door-navigation","trial_index":5,"time_elapsed":98196,"internal_node_id":"0.0-2.0-3.0"},{"group":"dicyclic group of order 12","room_assignment":["brown","green","purple","blue","red","yellow","pink","ivory","orange","grey","olive","cyan"],"door_color_assignment":["white","black"],"door_generator_assignment":[1,0],"goal":10,"start":5,"action_noise":0.15,"location_history":"[5,9,6,10]","action_history":"[1,0,0]","door_history":"[0,1,1]","location_rts":"[1703,721,456]","trial_type":"two-door-navigation","trial_index":6,"time_elapsed":107819,"internal_node_id":"0.0-2.0-4.0"},{"group":"dicyclic group of order 12","room_assignment":["brown","green","purple","blue","red","yellow","pink","ivory","orange","grey","olive","cyan"],"door_color_assignment":["white","black"],"door_generator_assignment":[1,0],"goal":1,"start":10,"action_noise":0.15,"location_history":"[10,7,8,0,1]","action_history":"[0,0,0,0]","door_history":"[1,1,1,1]","location_rts":"[5751,675,423,449]","trial_type":"two-door-navigation","trial_index":7,"time_elapsed":122926,"internal_node_id":"0.0-2.0-5.0"},{"group":"dicyclic group of order 12","room_assignment":["brown","green","purple","blue","red","yellow","pink","ivory","orange","grey","olive","cyan"],"door_color_assignment":["white","black"],"door_generator_assignment":[1,0],"goal":6,"start":1,"action_noise":0.15,"location_history":"[1,5,10,7,8,5,10,7,8,5,10,7,8,0,1,5,10,2,3,7,11,4,9,6]","action_history":"[1,0,0,0,0,0,1,0,0,0,0,0,1,0,0,0,0,0,1,0,0,0,0]","door_history":"[0,1,1,1,1,1,0,1,1,1,1,1,0,1,1,1,1,1,0,1,1,1,1]","location_rts":"[5885,1874,465,547,1548,1187,749,965,1232,445,329,322,1418,586,365,663,418,426,761,420,359,641,415]","trial_type":"two-door-navigation","trial_index":8,"time_elapsed":173165,"internal_node_id":"0.0-2.0-6.0"},{"group":"dicyclic group of order 12","room_assignment":["brown","green","purple","blue","red","yellow","pink","ivory","orange","grey","olive","cyan"],"door_color_assignment":["white","black"],"door_generator_assignment":[1,0],"goal":9,"start":6,"action_noise":0.15,"location_history":"[6,10,2,3,0,1,2,6,11,4,8,5,10,7,11,3,0,1,2,3,0,4,8,5,9]","action_history":"[1,0,0,0,0,0,1,0,0,0,0,0,1,1,0,0,0,0,0,0,1,0,0,0]","door_history":"[0,1,1,1,1,1,0,1,1,1,1,1,0,0,1,1,1,1,1,1,0,1,1,1]","location_rts":"[1412,2254,616,510,651,604,620,954,414,355,309,658,2802,947,365,466,361,535,372,476,892,800,589,460]","trial_type":"two-door-navigation","trial_index":9,"time_elapsed":220762,"internal_node_id":"0.0-2.0-7.0"},{"group":"dicyclic group of order 12","room_assignment":["brown","green","purple","blue","red","yellow","pink","ivory","orange","grey","olive","cyan"],"door_color_assignment":["white","black"],"door_generator_assignment":[1,0],"goal":2,"start":9,"action_noise":0.15,"location_history":"[9,1,2]","action_history":"[1,0]","door_history":"[0,1]","location_rts":"[2334,533]","trial_type":"two-door-navigation","trial_index":10,"time_elapsed":229289,"internal_node_id":"0.0-2.0-8.0"},{"group":"dicyclic group of order 12","room_assignment":["brown","green","purple","blue","red","yellow","pink","ivory","orange","grey","olive","cyan"],"door_color_assignment":["white","black"],"door_generator_assignment":[1,0],"goal":0,"start":2,"action_noise":0.15,"location_history":"[2,6,11,4,8,5,10,2,6,11,4,8,5,10,2,3,0]","action_history":"[1,0,0,0,0,0,1,0,0,0,0,0,1,1,1,0]","door_history":"[0,1,1,1,1,1,0,1,1,1,1,1,0,0,0,1]","location_rts":"[1629,838,413,556,482,579,771,543,414,535,607,487,653,1431,792,492]","trial_type":"two-door-navigation","trial_index":11,"time_elapsed":261158,"internal_node_id":"0.0-2.0-9.0"},{"group":"dicyclic group of order 12","room_assignment":["brown","green","purple","blue","red","yellow","pink","ivory","orange","grey","olive","cyan"],"door_color_assignment":["white","black"],"door_generator_assignment":[1,0],"goal":3,"start":0,"action_noise":0.15,"location_history":"[0,1,2,3]","action_history":"[1,1,1]","door_history":"[0,0,0]","location_rts":"[1902,1266,1103]","trial_type":"two-door-navigation","trial_index":12,"time_elapsed":272160,"internal_node_id":"0.0-2.0-10.0"},{"group":"dicyclic group of order 12","room_assignment":["brown","green","purple","blue","red","yellow","pink","ivory","orange","grey","olive","cyan"],"door_color_assignment":["white","black"],"door_generator_assignment":[1,0],"goal":10,"start":3,"action_noise":0.15,"location_history":"[3,0,4,9,1,2,3,7,8,0,1,2,6,10]","action_history":"[1,1,0,0,0,0,1,0,0,0,0,1,1]","door_history":"[0,0,1,1,1,1,0,1,1,1,1,0,0]","location_rts":"[5592,2180,606,415,387,373,767,946,391,354,819,605,733]","trial_type":"two-door-navigation","trial_index":13,"time_elapsed":303703,"internal_node_id":"0.0-2.0-11.0"},{"group":"dicyclic group of order 12","room_assignment":["brown","green","purple","blue","red","yellow","pink","ivory","orange","grey","olive","cyan"],"door_color_assignment":["white","black"],"door_generator_assignment":[1,0],"goal":8,"start":10,"action_noise":0.15,"location_history":"[10,2,3,7,8]","action_history":"[1,0,0,0]","door_history":"[0,1,1,1]","location_rts":"[3162,768,420,437]","trial_type":"two-door-navigation","trial_index":14,"time_elapsed":316289,"internal_node_id":"0.0-2.0-12.0"},{"group":"dicyclic group of order 12","room_assignment":["brown","green","purple","blue","red","yellow","pink","ivory","orange","grey","olive","cyan"],"door_color_assignment":["white","black"],"door_generator_assignment":[1,0],"goal":4,"start":8,"action_noise":0.15,"location_history":"[8,0,1,2,3,0,1,2,3,0,4]","action_history":"[1,0,0,0,0,1,0,0,0,1]","door_history":"[0,1,1,1,1,0,1,1,1,0]","location_rts":"[1611,930,366,473,572,508,1275,613,420,742]","trial_type":"two-door-navigation","trial_index":15,"time_elapsed":338035,"internal_node_id":"0.0-2.0-13.0"},{"group":"dicyclic group of order 12","room_assignment":["brown","green","purple","blue","red","yellow","pink","ivory","orange","grey","olive","cyan"],"door_color_assignment":["white","black"],"door_generator_assignment":[1,0],"goal":0,"start":4,"action_noise":0.15,"location_history":"[4,8,5,10,7,11,4,9,6,10,7,8,5,10,7,11,3,0]","action_history":"[1,0,0,0,1,0,0,0,1,0,0,0,0,0,1,1,0]","door_history":"[0,1,1,1,0,1,1,1,0,1,1,1,1,1,0,0,1]","location_rts":"[1407,951,402,853,833,559,407,565,867,867,577,1018,1181,659,668,994,793]","trial_type":"two-door-navigation","trial_index":16,"time_elapsed":373392,"internal_node_id":"0.0-2.0-14.0"},{"group":"dicyclic group of order 12","room_assignment":["brown","green","purple","blue","red","yellow","pink","ivory","orange","grey","olive","cyan"],"door_color_assignment":["white","black"],"door_generator_assignment":[1,0],"goal":11,"start":0,"action_noise":0.15,"location_history":"[0,4,9,6,10,7,8,5,10,2,6,11]","action_history":"[1,0,0,1,0,0,0,0,1,0,0]","door_history":"[0,1,1,0,1,1,1,1,0,1,1]","location_rts":"[1659,1034,430,839,1194,418,392,436,710,930,429]","trial_type":"two-door-navigation","trial_index":17,"time_elapsed":397182,"internal_node_id":"0.0-2.0-15.0"},{"group":"dicyclic group of order 12","room_assignment":["brown","green","purple","blue","red","yellow","pink","ivory","orange","grey","olive","cyan"],"door_color_assignment":["white","black"],"door_generator_assignment":[1,0],"goal":2,"start":11,"action_noise":0.15,"location_history":"[11,3,0,4,9,6,11,4,9,6,10,2]","action_history":"[1,0,0,0,0,0,0,0,0,0,1]","door_history":"[0,1,1,1,1,1,1,1,1,1,0]","location_rts":"[1686,1182,405,425,426,394,546,642,883,516,596]","trial_type":"two-door-navigation","trial_index":18,"time_elapsed":420194,"internal_node_id":"0.0-2.0-16.0"},{"group":"dicyclic group of order 12","room_assignment":["brown","green","purple","blue","red","yellow","pink","ivory","orange","grey","olive","cyan"],"door_color_assignment":["white","black"],"door_generator_assignment":[1,0],"goal":7,"start":2,"action_noise":0.15,"location_history":"[2,3,0,4,8,5,10,7]","action_history":"[0,0,1,1,0,0,0]","door_history":"[1,1,0,0,1,1,1]","location_rts":"[3424,475,751,464,1332,1060,607]","trial_type":"two-door-navigation","trial_index":19,"time_elapsed":439329,"internal_node_id":"0.0-2.0-17.0"},{"group":"dicyclic group of order 12","room_assignment":["brown","green","purple","blue","red","yellow","pink","ivory","orange","grey","olive","cyan"],"door_color_assignment":["white","black"],"door_generator_assignment":[1,0],"goal":5,"start":7,"action_noise":0.15,"location_history":"[7,11,4,9,6,10,7,8,5]","action_history":"[1,0,0,0,1,1,0,0]","door_history":"[0,1,1,1,0,0,1,1]","location_rts":"[2038,1115,412,665,715,457,1724,756]","trial_type":"two-door-navigation","trial_index":20,"time_elapsed":459270,"internal_node_id":"0.0-2.0-18.0"},{"group":"dicyclic group of order 12","room_assignment":["brown","green","purple","blue","red","yellow","pink","ivory","orange","grey","olive","cyan"],"door_color_assignment":["white","black"],"door_generator_assignment":[1,0],"goal":6,"start":5,"action_noise":0.15,"location_history":"[5,9,6]","action_history":"[1,0]","door_history":"[0,1]","location_rts":"[1936,644]","trial_type":"two-door-navigation","trial_index":21,"time_elapsed":467501,"internal_node_id":"0.0-2.0-19.0"},{"group":"dicyclic group of order 12","room_assignment":["brown","green","purple","blue","red","yellow","pink","ivory","orange","grey","olive","cyan"],"door_color_assignment":["white","black"],"door_generator_assignment":[1,0],"goal":3,"start":6,"action_noise":0.15,"location_history":"[6,10,2,3]","action_history":"[0,1,1]","door_history":"[1,0,0]","location_rts":"[1864,853,341]","trial_type":"two-door-navigation","trial_index":22,"time_elapsed":477285,"internal_node_id":"0.0-2.0-20.0"},{"group":"dicyclic group of order 12","room_assignment":["brown","green","purple","blue","red","yellow","pink","ivory","orange","grey","olive","cyan"],"door_color_assignment":["white","black"],"door_generator_assignment":[1,0],"goal":1,"start":3,"action_noise":0.15,"location_history":"[3,0,1]","action_history":"[0,0]","door_history":"[1,1]","location_rts":"[2648,389]","trial_type":"two-door-navigation","trial_index":23,"time_elapsed":485981,"internal_node_id":"0.0-2.0-21.0"},{"group":"dicyclic group of order 12","room_assignment":["brown","green","purple","blue","red","yellow","pink","ivory","orange","grey","olive","cyan"],"door_color_assignment":["white","black"],"door_generator_assignment":[1,0],"goal":9,"start":1,"action_noise":0.15,"location_history":"[1,5,10,7,8,5,9]","action_history":"[0,0,0,0,0,1]","door_history":"[1,1,1,1,1,0]","location_rts":"[2062,956,1175,723,588,740]","trial_type":"two-door-navigation","trial_index":24,"time_elapsed":502160,"internal_node_id":"0.0-2.0-22.0"},{"group":"dicyclic group of order 12","room_assignment":["brown","green","purple","blue","red","yellow","pink","ivory","orange","grey","olive","cyan"],"door_color_assignment":["white","black"],"door_generator_assignment":[1,0],"goal":3,"start":9,"action_noise":0.15,"location_history":"[9,1,2,3]","action_history":"[1,0,0]","door_history":"[0,1,1]","location_rts":"[1435,772,613]","trial_type":"two-door-navigation","trial_index":25,"time_elapsed":511702,"internal_node_id":"0.0-2.0-23.0"},{"group":"dicyclic group of order 12","room_assignment":["brown","green","purple","blue","red","yellow","pink","ivory","orange","grey","olive","cyan"],"door_color_assignment":["white","black"],"door_generator_assignment":[1,0],"goal":4,"start":3,"action_noise":0.15,"location_history":"[3,7,8,5,10,7,8,5,10,7,11,4]","action_history":"[1,1,0,0,0,0,0,0,0,1,0]","door_history":"[0,0,1,1,1,1,1,1,1,0,1]","location_rts":"[1529,614,783,484,442,580,434,399,570,642,716]","trial_type":"two-door-navigation","trial_index":26,"time_elapsed":534197,"internal_node_id":"0.0-2.0-24.0"},{"group":"dicyclic group of order 12","room_assignment":["brown","green","purple","blue","red","yellow","pink","ivory","orange","grey","olive","cyan"],"door_color_assignment":["white","black"],"door_generator_assignment":[1,0],"goal":2,"start":4,"action_noise":0.15,"location_history":"[4,8,5,10,7,8,0,1,5,10,7,8,5,9,1,2]","action_history":"[1,0,0,0,0,1,0,0,0,0,0,0,1,1,0]","door_history":"[0,1,1,1,1,0,1,1,1,1,1,1,0,0,1]","location_rts":"[2947,669,345,452,1354,517,1197,672,556,409,570,622,635,647,816]","trial_type":"two-door-navigation","trial_index":27,"time_elapsed":566123,"internal_node_id":"0.0-2.0-25.0"},{"group":"dicyclic group of order 12","room_assignment":["brown","green","purple","blue","red","yellow","pink","ivory","orange","grey","olive","cyan"],"door_color_assignment":["white","black"],"door_generator_assignment":[1,0],"goal":1,"start":2,"action_noise":0.15,"location_history":"[2,6,11,3,7,8,0,1]","action_history":"[0,0,0,0,0,1,0]","door_history":"[1,1,1,1,1,0,1]","location_rts":"[2577,396,1267,514,697,1162,758]","trial_type":"two-door-navigation","trial_index":28,"time_elapsed":584470,"internal_node_id":"0.0-2.0-26.0"},{"group":"dicyclic group of order 12","room_assignment":["brown","green","purple","blue","red","yellow","pink","ivory","orange","grey","olive","cyan"],"door_color_assignment":["white","black"],"door_generator_assignment":[1,0],"goal":8,"start":1,"action_noise":0.15,"location_history":"[1,2,6,11,4,9,6,10,7,8]","action_history":"[1,1,0,0,0,0,0,0,0]","door_history":"[0,0,1,1,1,1,1,1,1]","location_rts":"[1591,1576,1207,371,509,2138,1468,512,546]","trial_type":"two-door-navigation","trial_index":29,"time_elapsed":607569,"internal_node_id":"0.0-2.0-27.0"},{"group":"dicyclic group of order 12","room_assignment":["brown","green","purple","blue","red","yellow","pink","ivory","orange","grey","olive","cyan"],"door_color_assignment":["white","black"],"door_generator_assignment":[1,0],"goal":10,"start":8,"action_noise":0.15,"location_history":"[8,0,1,2,3,0,4,8,5,10]","action_history":"[1,0,0,0,0,1,1,0,0]","door_history":"[0,1,1,1,1,0,0,1,1]","location_rts":"[1248,1138,1256,477,966,1321,634,1081,939]","trial_type":"two-door-navigation","trial_index":30,"time_elapsed":629739,"internal_node_id":"0.0-2.0-28.0"},{"group":"dicyclic group of order 12","room_assignment":["brown","green","purple","blue","red","yellow","pink","ivory","orange","grey","olive","cyan"],"door_color_assignment":["white","black"],"door_generator_assignment":[1,0],"goal":7,"start":10,"action_noise":0.15,"location_history":"[10,7]","action_history":"[0]","door_history":"[1]","location_rts":"[1728]","trial_type":"two-door-navigation","trial_index":31,"time_elapsed":636042,"internal_node_id":"0.0-2.0-29.0"},{"group":"dicyclic group of order 12","room_assignment":["brown","green","purple","blue","red","yellow","pink","ivory","orange","grey","olive","cyan"],"door_color_assignment":["white","black"],"door_generator_assignment":[1,0],"goal":6,"start":7,"action_noise":0.15,"location_history":"[7,11,4,9,6]","action_history":"[1,0,0,0]","door_history":"[0,1,1,1]","location_rts":"[2748,2623,661,987]","trial_type":"two-door-navigation","trial_index":32,"time_elapsed":650859,"internal_node_id":"0.0-2.0-30.0"},{"group":"dicyclic group of order 12","room_assignment":["brown","green","purple","blue","red","yellow","pink","ivory","orange","grey","olive","cyan"],"door_color_assignment":["white","black"],"door_generator_assignment":[1,0],"goal":0,"start":6,"action_noise":0.15,"location_history":"[6,11,4,8,0]","action_history":"[0,0,0,1]","door_history":"[1,1,1,0]","location_rts":"[6564,547,434,1128]","trial_type":"two-door-navigation","trial_index":33,"time_elapsed":667296,"internal_node_id":"0.0-2.0-31.0"},{"group":"dicyclic group of order 12","room_assignment":["brown","green","purple","blue","red","yellow","pink","ivory","orange","grey","olive","cyan"],"door_color_assignment":["white","black"],"door_generator_assignment":[1,0],"goal":11,"start":0,"action_noise":0.15,"location_history":"[0,4,9,6,11]","action_history":"[1,0,0,0]","door_history":"[0,1,1,1]","location_rts":"[2944,838,898,633]","trial_type":"two-door-navigation","trial_index":34,"time_elapsed":680390,"internal_node_id":"0.0-2.0-32.0"},{"group":"dicyclic group of order 12","room_assignment":["brown","green","purple","blue","red","yellow","pink","ivory","orange","grey","olive","cyan"],"door_color_assignment":["white","black"],"door_generator_assignment":[1,0],"goal":9,"start":11,"action_noise":0.15,"location_history":"[11,3,0,1,2,3,0,4,8,5,10,7,11,4,8,0,1,2,6,11,4,9]","action_history":"[1,0,0,0,0,0,1,1,0,0,0,0,0,1,1,0,0,0,0,0,0]","door_history":"[0,1,1,1,1,1,0,0,1,1,1,1,1,0,0,1,1,1,1,1,1]","location_rts":"[1558,1095,805,401,415,634,598,610,614,600,672,889,528,297,1064,611,355,480,461,424,460]","trial_type":"two-door-navigation","trial_index":35,"time_elapsed":719992,"internal_node_id":"0.0-2.0-33.0"},{"group":"dicyclic group of order 12","room_assignment":["brown","green","purple","blue","red","yellow","pink","ivory","orange","grey","olive","cyan"],"door_color_assignment":["white","black"],"door_generator_assignment":[1,0],"goal":5,"start":9,"action_noise":0.15,"location_history":"[9,6,11,4,9,1,5]","action_history":"[0,0,0,0,1,0]","door_history":"[1,1,1,1,0,1]","location_rts":"[2488,574,516,442,1314,475]","trial_type":"two-door-navigation","trial_index":36,"time_elapsed":735761,"internal_node_id":"0.0-2.0-34.0"},{"view_history":"[{\"page_index\":0,\"viewing_time\":8247}]","rt":8248,"trial_type":"instructions","trial_index":37,"time_elapsed":745012,"internal_node_id":"0.0-3.0"},{"view_history":"[{\"page_index\":0,\"viewing_time\":3814},{\"page_index\":1,\"viewing_time\":7807}]","rt":11621,"trial_type":"instructions","trial_index":38,"time_elapsed":757636,"internal_node_id":"0.0-4.0"},{"group":"dicyclic group of order 12","fractal_assignment":["../images/grn_prp.png","../images/wht_red.png","../images/ylw_slt.png","../images/grn_red.png","../images/gry_blk.png","../images/org_blu.png","../images/grn_blu.png","../images/red_prp.png","../images/pnk_blu.png","../images/ylw_pnk.png","../images/blu_wht.png","../images/cyn_red.png"],"mutagen_generator_assignment":[0,1],"goal":7,"start":11,"action_noise":0.15,"location_history":"[11,3,0,4,9,6,11,4,9,1,5,10,7]","action_history":"[1,1,1,0,0,1,0,0,1,1,1,0]","mutagen_history":"[1,1,1,0,0,1,0,0,1,1,1,0]","location_rts":"[9732,602,804,544,1262,1110,883,710,1023,635,684,1023]","trial_type":"fractal-mutation","trial_index":39,"time_elapsed":794006,"internal_node_id":"0.0-5.0-0.0"},{"group":"dicyclic group of order 12","fractal_assignment":["../images/grn_prp.png","../images/wht_red.png","../images/ylw_slt.png","../images/grn_red.png","../images/gry_blk.png","../images/org_blu.png","../images/grn_blu.png","../images/red_prp.png","../images/pnk_blu.png","../images/ylw_pnk.png","../images/blu_wht.png","../images/cyn_red.png"],"mutagen_generator_assignment":[0,1],"goal":8,"start":7,"action_noise":0.15,"location_history":"[7,8]","action_history":"[0]","mutagen_history":"[0]","location_rts":"[1466]","trial_type":"fractal-mutation","trial_index":40,"time_elapsed":800072,"internal_node_id":"0.0-5.0-1.0"},{"group":"dicyclic group of order 12","fractal_assignment":["../images/grn_prp.png","../images/wht_red.png","../images/ylw_slt.png","../images/grn_red.png","../images/gry_blk.png","../images/org_blu.png","../images/grn_blu.png","../images/red_prp.png","../images/pnk_blu.png","../images/ylw_pnk.png","../images/blu_wht.png","../images/cyn_red.png"],"mutagen_generator_assignment":[0,1],"goal":4,"start":8,"action_noise":0.15,"location_history":"[8,0,1,2,3,7,8,5,10,7,8,5,10,2,6,11,4]","action_history":"[1,0,0,0,1,0,0,0,0,0,0,0,1,1,0,0]","mutagen_history":"[1,0,0,0,1,0,0,0,0,0,0,0,1,1,0,0]","location_rts":"[1558,621,369,357,1262,537,451,615,723,652,744,418,342,1255,637,459]","trial_type":"fractal-mutation","trial_index":41,"time_elapsed":832743,"internal_node_id":"0.0-5.0-2.0"},{"group":"dicyclic group of order 12","fractal_assignment":["../images/grn_prp.png","../images/wht_red.png","../images/ylw_slt.png","../images/grn_red.png","../images/gry_blk.png","../images/org_blu.png","../images/grn_blu.png","../images/red_prp.png","../images/pnk_blu.png","../images/ylw_pnk.png","../images/blu_wht.png","../images/cyn_red.png"],"mutagen_generator_assignment":[0,1],"goal":5,"start":4,"action_noise":0.15,"location_history":"[4,8,5]","action_history":"[1,0]","mutagen_history":"[1,0]","location_rts":"[1729,675]","trial_type":"fractal-mutation","trial_index":42,"time_elapsed":840949,"internal_node_id":"0.0-5.0-3.0"},{"group":"dicyclic group of order 12","fractal_assignment":["../images/grn_prp.png","../images/wht_red.png","../images/ylw_slt.png","../images/grn_red.png","../images/gry_blk.png","../images/org_blu.png","../images/grn_blu.png","../images/red_prp.png","../images/pnk_blu.png","../images/ylw_pnk.png","../images/blu_wht.png","../images/cyn_red.png"],"mutagen_generator_assignment":[0,1],"goal":10,"start":5,"action_noise":0.15,"location_history":"[5,10]","action_history":"[0]","mutagen_history":"[0]","location_rts":"[1719]","trial_type":"fractal-mutation","trial_index":43,"time_elapsed":847266,"internal_node_id":"0.0-5.0-4.0"},{"group":"dicyclic group of order 12","fractal_assignment":["../images/grn_prp.png","../images/wht_red.png","../images/ylw_slt.png","../images/grn_red.png","../images/gry_blk.png","../images/org_blu.png","../images/grn_blu.png","../images/red_prp.png","../images/pnk_blu.png","../images/ylw_pnk.png","../images/blu_wht.png","../images/cyn_red.png"],"mutagen_generator_assignment":[0,1],"goal":1,"start":10,"action_noise":0.15,"location_history":"[10,7,8,5,10,2,3,0,1]","action_history":"[0,0,0,0,1,0,0,0]","mutagen_history":"[0,0,0,0,1,0,0,0]","location_rts":"[1693,485,441,739,727,1863,451,480]","trial_type":"fractal-mutation","trial_index":44,"time_elapsed":866414,"internal_node_id":"0.0-5.0-5.0"},{"group":"dicyclic group of order 12","fractal_assignment":["../images/grn_prp.png","../images/wht_red.png","../images/ylw_slt.png","../images/grn_red.png","../images/gry_blk.png","../images/org_blu.png","../images/grn_blu.png","../images/red_prp.png","../images/pnk_blu.png","../images/ylw_pnk.png","../images/blu_wht.png","../images/cyn_red.png"],"mutagen_generator_assignment":[0,1],"goal":6,"start":1,"action_noise":0.15,"location_history":"[1,5,9,6]","action_history":"[1,0,0]","mutagen_history":"[1,0,0]","location_rts":"[2112,822,405]","trial_type":"fractal-mutation","trial_index":45,"time_elapsed":876622,"internal_node_id":"0.0-5.0-6.0"},{"group":"dicyclic group of order 12","fractal_assignment":["../images/grn_prp.png","../images/wht_red.png","../images/ylw_slt.png","../images/grn_red.png","../images/gry_blk.png","../images/org_blu.png","../images/grn_blu.png","../images/red_prp.png","../images/pnk_blu.png","../images/ylw_pnk.png","../images/blu_wht.png","../images/cyn_red.png"],"mutagen_generator_assignment":[0,1],"goal":9,"start":6,"action_noise":0.15,"location_history":"[6,10,7,8,5,9]","action_history":"[1,0,0,0,1]","mutagen_history":"[1,0,0,0,1]","location_rts":"[1846,1331,591,405,769]","trial_type":"fractal-mutation","trial_index":46,"time_elapsed":890674,"internal_node_id":"0.0-5.0-7.0"},{"group":"dicyclic group of order 12","fractal_assignment":["../images/grn_prp.png","../images/wht_red.png","../images/ylw_slt.png","../images/grn_red.png","../images/gry_blk.png","../images/org_blu.png","../images/grn_blu.png","../images/red_prp.png","../images/pnk_blu.png","../images/ylw_pnk.png","../images/blu_wht.png","../images/cyn_red.png"],"mutagen_generator_assignment":[0,1],"goal":2,"start":9,"action_noise":0.15,"location_history":"[9,6,10,2]","action_history":"[0,1,1]","mutagen_history":"[0,1,1]","location_rts":"[1747,465,661]","trial_type":"fractal-mutation","trial_index":47,"time_elapsed":900459,"internal_node_id":"0.0-5.0-8.0"},{"group":"dicyclic group of order 12","fractal_assignment":["../images/grn_prp.png","../images/wht_red.png","../images/ylw_slt.png","../images/grn_red.png","../images/gry_blk.png","../images/org_blu.png","../images/grn_blu.png","../images/red_prp.png","../images/pnk_blu.png","../images/ylw_pnk.png","../images/blu_wht.png","../images/cyn_red.png"],"mutagen_generator_assignment":[0,1],"goal":0,"start":2,"action_noise":0.15,"location_history":"[2,6,10,2,3,7,8,0]","action_history":"[0,1,1,0,0,0,1]","mutagen_history":"[0,1,1,0,0,0,1]","location_rts":"[1681,605,374,1025,581,551,835]","trial_type":"fractal-mutation","trial_index":48,"time_elapsed":917489,"internal_node_id":"0.0-5.0-9.0"},{"group":"dicyclic group of order 12","fractal_assignment":["../images/grn_prp.png","../images/wht_red.png","../images/ylw_slt.png","../images/grn_red.png","../images/gry_blk.png","../images/org_blu.png","../images/grn_blu.png","../images/red_prp.png","../images/pnk_blu.png","../images/ylw_pnk.png","../images/blu_wht.png","../images/cyn_red.png"],"mutagen_generator_assignment":[0,1],"goal":3,"start":0,"action_noise":0.15,"location_history":"[0,1,5,9,1,2,3]","action_history":"[0,1,1,0,0,0]","mutagen_history":"[0,1,1,0,0,0]","location_rts":"[1700,918,519,813,553,570]","trial_type":"fractal-mutation","trial_index":49,"time_elapsed":932810,"internal_node_id":"0.0-5.0-10.0"},{"group":"dicyclic group of order 12","fractal_assignment":["../images/grn_prp.png","../images/wht_red.png","../images/ylw_slt.png","../images/grn_red.png","../images/gry_blk.png","../images/org_blu.png","../images/grn_blu.png","../images/red_prp.png","../images/pnk_blu.png","../images/ylw_pnk.png","../images/blu_wht.png","../images/cyn_red.png"],"mutagen_generator_assignment":[0,1],"goal":10,"start":3,"action_noise":0.15,"location_history":"[3,7,8,0,1,5,10]","action_history":"[1,0,0,0,1,0]","mutagen_history":"[1,0,0,0,1,0]","location_rts":"[1570,1156,334,324,543,611]","trial_type":"fractal-mutation","trial_index":50,"time_elapsed":947551,"internal_node_id":"0.0-5.0-11.0"},{"group":"dicyclic group of order 12","fractal_assignment":["../images/grn_prp.png","../images/wht_red.png","../images/ylw_slt.png","../images/grn_red.png","../images/gry_blk.png","../images/org_blu.png","../images/grn_blu.png","../images/red_prp.png","../images/pnk_blu.png","../images/ylw_pnk.png","../images/blu_wht.png","../images/cyn_red.png"],"mutagen_generator_assignment":[0,1],"goal":8,"start":10,"action_noise":0.15,"location_history":"[10,7,11,3,7,8]","action_history":"[0,1,1,1,0]","mutagen_history":"[0,1,1,1,0]","location_rts":"[1612,710,980,521,1573]","trial_type":"fractal-mutation","trial_index":51,"time_elapsed":962034,"internal_node_id":"0.0-5.0-12.0"},{"group":"dicyclic group of order 12","fractal_assignment":["../images/grn_prp.png","../images/wht_red.png","../images/ylw_slt.png","../images/grn_red.png","../images/gry_blk.png","../images/org_blu.png","../images/grn_blu.png","../images/red_prp.png","../images/pnk_blu.png","../images/ylw_pnk.png","../images/blu_wht.png","../images/cyn_red.png"],"mutagen_generator_assignment":[0,1],"goal":4,"start":8,"action_noise":0.15,"location_history":"[8,5,9,6,11,3,7,11,4]","action_history":"[0,1,0,0,1,1,1,0]","mutagen_history":"[0,1,0,0,1,1,1,0]","location_rts":"[2105,371,602,926,643,848,1051,729]","trial_type":"fractal-mutation","trial_index":52,"time_elapsed":981923,"internal_node_id":"0.0-5.0-13.0"},{"group":"dicyclic group of order 12","fractal_assignment":["../images/grn_prp.png","../images/wht_red.png","../images/ylw_slt.png","../images/grn_red.png","../images/gry_blk.png","../images/org_blu.png","../images/grn_blu.png","../images/red_prp.png","../images/pnk_blu.png","../images/ylw_pnk.png","../images/blu_wht.png","../images/cyn_red.png"],"mutagen_generator_assignment":[0,1],"goal":0,"start":4,"action_noise":0.15,"location_history":"[4,9,1,5,10,7,8,5,9,1,5,10,2,3,0]","action_history":"[0,1,1,0,0,0,1,1,0,0,0,1,0,0]","mutagen_history":"[0,1,1,0,0,0,1,1,0,0,0,1,0,0]","location_rts":"[1262,1395,1026,442,1263,1169,798,841,568,436,1126,927,815,589]","trial_type":"fractal-mutation","trial_index":53,"time_elapsed":1013956,"internal_node_id":"0.0-5.0-14.0"},{"group":"dicyclic group of order 12","fractal_assignment":["../images/grn_prp.png","../images/wht_red.png","../images/ylw_slt.png","../images/grn_red.png","../images/gry_blk.png","../images/org_blu.png","../images/grn_blu.png","../images/red_prp.png","../images/pnk_blu.png","../images/ylw_pnk.png","../images/blu_wht.png","../images/cyn_red.png"],"mutagen_generator_assignment":[0,1],"goal":11,"start":0,"action_noise":0.15,"location_history":"[0,1,5,9,1,2,3,0,4,8,0,1,5,9,6,10,7,8,5,10,2,6,10,2,6,10,7,8,0,1,5,9,1,5,10,2,3,7,8,5,9,6,10,2,3,0,1,2,3,0,4,8,0,4,9,1,2,3,0,1,2,3,0,4,8,0,4,9,1,2,3,0,1,5,9,1,5,9,1,2,3,7,11]","action_history":"[0,1,1,0,0,0,0,1,1,1,0,1,0,0,1,0,0,0,0,1,1,1,1,1,1,0,1,1,1,0,1,1,1,0,0,1,1,0,0,1,1,1,1,0,0,0,0,0,0,1,0,1,1,0,1,0,0,0,0,0,1,1,1,1,1,1,0,1,0,0,0,0,1,1,1,1,1,1,0,0,1,1]","mutagen_history":"[0,1,1,0,0,0,0,1,1,1,0,1,0,0,1,0,0,0,0,1,1,1,1,1,1,0,1,1,1,0,1,1,1,0,0,1,1,0,0,1,1,1,1,0,0,0,0,0,0,1,0,1,1,0,1,0,0,0,0,0,1,1,1,1,1,1,0,1,0,0,0,0,1,1,1,1,1,1,0,0,1,1]","location_rts":"[2174,804,538,559,462,732,586,729,746,973,880,876,776,619,1101,1796,1105,1663,919,868,580,496,556,786,529,642,686,689,721,839,636,509,435,440,826,615,544,860,736,994,869,897,792,494,374,462,484,509,425,1510,967,987,1315,883,841,861,392,441,933,528,1187,298,661,957,606,727,543,1470,776,406,454,884,854,544,369,411,390,1821,353,1113,678,446]","trial_type":"fractal-mutation","trial_index":54,"time_elapsed":1173315,"internal_node_id":"0.0-5.0-15.0"},{"group":"dicyclic group of order 12","fractal_assignment":["../images/grn_prp.png","../images/wht_red.png","../images/ylw_slt.png","../images/grn_red.png","../images/gry_blk.png","../images/org_blu.png","../images/grn_blu.png","../images/red_prp.png","../images/pnk_blu.png","../images/ylw_pnk.png","../images/blu_wht.png","../images/cyn_red.png"],"mutagen_generator_assignment":[0,1],"goal":2,"start":11,"action_noise":0.15,"location_history":"[11,4,8,0,1,5,9,6,10,2]","action_history":"[0,1,1,1,1,1,0,1,1]","mutagen_history":"[0,1,1,1,1,1,0,1,1]","location_rts":"[1577,1314,342,446,436,585,1128,633,380]","trial_type":"fractal-mutation","trial_index":55,"time_elapsed":1193790,"internal_node_id":"0.0-5.0-16.0"},{"group":"dicyclic group of order 12","fractal_assignment":["../images/grn_prp.png","../images/wht_red.png","../images/ylw_slt.png","../images/grn_red.png","../images/gry_blk.png","../images/org_blu.png","../images/grn_blu.png","../images/red_prp.png","../images/pnk_blu.png","../images/ylw_pnk.png","../images/blu_wht.png","../images/cyn_red.png"],"mutagen_generator_assignment":[0,1],"goal":7,"start":2,"action_noise":0.15,"location_history":"[2,3,7]","action_history":"[0,1]","mutagen_history":"[0,1]","location_rts":"[2949,1203]","trial_type":"fractal-mutation","trial_index":56,"time_elapsed":1203669,"internal_node_id":"0.0-5.0-17.0"},{"group":"dicyclic group of order 12","fractal_assignment":["../images/grn_prp.png","../images/wht_red.png","../images/ylw_slt.png","../images/grn_red.png","../images/gry_blk.png","../images/org_blu.png","../images/grn_blu.png","../images/red_prp.png","../images/pnk_blu.png","../images/ylw_pnk.png","../images/blu_wht.png","../images/cyn_red.png"],"mutagen_generator_assignment":[0,1],"goal":5,"start":7,"action_noise":0.15,"location_history":"[7,8,0,4,9,6,10,2,3,0,4,8,0,1,5]","action_history":"[0,1,1,0,1,1,1,0,0,1,1,1,0,1]","mutagen_history":"[0,1,1,0,1,1,1,0,0,1,1,1,0,1]","location_rts":"[1348,897,473,898,647,609,425,1065,1046,802,390,405,793,677]","trial_type":"fractal-mutation","trial_index":57,"time_elapsed":1233495,"internal_node_id":"0.0-5.0-18.0"},{"group":"dicyclic group of order 12","fractal_assignment":["../images/grn_prp.png","../images/wht_red.png","../images/ylw_slt.png","../images/grn_red.png","../images/gry_blk.png","../images/org_blu.png","../images/grn_blu.png","../images/red_prp.png","../images/pnk_blu.png","../images/ylw_pnk.png","../images/blu_wht.png","../images/cyn_red.png"],"mutagen_generator_assignment":[0,1],"goal":6,"start":5,"action_noise":0.15,"location_history":"[5,9,1,2,3,7,11,3,7,8,0,1,2,3,7,11,3,0,4,9,1,5,9,1,2,6]","action_history":"[1,1,0,0,1,1,1,1,0,1,0,0,0,1,1,1,1,1,0,1,1,1,1,0,1]","mutagen_history":"[1,1,0,0,1,1,1,1,0,1,0,0,0,1,1,1,1,1,0,1,1,1,1,0,1]","location_rts":"[2186,444,523,571,912,792,763,663,1120,938,705,1040,916,530,548,814,504,1230,956,744,349,295,365,604,537]","trial_type":"fractal-mutation","trial_index":58,"time_elapsed":1284597,"internal_node_id":"0.0-5.0-19.0"},{"group":"dicyclic group of order 12","fractal_assignment":["../images/grn_prp.png","../images/wht_red.png","../images/ylw_slt.png","../images/grn_red.png","../images/gry_blk.png","../images/org_blu.png","../images/grn_blu.png","../images/red_prp.png","../images/pnk_blu.png","../images/ylw_pnk.png","../images/blu_wht.png","../images/cyn_red.png"],"mutagen_generator_assignment":[0,1],"goal":3,"start":6,"action_noise":0.15,"location_history":"[6,10,2,3]","action_history":"[1,1,0]","mutagen_history":"[1,1,0]","location_rts":"[1603,1047,500]","trial_type":"fractal-mutation","trial_index":59,"time_elapsed":1294681,"internal_node_id":"0.0-5.0-20.0"},{"group":"dicyclic group of order 12","fractal_assignment":["../images/grn_prp.png","../images/wht_red.png","../images/ylw_slt.png","../images/grn_red.png","../images/gry_blk.png","../images/org_blu.png","../images/grn_blu.png","../images/red_prp.png","../images/pnk_blu.png","../images/ylw_pnk.png","../images/blu_wht.png","../images/cyn_red.png"],"mutagen_generator_assignment":[0,1],"goal":1,"start":3,"action_noise":0.15,"location_history":"[3,0,1]","action_history":"[0,0]","mutagen_history":"[0,0]","location_rts":"[1313,1423]","trial_type":"fractal-mutation","trial_index":60,"time_elapsed":1303089,"internal_node_id":"0.0-5.0-21.0"},{"group":"dicyclic group of order 12","fractal_assignment":["../images/grn_prp.png","../images/wht_red.png","../images/ylw_slt.png","../images/grn_red.png","../images/gry_blk.png","../images/org_blu.png","../images/grn_blu.png","../images/red_prp.png","../images/pnk_blu.png","../images/ylw_pnk.png","../images/blu_wht.png","../images/cyn_red.png"],"mutagen_generator_assignment":[0,1],"goal":9,"start":1,"action_noise":0.15,"location_history":"[1,5,9]","action_history":"[1,1]","mutagen_history":"[1,1]","location_rts":"[1311,360]","trial_type":"fractal-mutation","trial_index":61,"time_elapsed":1310604,"internal_node_id":"0.0-5.0-22.0"},{"group":"dicyclic group of order 12","fractal_assignment":["../images/grn_prp.png","../images/wht_red.png","../images/ylw_slt.png","../images/grn_red.png","../images/gry_blk.png","../images/org_blu.png","../images/grn_blu.png","../images/red_prp.png","../images/pnk_blu.png","../images/ylw_pnk.png","../images/blu_wht.png","../images/cyn_red.png"],"mutagen_generator_assignment":[0,1],"goal":3,"start":9,"action_noise":0.15,"location_history":"[9,6,10,2,6,11,3]","action_history":"[0,1,1,1,0,1]","mutagen_history":"[0,1,1,1,0,1]","location_rts":"[1715,775,424,428,1098,794]","trial_type":"fractal-mutation","trial_index":62,"time_elapsed":1326165,"internal_node_id":"0.0-5.0-23.0"},{"group":"dicyclic group of order 12","fractal_assignment":["../images/grn_prp.png","../images/wht_red.png","../images/ylw_slt.png","../images/grn_red.png","../images/gry_blk.png","../images/org_blu.png","../images/grn_blu.png","../images/red_prp.png","../images/pnk_blu.png","../images/ylw_pnk.png","../images/blu_wht.png","../images/cyn_red.png"],"mutagen_generator_assignment":[0,1],"goal":4,"start":3,"action_noise":0.15,"location_history":"[3,7,11,4]","action_history":"[1,1,1]","mutagen_history":"[1,1,1]","location_rts":"[1403,507,413]","trial_type":"fractal-mutation","trial_index":63,"time_elapsed":1335451,"internal_node_id":"0.0-5.0-24.0"},{"group":"dicyclic group of order 12","fractal_assignment":["../images/grn_prp.png","../images/wht_red.png","../images/ylw_slt.png","../images/grn_red.png","../images/gry_blk.png","../images/org_blu.png","../images/grn_blu.png","../images/red_prp.png","../images/pnk_blu.png","../images/ylw_pnk.png","../images/blu_wht.png","../images/cyn_red.png"],"mutagen_generator_assignment":[0,1],"goal":2,"start":4,"action_noise":0.15,"location_history":"[4,8,0,4,9,1,5,9,6,11,4,9,6,11,3,7,11,3,7,11,4,8,5,10,2]","action_history":"[0,1,1,1,1,1,1,1,0,0,0,0,1,1,0,1,1,1,1,1,1,0,0,1]","mutagen_history":"[0,1,1,1,1,1,1,1,0,0,0,0,1,1,0,1,1,1,1,1,1,0,0,1]","location_rts":"[1188,705,304,515,547,527,395,398,893,847,815,595,665,523,879,646,422,369,560,664,518,564,766,659]","trial_type":"fractal-mutation","trial_index":64,"time_elapsed":1381213,"internal_node_id":"0.0-5.0-25.0"},{"group":"dicyclic group of order 12","fractal_assignment":["../images/grn_prp.png","../images/wht_red.png","../images/ylw_slt.png","../images/grn_red.png","../images/gry_blk.png","../images/org_blu.png","../images/grn_blu.png","../images/red_prp.png","../images/pnk_blu.png","../images/ylw_pnk.png","../images/blu_wht.png","../images/cyn_red.png"],"mutagen_generator_assignment":[0,1],"goal":1,"start":2,"action_noise":0.15,"location_history":"[2,3,0,4,8,5,10,2,6,10,7,11,3,0,1]","action_history":"[0,0,0,1,0,1,1,1,1,0,1,1,0,0]","mutagen_history":"[0,0,0,1,0,1,1,1,1,0,1,1,0,0]","location_rts":"[1505,1444,502,621,1179,1113,697,491,643,638,944,632,704,588]","trial_type":"fractal-mutation","trial_index":65,"time_elapsed":1412165,"internal_node_id":"0.0-5.0-26.0"},{"group":"dicyclic group of order 12","fractal_assignment":["../images/grn_prp.png","../images/wht_red.png","../images/ylw_slt.png","../images/grn_red.png","../images/gry_blk.png","../images/org_blu.png","../images/grn_blu.png","../images/red_prp.png","../images/pnk_blu.png","../images/ylw_pnk.png","../images/blu_wht.png","../images/cyn_red.png"],"mutagen_generator_assignment":[0,1],"goal":8,"start":1,"action_noise":0.15,"location_history":"[1,5,9,6,10,7,11,3,7,8]","action_history":"[1,1,0,1,0,1,1,1,0]","mutagen_history":"[1,1,0,1,0,1,1,1,0]","location_rts":"[1329,565,716,671,813,1143,583,408,945]","trial_type":"fractal-mutation","trial_index":66,"time_elapsed":1433166,"internal_node_id":"0.0-5.0-27.0"},{"group":"dicyclic group of order 12","fractal_assignment":["../images/grn_prp.png","../images/wht_red.png","../images/ylw_slt.png","../images/grn_red.png","../images/gry_blk.png","../images/org_blu.png","../images/grn_blu.png","../images/red_prp.png","../images/pnk_blu.png","../images/ylw_pnk.png","../images/blu_wht.png","../images/cyn_red.png"],"mutagen_generator_assignment":[0,1],"goal":10,"start":8,"action_noise":0.15,"location_history":"[8,0,4,8,0,1,5,9,1,2,6,10]","action_history":"[0,1,1,1,0,1,1,1,0,1,1]","mutagen_history":"[0,1,1,1,0,1,1,1,0,1,1]","location_rts":"[3446,710,953,476,574,655,338,525,509,605,403]","trial_type":"fractal-mutation","trial_index":67,"time_elapsed":1458456,"internal_node_id":"0.0-5.0-28.0"},{"group":"dicyclic group of order 12","fractal_assignment":["../images/grn_prp.png","../images/wht_red.png","../images/ylw_slt.png","../images/grn_red.png","../images/gry_blk.png","../images/org_blu.png","../images/grn_blu.png","../images/red_prp.png","../images/pnk_blu.png","../images/ylw_pnk.png","../images/blu_wht.png","../images/cyn_red.png"],"mutagen_generator_assignment":[0,1],"goal":7,"start":10,"action_noise":0.15,"location_history":"[10,2,6,11,3,7]","action_history":"[1,1,0,1,1]","mutagen_history":"[1,1,0,1,1]","location_rts":"[1676,421,556,659,394]","trial_type":"fractal-mutation","trial_index":68,"time_elapsed":1471425,"internal_node_id":"0.0-5.0-29.0"},{"group":"dicyclic group of order 12","fractal_assignment":["../images/grn_prp.png","../images/wht_red.png","../images/ylw_slt.png","../images/grn_red.png","../images/gry_blk.png","../images/org_blu.png","../images/grn_blu.png","../images/red_prp.png","../images/pnk_blu.png","../images/ylw_pnk.png","../images/blu_wht.png","../images/cyn_red.png"],"mutagen_generator_assignment":[0,1],"goal":6,"start":7,"action_noise":0.15,"location_history":"[7,11,4,8,0,4,9,6]","action_history":"[1,0,1,1,1,0,0]","mutagen_history":"[1,0,1,1,1,0,0]","location_rts":"[4148,1005,649,689,888,560,883]","trial_type":"fractal-mutation","trial_index":69,"time_elapsed":1491788,"internal_node_id":"0.0-5.0-30.0"},{"group":"dicyclic group of order 12","fractal_assignment":["../images/grn_prp.png","../images/wht_red.png","../images/ylw_slt.png","../images/grn_red.png","../images/gry_blk.png","../images/org_blu.png","../images/grn_blu.png","../images/red_prp.png","../images/pnk_blu.png","../images/ylw_pnk.png","../images/blu_wht.png","../images/cyn_red.png"],"mutagen_generator_assignment":[0,1],"goal":0,"start":6,"action_noise":0.15,"location_history":"[6,11,4,8,0]","action_history":"[0,1,1,1]","mutagen_history":"[0,1,1,1]","location_rts":"[2087,653,1006,939]","trial_type":"fractal-mutation","trial_index":70,"time_elapsed":1504556,"internal_node_id":"0.0-5.0-31.0"},{"group":"dicyclic group of order 12","fractal_assignment":["../images/grn_prp.png","../images/wht_red.png","../images/ylw_slt.png","../images/grn_red.png","../images/gry_blk.png","../images/org_blu.png","../images/grn_blu.png","../images/red_prp.png","../images/pnk_blu.png","../images/ylw_pnk.png","../images/blu_wht.png","../images/cyn_red.png"],"mutagen_generator_assignment":[0,1],"goal":11,"start":0,"action_noise":0.15,"location_history":"[0,1,2,3,7,11]","action_history":"[0,0,1,0,1]","mutagen_history":"[0,0,1,0,1]","location_rts":"[1333,942,695,587,1104]","trial_type":"fractal-mutation","trial_index":71,"time_elapsed":1518360,"internal_node_id":"0.0-5.0-32.0"},{"group":"dicyclic group of order 12","fractal_assignment":["../images/grn_prp.png","../images/wht_red.png","../images/ylw_slt.png","../images/grn_red.png","../images/gry_blk.png","../images/org_blu.png","../images/grn_blu.png","../images/red_prp.png","../images/pnk_blu.png","../images/ylw_pnk.png","../images/blu_wht.png","../images/cyn_red.png"],"mutagen_generator_assignment":[0,1],"goal":9,"start":11,"action_noise":0.15,"location_history":"[11,3,0,1,5,9]","action_history":"[0,0,0,1,1]","mutagen_history":"[0,0,0,1,1]","location_rts":"[1210,740,670,459,349]","trial_type":"fractal-mutation","trial_index":72,"time_elapsed":1530822,"internal_node_id":"0.0-5.0-33.0"},{"group":"dicyclic group of order 12","fractal_assignment":["../images/grn_prp.png","../images/wht_red.png","../images/ylw_slt.png","../images/grn_red.png","../images/gry_blk.png","../images/org_blu.png","../images/grn_blu.png","../images/red_prp.png","../images/pnk_blu.png","../images/ylw_pnk.png","../images/blu_wht.png","../images/cyn_red.png"],"mutagen_generator_assignment":[0,1],"goal":5,"start":9,"action_noise":0.15,"location_history":"[9,1,5]","action_history":"[1,1]","mutagen_history":"[1,1]","location_rts":"[1126,771]","trial_type":"fractal-mutation","trial_index":73,"time_elapsed":1538558,"internal_node_id":"0.0-5.0-34.0"},{"view_history":"[{\"page_index\":0,\"viewing_time\":6398}]","rt":6399,"trial_type":"instructions","trial_index":74,"time_elapsed":1545961,"internal_node_id":"0.0-6.0"},{"rt":20688,"responses":"{\"Q0\":\"Thank you so much for another fun survey! I really wish this could continue forever. You are awesome!\"}","trial_type":"survey-text","trial_index":75,"time_elapsed":1567655,"internal_node_id":"0.0-7.0"}]