[{"view_history":"[{\"page_index\":0,\"viewing_time\":1334},{\"page_index\":1,\"viewing_time\":1892}]","rt":3229,"trial_type":"instructions","trial_index":0,"time_elapsed":3231,"internal_node_id":"0.0-0.0"},{"view_history":"[{\"page_index\":0,\"viewing_time\":1292},{\"page_index\":1,\"viewing_time\":4048}]","rt":5341,"trial_type":"instructions","trial_index":1,"time_elapsed":9573,"internal_node_id":"0.0-1.0"},{"group":"dihedral group of order 12","room_assignment":["purple","olive","pink","yellow","ivory","red","green","grey","brown","blue","orange","cyan"],"door_color_assignment":["white","black"],"door_generator_assignment":[1,0],"goal":7,"start":11,"action_noise":0.15,"location_history":"[11,10,4,10,4,5,11,10,9,8,2,8,2,8,2,3,9,3,9,8,2,3,9,8,7]","action_history":"[0,1,1,1,0,1,1,0,0,1,1,1,0,0,0,1,1,0,0,1,0,1,0,0]","door_history":"[1,0,0,0,1,0,0,1,1,0,0,0,1,1,1,0,0,1,1,0,1,0,1,1]","location_rts":"[33596,1447,1597,1188,977,1104,510,534,359,669,1168,931,469,327,483,746,1557,444,616,950,408,959,511,490]","trial_type":"two-door-navigation","trial_index":2,"time_elapsed":89228,"internal_node_id":"0.0-2.0-0.0"},{"group":"dihedral group of order 12","room_assignment":["purple","olive","pink","yellow","ivory","red","green","grey","brown","blue","orange","cyan"],"door_color_assignment":["white","black"],"door_generator_assignment":[1,0],"goal":8,"start":7,"action_noise":0.15,"location_history":"[7,1,7,1,7,6,11,5,0,1,7,6,0,6,11,10,4,5,0,6,0,1,7,6,11,10,9,3,9,8]","action_history":"[0,0,1,1,0,0,1,0,1,1,0,0,1,0,0,1,0,0,1,1,0,1,0,0,0,1,0,0,0]","door_history":"[1,1,0,0,1,1,0,1,0,0,1,1,0,1,1,0,1,1,0,0,1,0,1,1,1,0,1,1,1]","location_rts":"[2097,632,1041,1010,575,222,1082,760,1333,1067,458,1136,857,616,1249,1056,940,1770,1383,1079,1021,1032,512,347,781,1860,740,572,508]","trial_type":"two-door-navigation","trial_index":3,"time_elapsed":149579,"internal_node_id":"0.0-2.0-1.0"},{"group":"dihedral group of order 12","room_assignment":["purple","olive","pink","yellow","ivory","red","green","grey","brown","blue","orange","cyan"],"door_color_assignment":["white","black"],"door_generator_assignment":[1,0],"goal":4,"start":8,"action_noise":0.15,"location_history":"[8,7,1,2,8,2,3,4]","action_history":"[0,0,0,1,1,0,0]","door_history":"[1,1,1,0,0,1,1]","location_rts":"[2358,2745,1287,1686,1550,501,1036]","trial_type":"two-door-navigation","trial_index":4,"time_elapsed":171256,"internal_node_id":"0.0-2.0-2.0"},{"group":"dihedral group of order 12","room_assignment":["purple","olive","pink","yellow","ivory","red","green","grey","brown","blue","orange","cyan"],"door_color_assignment":["white","black"],"door_generator_assignment":[1,0],"goal":5,"start":4,"action_noise":0.15,"location_history":"[4,10,4,10,9,3,4,5]","action_history":"[1,1,0,0,1,0,0]","door_history":"[0,0,1,1,0,1,1]","location_rts":"[2149,971,1102,392,1878,948,555]","trial_type":"two-door-navigation","trial_index":5,"time_elapsed":189765,"internal_node_id":"0.0-2.0-3.0"},{"group":"dihedral group of order 12","room_assignment":["purple","olive","pink","yellow","ivory","red","green","grey","brown","blue","orange","cyan"],"door_color_assignment":["white","black"],"door_generator_assignment":[1,0],"goal":10,"start":5,"action_noise":0.15,"location_history":"[5,0,6,11,10]","action_history":"[0,1,0,0]","door_history":"[1,0,1,1]","location_rts":"[1466,1510,1856,838]","trial_type":"two-door-navigation","trial_index":6,"time_elapsed":202951,"internal_node_id":"0.0-2.0-4.0"},{"group":"dihedral group of order 12","room_assignment":["purple","olive","pink","yellow","ivory","red","green","grey","brown","blue","orange","cyan"],"door_color_assignment":["white","black"],"door_generator_assignment":[1,0],"goal":1,"start":10,"action_noise":0.15,"location_history":"[10,9,8,7,1]","action_history":"[0,0,0,1]","door_history":"[1,1,1,0]","location_rts":"[1087,367,1073,1301]","trial_type":"two-door-navigation","trial_index":7,"time_elapsed":214289,"internal_node_id":"0.0-2.0-5.0"},{"group":"dihedral group of order 12","room_assignment":["purple","olive","pink","yellow","ivory","red","green","grey","brown","blue","orange","cyan"],"door_color_assignment":["white","black"],"door_generator_assignment":[1,0],"goal":6,"start":1,"action_noise":0.15,"location_history":"[1,2,3,9,8,7,6]","action_history":"[0,1,0,0,0,0]","door_history":"[1,0,1,1,1,1]","location_rts":"[58184,1790,623,285,354,501]","trial_type":"two-door-navigation","trial_index":8,"time_elapsed":285543,"internal_node_id":"0.0-2.0-6.0"},{"group":"dihedral group of order 12","room_assignment":["purple","olive","pink","yellow","ivory","red","green","grey","brown","blue","orange","cyan"],"door_color_assignment":["white","black"],"door_generator_assignment":[1,0],"goal":9,"start":6,"action_noise":0.15,"location_history":"[6,11,5,11,10,9]","action_history":"[0,0,1,0,0]","door_history":"[1,1,0,1,1]","location_rts":"[1858,692,2749,507,345]","trial_type":"two-door-navigation","trial_index":9,"time_elapsed":300218,"internal_node_id":"0.0-2.0-7.0"},{"group":"dihedral group of order 12","room_assignment":["purple","olive","pink","yellow","ivory","red","green","grey","brown","blue","orange","cyan"],"door_color_assignment":["white","black"],"door_generator_assignment":[1,0],"goal":2,"start":9,"action_noise":0.15,"location_history":"[9,8,7,6,0,6,11,10,4,5,11,5,0,1,7,6,11,10,4,5,11,10,9,8,2]","action_history":"[0,1,1,0,0,0,0,1,0,0,0,0,0,1,0,0,0,1,0,0,0,0,0,1]","door_history":"[1,0,0,1,1,1,1,0,1,1,1,1,1,0,1,1,1,0,1,1,1,1,1,0]","location_rts":"[1461,976,1419,502,460,662,599,2110,647,622,1290,508,878,1221,809,561,1398,1315,536,423,446,783,481,1036]","trial_type":"two-door-navigation","trial_index":10,"time_elapsed":348916,"internal_node_id":"0.0-2.0-8.0"},{"group":"dihedral group of order 12","room_assignment":["purple","olive","pink","yellow","ivory","red","green","grey","brown","blue","orange","cyan"],"door_color_assignment":["white","black"],"door_generator_assignment":[1,0],"goal":0,"start":2,"action_noise":0.15,"location_history":"[2,3,9,8,7,1,7,6,0]","action_history":"[0,0,0,0,0,1,0,1]","door_history":"[1,1,1,1,1,0,1,0]","location_rts":"[5331,601,2038,1141,748,1306,767,1025]","trial_type":"two-door-navigation","trial_index":11,"time_elapsed":373395,"internal_node_id":"0.0-2.0-9.0"},{"group":"dihedral group of order 12","room_assignment":["purple","olive","pink","yellow","ivory","red","green","grey","brown","blue","orange","cyan"],"door_color_assignment":["white","black"],"door_generator_assignment":[1,0],"goal":3,"start":0,"action_noise":0.15,"location_history":"[0,1,7,6,11,10,4,5,0,6,11,10,9,8,7,6,11,10,4,5,0,1,7,1,2,8,2,3]","action_history":"[0,1,0,0,0,1,0,0,1,0,0,0,0,0,0,1,0,0,1,0,0,1,1,0,1,1,0]","door_history":"[1,0,1,1,1,0,1,1,0,1,1,1,1,1,1,0,1,1,0,1,1,0,0,1,0,0,1]","location_rts":"[1549,1878,829,332,741,958,647,704,1521,574,1350,958,930,739,557,1779,1845,904,2096,438,290,4287,1449,461,2636,1039,355]","trial_type":"two-door-navigation","trial_index":12,"time_elapsed":435820,"internal_node_id":"0.0-2.0-10.0"},{"group":"dihedral group of order 12","room_assignment":["purple","olive","pink","yellow","ivory","red","green","grey","brown","blue","orange","cyan"],"door_color_assignment":["white","black"],"door_generator_assignment":[1,0],"goal":10,"start":3,"action_noise":0.15,"location_history":"[3,9,8,2,3,4,5,0,1,2,3,4,5,0,6,11,10]","action_history":"[0,0,1,0,0,0,0,0,0,0,0,0,0,1,0,0]","door_history":"[1,1,0,1,1,1,1,1,1,1,1,1,1,0,1,1]","location_rts":"[1812,2280,949,947,4465,405,3799,24935,1265,1304,925,640,477,1474,684,360]","trial_type":"two-door-navigation","trial_index":13,"time_elapsed":502094,"internal_node_id":"0.0-2.0-11.0"},{"group":"dihedral group of order 12","room_assignment":["purple","olive","pink","yellow","ivory","red","green","grey","brown","blue","orange","cyan"],"door_color_assignment":["white","black"],"door_generator_assignment":[1,0],"goal":8,"start":10,"action_noise":0.15,"location_history":"[10,4,5,11,10,9,3,4,10,9,8]","action_history":"[1,0,0,0,0,0,0,1,0,0]","door_history":"[0,1,1,1,1,1,1,0,1,1]","location_rts":"[12005,753,443,406,2139,1056,2144,1101,733,476]","trial_type":"two-door-navigation","trial_index":14,"time_elapsed":536885,"internal_node_id":"0.0-2.0-12.0"},{"group":"dihedral group of order 12","room_assignment":["purple","olive","pink","yellow","ivory","red","green","grey","brown","blue","orange","cyan"],"door_color_assignment":["white","black"],"door_generator_assignment":[1,0],"goal":4,"start":8,"action_noise":0.15,"location_history":"[8,2,8,7,6,11,10,9,8,2,8,2,3,9,3,4]","action_history":"[1,1,0,0,0,0,0,0,1,1,1,0,1,1,0]","door_history":"[0,0,1,1,1,1,1,1,0,0,0,1,0,0,1]","location_rts":"[2947,1634,561,213,321,430,545,384,901,808,1000,281,1074,1206,652]","trial_type":"two-door-navigation","trial_index":15,"time_elapsed":568382,"internal_node_id":"0.0-2.0-13.0"},{"group":"dihedral group of order 12","room_assignment":["purple","olive","pink","yellow","ivory","red","green","grey","brown","blue","orange","cyan"],"door_color_assignment":["white","black"],"door_generator_assignment":[1,0],"goal":0,"start":4,"action_noise":0.15,"location_history":"[4,10,4,5,0]","action_history":"[0,1,1,0]","door_history":"[1,0,0,1]","location_rts":"[2836,1360,351,1442]","trial_type":"two-door-navigation","trial_index":16,"time_elapsed":581893,"internal_node_id":"0.0-2.0-14.0"},{"group":"dihedral group of order 12","room_assignment":["purple","olive","pink","yellow","ivory","red","green","grey","brown","blue","orange","cyan"],"door_color_assignment":["white","black"],"door_generator_assignment":[1,0],"goal":11,"start":0,"action_noise":0.15,"location_history":"[0,1,7,6,11]","action_history":"[0,1,1,1]","door_history":"[1,0,0,0]","location_rts":"[2487,832,493,769]","trial_type":"two-door-navigation","trial_index":17,"time_elapsed":593990,"internal_node_id":"0.0-2.0-15.0"},{"group":"dihedral group of order 12","room_assignment":["purple","olive","pink","yellow","ivory","red","green","grey","brown","blue","orange","cyan"],"door_color_assignment":["white","black"],"door_generator_assignment":[1,0],"goal":2,"start":11,"action_noise":0.15,"location_history":"[11,10,9,8,7,1,7,1,7,1,2]","action_history":"[0,1,0,0,1,1,1,1,1,0]","door_history":"[1,0,1,1,0,0,0,0,0,1]","location_rts":"[1422,1593,962,1752,747,609,1070,630,641,995]","trial_type":"two-door-navigation","trial_index":18,"time_elapsed":617946,"internal_node_id":"0.0-2.0-16.0"},{"group":"dihedral group of order 12","room_assignment":["purple","olive","pink","yellow","ivory","red","green","grey","brown","blue","orange","cyan"],"door_color_assignment":["white","black"],"door_generator_assignment":[1,0],"goal":7,"start":2,"action_noise":0.15,"location_history":"[2,3,9,3,4,5,0,6,0,1,7]","action_history":"[0,0,1,0,0,0,1,1,0,1]","door_history":"[1,1,0,1,1,1,0,0,1,0]","location_rts":"[2002,1487,2201,1059,1267,682,1486,622,658,1465]","trial_type":"two-door-navigation","trial_index":19,"time_elapsed":644413,"internal_node_id":"0.0-2.0-17.0"},{"group":"dihedral group of order 12","room_assignment":["purple","olive","pink","yellow","ivory","red","green","grey","brown","blue","orange","cyan"],"door_color_assignment":["white","black"],"door_generator_assignment":[1,0],"goal":5,"start":7,"action_noise":0.15,"location_history":"[7,6,11,10,4,5]","action_history":"[0,0,0,1,1]","door_history":"[1,1,1,0,0]","location_rts":"[1592,1234,499,439,523]","trial_type":"two-door-navigation","trial_index":20,"time_elapsed":657209,"internal_node_id":"0.0-2.0-18.0"},{"group":"dihedral group of order 12","room_assignment":["purple","olive","pink","yellow","ivory","red","green","grey","brown","blue","orange","cyan"],"door_color_assignment":["white","black"],"door_generator_assignment":[1,0],"goal":6,"start":5,"action_noise":0.15,"location_history":"[5,0,6]","action_history":"[0,1]","door_history":"[1,0]","location_rts":"[2009,2613]","trial_type":"two-door-navigation","trial_index":21,"time_elapsed":667341,"internal_node_id":"0.0-2.0-19.0"},{"group":"dihedral group of order 12","room_assignment":["purple","olive","pink","yellow","ivory","red","green","grey","brown","blue","orange","cyan"],"door_color_assignment":["white","black"],"door_generator_assignment":[1,0],"goal":3,"start":6,"action_noise":0.15,"location_history":"[6,11,5,11,10,4,10,4,5,0,1,7,1,2,8,7,1,2,3]","action_history":"[0,0,0,0,1,1,1,0,0,0,1,1,0,1,0,0,0,0]","door_history":"[1,1,1,1,0,0,0,1,1,1,0,0,1,0,1,1,1,1]","location_rts":"[2732,1728,994,792,1846,1714,793,299,707,777,1172,510,959,1059,2541,779,549,1124]","trial_type":"two-door-navigation","trial_index":22,"time_elapsed":709956,"internal_node_id":"0.0-2.0-20.0"},{"group":"dihedral group of order 12","room_assignment":["purple","olive","pink","yellow","ivory","red","green","grey","brown","blue","orange","cyan"],"door_color_assignment":["white","black"],"door_generator_assignment":[1,0],"goal":1,"start":3,"action_noise":0.15,"location_history":"[3,9,8,7,1]","action_history":"[1,1,1,0]","door_history":"[0,0,0,1]","location_rts":"[1639,941,1745,676]","trial_type":"two-door-navigation","trial_index":23,"time_elapsed":722479,"internal_node_id":"0.0-2.0-21.0"},{"group":"dihedral group of order 12","room_assignment":["purple","olive","pink","yellow","ivory","red","green","grey","brown","blue","orange","cyan"],"door_color_assignment":["white","black"],"door_generator_assignment":[1,0],"goal":9,"start":1,"action_noise":0.15,"location_history":"[1,7,1,2,3,4,10,4,10,9]","action_history":"[1,1,0,0,0,1,1,1,0]","door_history":"[0,0,1,1,1,0,0,0,1]","location_rts":"[4547,1155,670,1006,3204,898,438,1496,1072]","trial_type":"two-door-navigation","trial_index":24,"time_elapsed":749486,"internal_node_id":"0.0-2.0-22.0"},{"group":"dihedral group of order 12","room_assignment":["purple","olive","pink","yellow","ivory","red","green","grey","brown","blue","orange","cyan"],"door_color_assignment":["white","black"],"door_generator_assignment":[1,0],"goal":3,"start":9,"action_noise":0.15,"location_history":"[9,8,2,3]","action_history":"[1,1,0]","door_history":"[0,0,1]","location_rts":"[1732,754,1589]","trial_type":"two-door-navigation","trial_index":25,"time_elapsed":760068,"internal_node_id":"0.0-2.0-23.0"},{"group":"dihedral group of order 12","room_assignment":["purple","olive","pink","yellow","ivory","red","green","grey","brown","blue","orange","cyan"],"door_color_assignment":["white","black"],"door_generator_assignment":[1,0],"goal":4,"start":3,"action_noise":0.15,"location_history":"[3,9,3,9,8,7,1,7,6,11,5,11,10,4]","action_history":"[1,1,1,0,1,1,1,0,0,1,1,0,1]","door_history":"[0,0,0,1,0,0,0,1,1,0,0,1,0]","location_rts":"[2204,1055,585,780,800,656,503,823,1821,1581,375,863,1108]","trial_type":"two-door-navigation","trial_index":26,"time_elapsed":789768,"internal_node_id":"0.0-2.0-24.0"},{"group":"dihedral group of order 12","room_assignment":["purple","olive","pink","yellow","ivory","red","green","grey","brown","blue","orange","cyan"],"door_color_assignment":["white","black"],"door_generator_assignment":[1,0],"goal":2,"start":4,"action_noise":0.15,"location_history":"[4,5,0,1,7,1,2]","action_history":"[0,0,0,1,1,0]","door_history":"[1,1,1,0,0,1]","location_rts":"[4236,764,941,981,699,391]","trial_type":"two-door-navigation","trial_index":27,"time_elapsed":807298,"internal_node_id":"0.0-2.0-25.0"},{"group":"dihedral group of order 12","room_assignment":["purple","olive","pink","yellow","ivory","red","green","grey","brown","blue","orange","cyan"],"door_color_assignment":["white","black"],"door_generator_assignment":[1,0],"goal":1,"start":2,"action_noise":0.15,"location_history":"[2,8,2,8,7,6,11,10,9,8,2,8,7,6,11,10,4,10,4,10,9,8,2,8,2,8,7,1]","action_history":"[1,1,1,0,0,0,0,0,0,1,1,0,0,0,0,1,1,0,0,0,0,1,1,0,0,0,1]","door_history":"[0,0,0,1,1,1,1,1,1,0,0,1,1,1,1,0,0,1,1,1,1,0,0,1,1,1,0]","location_rts":"[3739,432,343,252,911,646,527,1381,490,1632,475,530,836,998,661,1530,773,413,1723,557,560,908,759,978,895,1239,885]","trial_type":"two-door-navigation","trial_index":28,"time_elapsed":862982,"internal_node_id":"0.0-2.0-26.0"},{"group":"dihedral group of order 12","room_assignment":["purple","olive","pink","yellow","ivory","red","green","grey","brown","blue","orange","cyan"],"door_color_assignment":["white","black"],"door_generator_assignment":[1,0],"goal":8,"start":1,"action_noise":0.15,"location_history":"[1,7,6,11,10,4,5,0,6,11,10,4,5,0,1,7,6,11,10,9,8]","action_history":"[1,0,0,0,1,0,0,1,0,0,1,1,0,0,1,0,0,0,0,0]","door_history":"[0,1,1,1,0,1,1,0,1,1,0,0,1,1,0,1,1,1,1,1]","location_rts":"[2802,1282,460,450,1821,1034,596,4352,1513,1755,1316,608,769,384,1141,1133,605,629,598,651]","trial_type":"two-door-navigation","trial_index":29,"time_elapsed":910437,"internal_node_id":"0.0-2.0-27.0"},{"group":"dihedral group of order 12","room_assignment":["purple","olive","pink","yellow","ivory","red","green","grey","brown","blue","orange","cyan"],"door_color_assignment":["white","black"],"door_generator_assignment":[1,0],"goal":10,"start":8,"action_noise":0.15,"location_history":"[8,7,6,11,10]","action_history":"[0,0,0,0]","door_history":"[1,1,1,1]","location_rts":"[2739,1056,2081,729]","trial_type":"two-door-navigation","trial_index":30,"time_elapsed":924561,"internal_node_id":"0.0-2.0-28.0"},{"group":"dihedral group of order 12","room_assignment":["purple","olive","pink","yellow","ivory","red","green","grey","brown","blue","orange","cyan"],"door_color_assignment":["white","black"],"door_generator_assignment":[1,0],"goal":7,"start":10,"action_noise":0.15,"location_history":"[10,9,8,2,8,2,3,9,8,7]","action_history":"[1,1,1,1,1,0,1,1,0]","door_history":"[0,0,0,0,0,1,0,0,1]","location_rts":"[4303,1472,900,716,2756,1098,1388,1047,948]","trial_type":"two-door-navigation","trial_index":31,"time_elapsed":951718,"internal_node_id":"0.0-2.0-29.0"},{"group":"dihedral group of order 12","room_assignment":["purple","olive","pink","yellow","ivory","red","green","grey","brown","blue","orange","cyan"],"door_color_assignment":["white","black"],"door_generator_assignment":[1,0],"goal":6,"start":7,"action_noise":0.15,"location_history":"[7,6]","action_history":"[0]","door_history":"[1]","location_rts":"[1484]","trial_type":"two-door-navigation","trial_index":32,"time_elapsed":957709,"internal_node_id":"0.0-2.0-30.0"},{"group":"dihedral group of order 12","room_assignment":["purple","olive","pink","yellow","ivory","red","green","grey","brown","blue","orange","cyan"],"door_color_assignment":["white","black"],"door_generator_assignment":[1,0],"goal":0,"start":6,"action_noise":0.15,"location_history":"[6,11,10,4,5,0]","action_history":"[0,0,1,0,0]","door_history":"[1,1,0,1,1]","location_rts":"[1022,901,1318,1385,604]","trial_type":"two-door-navigation","trial_index":33,"time_elapsed":971450,"internal_node_id":"0.0-2.0-31.0"},{"group":"dihedral group of order 12","room_assignment":["purple","olive","pink","yellow","ivory","red","green","grey","brown","blue","orange","cyan"],"door_color_assignment":["white","black"],"door_generator_assignment":[1,0],"goal":11,"start":0,"action_noise":0.15,"location_history":"[0,1,2,8,7,6,11]","action_history":"[0,0,0,0,0,0]","door_history":"[1,1,1,1,1,1]","location_rts":"[1476,910,494,526,484,1356]","trial_type":"two-door-navigation","trial_index":34,"time_elapsed":986212,"internal_node_id":"0.0-2.0-32.0"},{"group":"dihedral group of order 12","room_assignment":["purple","olive","pink","yellow","ivory","red","green","grey","brown","blue","orange","cyan"],"door_color_assignment":["white","black"],"door_generator_assignment":[1,0],"goal":9,"start":11,"action_noise":0.15,"location_history":"[11,10,9]","action_history":"[0,0]","door_history":"[1,1]","location_rts":"[2047,500]","trial_type":"two-door-navigation","trial_index":35,"time_elapsed":994267,"internal_node_id":"0.0-2.0-33.0"},{"group":"dihedral group of order 12","room_assignment":["purple","olive","pink","yellow","ivory","red","green","grey","brown","blue","orange","cyan"],"door_color_assignment":["white","black"],"door_generator_assignment":[1,0],"goal":5,"start":9,"action_noise":0.15,"location_history":"[9,3,9,8,2,8,2,3,4,5]","action_history":"[1,1,0,1,1,1,0,0,0]","door_history":"[0,0,1,0,0,0,1,1,1]","location_rts":"[1687,1032,447,1231,486,468,830,1992,1133]","trial_type":"two-door-navigation","trial_index":36,"time_elapsed":1016101,"internal_node_id":"0.0-2.0-34.0"},{"view_history":"[{\"page_index\":0,\"viewing_time\":86803}]","rt":86804,"trial_type":"instructions","trial_index":37,"time_elapsed":1103906,"internal_node_id":"0.0-3.0"},{"view_history":"[{\"page_index\":0,\"viewing_time\":2300},{\"page_index\":1,\"viewing_time\":5492}]","rt":7793,"trial_type":"instructions","trial_index":38,"time_elapsed":1112699,"internal_node_id":"0.0-4.0"},{"group":"dicyclic group of order 12","fractal_assignment":["../images/red_prp.png","../images/cyn_red.png","../images/ylw_slt.png","../images/pnk_blu.png","../images/ylw_pnk.png","../images/grn_red.png","../images/grn_prp.png","../images/grn_blu.png","../images/gry_blk.png","../images/blu_wht.png","../images/wht_red.png","../images/org_blu.png"],"mutagen_generator_assignment":[0,1],"goal":7,"start":11,"action_noise":0.15,"location_history":"[11,4,9,6,10,2,6,10,7]","action_history":"[0,0,1,1,1,1,1,0]","mutagen_history":"[0,0,1,1,1,1,1,0]","location_rts":"[25725,1193,721,493,439,561,572,692]","trial_type":"fractal-mutation","trial_index":39,"time_elapsed":1155733,"internal_node_id":"0.0-5.0-0.0"},{"group":"dicyclic group of order 12","fractal_assignment":["../images/red_prp.png","../images/cyn_red.png","../images/ylw_slt.png","../images/pnk_blu.png","../images/ylw_pnk.png","../images/grn_red.png","../images/grn_prp.png","../images/grn_blu.png","../images/gry_blk.png","../images/blu_wht.png","../images/wht_red.png","../images/org_blu.png"],"mutagen_generator_assignment":[0,1],"goal":8,"start":7,"action_noise":0.15,"location_history":"[7,8]","action_history":"[0]","mutagen_history":"[0]","location_rts":"[1584]","trial_type":"fractal-mutation","trial_index":40,"time_elapsed":1161832,"internal_node_id":"0.0-5.0-1.0"},{"group":"dicyclic group of order 12","fractal_assignment":["../images/red_prp.png","../images/cyn_red.png","../images/ylw_slt.png","../images/pnk_blu.png","../images/ylw_pnk.png","../images/grn_red.png","../images/grn_prp.png","../images/grn_blu.png","../images/gry_blk.png","../images/blu_wht.png","../images/wht_red.png","../images/org_blu.png"],"mutagen_generator_assignment":[0,1],"goal":4,"start":8,"action_noise":0.15,"location_history":"[8,5,9,1,5,10,2,6,10,2,3,7,11,4]","action_history":"[0,1,1,1,0,1,1,1,1,0,1,1,1]","mutagen_history":"[0,1,1,1,0,1,1,1,1,0,1,1,1]","location_rts":"[1581,612,395,389,824,536,380,344,1071,651,663,386,445]","trial_type":"fractal-mutation","trial_index":41,"time_elapsed":1188868,"internal_node_id":"0.0-5.0-2.0"},{"group":"dicyclic group of order 12","fractal_assignment":["../images/red_prp.png","../images/cyn_red.png","../images/ylw_slt.png","../images/pnk_blu.png","../images/ylw_pnk.png","../images/grn_red.png","../images/grn_prp.png","../images/grn_blu.png","../images/gry_blk.png","../images/blu_wht.png","../images/wht_red.png","../images/org_blu.png"],"mutagen_generator_assignment":[0,1],"goal":5,"start":4,"action_noise":0.15,"location_history":"[4,9,1,5]","action_history":"[0,1,1]","mutagen_history":"[0,1,1]","location_rts":"[1570,812,433]","trial_type":"fractal-mutation","trial_index":42,"time_elapsed":1198558,"internal_node_id":"0.0-5.0-3.0"},{"group":"dicyclic group of order 12","fractal_assignment":["../images/red_prp.png","../images/cyn_red.png","../images/ylw_slt.png","../images/pnk_blu.png","../images/ylw_pnk.png","../images/grn_red.png","../images/grn_prp.png","../images/grn_blu.png","../images/gry_blk.png","../images/blu_wht.png","../images/wht_red.png","../images/org_blu.png"],"mutagen_generator_assignment":[0,1],"goal":10,"start":5,"action_noise":0.15,"location_history":"[5,9,1,5,10]","action_history":"[1,1,1,0]","mutagen_history":"[1,1,1,0]","location_rts":"[2297,578,590,831]","trial_type":"fractal-mutation","trial_index":43,"time_elapsed":1211074,"internal_node_id":"0.0-5.0-4.0"},{"group":"dicyclic group of order 12","fractal_assignment":["../images/red_prp.png","../images/cyn_red.png","../images/ylw_slt.png","../images/pnk_blu.png","../images/ylw_pnk.png","../images/grn_red.png","../images/grn_prp.png","../images/grn_blu.png","../images/gry_blk.png","../images/blu_wht.png","../images/wht_red.png","../images/org_blu.png"],"mutagen_generator_assignment":[0,1],"goal":1,"start":10,"action_noise":0.15,"location_history":"[10,2,6,10,7,11,3,7,8,0,4,8,0,4,8,5,9,1]","action_history":"[1,1,1,0,1,1,1,0,1,1,1,1,0,1,1,1,1]","mutagen_history":"[1,1,1,0,1,1,1,0,1,1,1,1,0,1,1,1,1]","location_rts":"[1709,730,603,682,607,453,515,717,624,478,432,499,621,553,472,982,474]","trial_type":"fractal-mutation","trial_index":44,"time_elapsed":1245886,"internal_node_id":"0.0-5.0-5.0"},{"group":"dicyclic group of order 12","fractal_assignment":["../images/red_prp.png","../images/cyn_red.png","../images/ylw_slt.png","../images/pnk_blu.png","../images/ylw_pnk.png","../images/grn_red.png","../images/grn_prp.png","../images/grn_blu.png","../images/gry_blk.png","../images/blu_wht.png","../images/wht_red.png","../images/org_blu.png"],"mutagen_generator_assignment":[0,1],"goal":6,"start":1,"action_noise":0.15,"location_history":"[1,5,9,1,2,3,7,8,0,4,8,5,9,1,5,10,7,8,5,10,7,8,0,4,8,0,1,2,6]","action_history":"[1,1,1,0,1,1,1,1,1,1,0,1,1,0,0,1,1,0,0,0,0,1,1,1,1,0,0,1]","mutagen_history":"[1,1,1,0,1,1,1,1,1,1,0,1,1,0,0,1,1,0,0,0,0,1,1,1,1,0,0,1]","location_rts":"[1793,799,927,675,574,385,445,490,531,1019,640,578,689,569,818,724,494,785,570,654,1790,910,475,385,1147,566,1606,501]","trial_type":"fractal-mutation","trial_index":45,"time_elapsed":1303856,"internal_node_id":"0.0-5.0-6.0"},{"group":"dicyclic group of order 12","fractal_assignment":["../images/red_prp.png","../images/cyn_red.png","../images/ylw_slt.png","../images/pnk_blu.png","../images/ylw_pnk.png","../images/grn_red.png","../images/grn_prp.png","../images/grn_blu.png","../images/gry_blk.png","../images/blu_wht.png","../images/wht_red.png","../images/org_blu.png"],"mutagen_generator_assignment":[0,1],"goal":9,"start":6,"action_noise":0.15,"location_history":"[6,11,3,7,11,4,9]","action_history":"[0,1,1,1,1,0]","mutagen_history":"[0,1,1,1,1,0]","location_rts":"[1270,740,411,515,556,591]","trial_type":"fractal-mutation","trial_index":46,"time_elapsed":1318313,"internal_node_id":"0.0-5.0-7.0"},{"group":"dicyclic group of order 12","fractal_assignment":["../images/red_prp.png","../images/cyn_red.png","../images/ylw_slt.png","../images/pnk_blu.png","../images/ylw_pnk.png","../images/grn_red.png","../images/grn_prp.png","../images/grn_blu.png","../images/gry_blk.png","../images/blu_wht.png","../images/wht_red.png","../images/org_blu.png"],"mutagen_generator_assignment":[0,1],"goal":2,"start":9,"action_noise":0.15,"location_history":"[9,6,10,2]","action_history":"[0,1,1]","mutagen_history":"[0,1,1]","location_rts":"[1678,547,319]","trial_type":"fractal-mutation","trial_index":47,"time_elapsed":1327811,"internal_node_id":"0.0-5.0-8.0"},{"group":"dicyclic group of order 12","fractal_assignment":["../images/red_prp.png","../images/cyn_red.png","../images/ylw_slt.png","../images/pnk_blu.png","../images/ylw_pnk.png","../images/grn_red.png","../images/grn_prp.png","../images/grn_blu.png","../images/gry_blk.png","../images/blu_wht.png","../images/wht_red.png","../images/org_blu.png"],"mutagen_generator_assignment":[0,1],"goal":0,"start":2,"action_noise":0.15,"location_history":"[2,3,0]","action_history":"[0,1]","mutagen_history":"[0,1]","location_rts":"[1250,715]","trial_type":"fractal-mutation","trial_index":48,"time_elapsed":1335547,"internal_node_id":"0.0-5.0-9.0"},{"group":"dicyclic group of order 12","fractal_assignment":["../images/red_prp.png","../images/cyn_red.png","../images/ylw_slt.png","../images/pnk_blu.png","../images/ylw_pnk.png","../images/grn_red.png","../images/grn_prp.png","../images/grn_blu.png","../images/gry_blk.png","../images/blu_wht.png","../images/wht_red.png","../images/org_blu.png"],"mutagen_generator_assignment":[0,1],"goal":3,"start":0,"action_noise":0.15,"location_history":"[0,4,9,1,5,10,7,11,3]","action_history":"[1,1,1,1,1,0,1,1]","mutagen_history":"[1,1,1,1,1,0,1,1]","location_rts":"[1066,376,479,597,1830,471,632,351]","trial_type":"fractal-mutation","trial_index":49,"time_elapsed":1354368,"internal_node_id":"0.0-5.0-10.0"},{"group":"dicyclic group of order 12","fractal_assignment":["../images/red_prp.png","../images/cyn_red.png","../images/ylw_slt.png","../images/pnk_blu.png","../images/ylw_pnk.png","../images/grn_red.png","../images/grn_prp.png","../images/grn_blu.png","../images/gry_blk.png","../images/blu_wht.png","../images/wht_red.png","../images/org_blu.png"],"mutagen_generator_assignment":[0,1],"goal":10,"start":3,"action_noise":0.15,"location_history":"[3,7,11,3,0,1,5,9,6,10]","action_history":"[1,1,1,0,1,1,1,0,1]","mutagen_history":"[1,1,1,0,1,1,1,0,1]","location_rts":"[991,437,726,585,580,344,453,762,908]","trial_type":"fractal-mutation","trial_index":50,"time_elapsed":1374345,"internal_node_id":"0.0-5.0-11.0"},{"group":"dicyclic group of order 12","fractal_assignment":["../images/red_prp.png","../images/cyn_red.png","../images/ylw_slt.png","../images/pnk_blu.png","../images/ylw_pnk.png","../images/grn_red.png","../images/grn_prp.png","../images/grn_blu.png","../images/gry_blk.png","../images/blu_wht.png","../images/wht_red.png","../images/org_blu.png"],"mutagen_generator_assignment":[0,1],"goal":8,"start":10,"action_noise":0.15,"location_history":"[10,7,11,4,8]","action_history":"[0,1,1,1]","mutagen_history":"[0,1,1,1]","location_rts":"[2773,864,1012,824]","trial_type":"fractal-mutation","trial_index":51,"time_elapsed":1387941,"internal_node_id":"0.0-5.0-12.0"},{"group":"dicyclic group of order 12","fractal_assignment":["../images/red_prp.png","../images/cyn_red.png","../images/ylw_slt.png","../images/pnk_blu.png","../images/ylw_pnk.png","../images/grn_red.png","../images/grn_prp.png","../images/grn_blu.png","../images/gry_blk.png","../images/blu_wht.png","../images/wht_red.png","../images/org_blu.png"],"mutagen_generator_assignment":[0,1],"goal":4,"start":8,"action_noise":0.15,"location_history":"[8,5,9,6,10,2,3,0,4]","action_history":"[0,1,0,1,1,0,0,1]","mutagen_history":"[0,1,0,1,1,0,0,1]","location_rts":"[1130,534,751,716,486,1150,1403,640]","trial_type":"fractal-mutation","trial_index":52,"time_elapsed":1407429,"internal_node_id":"0.0-5.0-13.0"},{"group":"dicyclic group of order 12","fractal_assignment":["../images/red_prp.png","../images/cyn_red.png","../images/ylw_slt.png","../images/pnk_blu.png","../images/ylw_pnk.png","../images/grn_red.png","../images/grn_prp.png","../images/grn_blu.png","../images/gry_blk.png","../images/blu_wht.png","../images/wht_red.png","../images/org_blu.png"],"mutagen_generator_assignment":[0,1],"goal":0,"start":4,"action_noise":0.15,"location_history":"[4,8,0]","action_history":"[1,1]","mutagen_history":"[1,1]","location_rts":"[1648,625]","trial_type":"fractal-mutation","trial_index":53,"time_elapsed":1415556,"internal_node_id":"0.0-5.0-14.0"},{"group":"dicyclic group of order 12","fractal_assignment":["../images/red_prp.png","../images/cyn_red.png","../images/ylw_slt.png","../images/pnk_blu.png","../images/ylw_pnk.png","../images/grn_red.png","../images/grn_prp.png","../images/grn_blu.png","../images/gry_blk.png","../images/blu_wht.png","../images/wht_red.png","../images/org_blu.png"],"mutagen_generator_assignment":[0,1],"goal":11,"start":0,"action_noise":0.15,"location_history":"[0,4,9,6,10,2,6,10,7,11]","action_history":"[1,1,0,1,1,1,1,0,1]","mutagen_history":"[1,1,0,1,1,1,1,0,1]","location_rts":"[1042,768,776,622,419,510,687,625,677]","trial_type":"fractal-mutation","trial_index":54,"time_elapsed":1435905,"internal_node_id":"0.0-5.0-15.0"},{"group":"dicyclic group of order 12","fractal_assignment":["../images/red_prp.png","../images/cyn_red.png","../images/ylw_slt.png","../images/pnk_blu.png","../images/ylw_pnk.png","../images/grn_red.png","../images/grn_prp.png","../images/grn_blu.png","../images/gry_blk.png","../images/blu_wht.png","../images/wht_red.png","../images/org_blu.png"],"mutagen_generator_assignment":[0,1],"goal":2,"start":11,"action_noise":0.15,"location_history":"[11,3,7,8,0,4,8,5,9,6,10,7,11,3,7,11,4,8,0,1,5,9,1,5,10,2]","action_history":"[1,1,1,1,1,1,0,1,1,1,0,1,1,0,1,0,1,1,0,1,1,1,1,1,1]","mutagen_history":"[1,1,1,1,1,1,0,1,1,1,0,1,1,0,1,0,1,1,0,1,1,1,1,1,1]","location_rts":"[947,420,409,415,400,630,965,1179,441,445,654,597,482,472,619,844,784,500,857,616,361,396,415,659,488]","trial_type":"fractal-mutation","trial_index":55,"time_elapsed":1483902,"internal_node_id":"0.0-5.0-16.0"},{"group":"dicyclic group of order 12","fractal_assignment":["../images/red_prp.png","../images/cyn_red.png","../images/ylw_slt.png","../images/pnk_blu.png","../images/ylw_pnk.png","../images/grn_red.png","../images/grn_prp.png","../images/grn_blu.png","../images/gry_blk.png","../images/blu_wht.png","../images/wht_red.png","../images/org_blu.png"],"mutagen_generator_assignment":[0,1],"goal":7,"start":2,"action_noise":0.15,"location_history":"[2,3,7]","action_history":"[0,1]","mutagen_history":"[0,1]","location_rts":"[1753,526]","trial_type":"fractal-mutation","trial_index":56,"time_elapsed":1491874,"internal_node_id":"0.0-5.0-17.0"},{"group":"dicyclic group of order 12","fractal_assignment":["../images/red_prp.png","../images/cyn_red.png","../images/ylw_slt.png","../images/pnk_blu.png","../images/ylw_pnk.png","../images/grn_red.png","../images/grn_prp.png","../images/grn_blu.png","../images/gry_blk.png","../images/blu_wht.png","../images/wht_red.png","../images/org_blu.png"],"mutagen_generator_assignment":[0,1],"goal":5,"start":7,"action_noise":0.15,"location_history":"[7,11,3,7,11,4,9,1,5]","action_history":"[1,1,1,1,0,0,1,1]","mutagen_history":"[1,1,1,1,0,0,1,1]","location_rts":"[1779,733,453,511,582,1164,500,393]","trial_type":"fractal-mutation","trial_index":57,"time_elapsed":1511009,"internal_node_id":"0.0-5.0-18.0"},{"group":"dicyclic group of order 12","fractal_assignment":["../images/red_prp.png","../images/cyn_red.png","../images/ylw_slt.png","../images/pnk_blu.png","../images/ylw_pnk.png","../images/grn_red.png","../images/grn_prp.png","../images/grn_blu.png","../images/gry_blk.png","../images/blu_wht.png","../images/wht_red.png","../images/org_blu.png"],"mutagen_generator_assignment":[0,1],"goal":6,"start":5,"action_noise":0.15,"location_history":"[5,10,2,6]","action_history":"[0,1,1]","mutagen_history":"[0,1,1]","location_rts":"[2630,718,402]","trial_type":"fractal-mutation","trial_index":58,"time_elapsed":1521645,"internal_node_id":"0.0-5.0-19.0"},{"group":"dicyclic group of order 12","fractal_assignment":["../images/red_prp.png","../images/cyn_red.png","../images/ylw_slt.png","../images/pnk_blu.png","../images/ylw_pnk.png","../images/grn_red.png","../images/grn_prp.png","../images/grn_blu.png","../images/gry_blk.png","../images/blu_wht.png","../images/wht_red.png","../images/org_blu.png"],"mutagen_generator_assignment":[0,1],"goal":3,"start":6,"action_noise":0.15,"location_history":"[6,10,2,6,11,4,8,0,1,2,6,10,7,11,3]","action_history":"[1,1,1,0,1,1,1,0,0,1,1,0,1,1]","mutagen_history":"[1,1,1,0,1,1,1,0,0,1,1,0,1,1]","location_rts":"[1056,905,713,766,1103,404,535,694,964,517,394,872,525,310]","trial_type":"fractal-mutation","trial_index":59,"time_elapsed":1551511,"internal_node_id":"0.0-5.0-20.0"},{"group":"dicyclic group of order 12","fractal_assignment":["../images/red_prp.png","../images/cyn_red.png","../images/ylw_slt.png","../images/pnk_blu.png","../images/ylw_pnk.png","../images/grn_red.png","../images/grn_prp.png","../images/grn_blu.png","../images/gry_blk.png","../images/blu_wht.png","../images/wht_red.png","../images/org_blu.png"],"mutagen_generator_assignment":[0,1],"goal":1,"start":3,"action_noise":0.15,"location_history":"[3,0,4,8,0,1]","action_history":"[0,1,1,1,0]","mutagen_history":"[0,1,1,1,0]","location_rts":"[1375,632,333,443,1036]","trial_type":"fractal-mutation","trial_index":60,"time_elapsed":1564521,"internal_node_id":"0.0-5.0-21.0"},{"group":"dicyclic group of order 12","fractal_assignment":["../images/red_prp.png","../images/cyn_red.png","../images/ylw_slt.png","../images/pnk_blu.png","../images/ylw_pnk.png","../images/grn_red.png","../images/grn_prp.png","../images/grn_blu.png","../images/gry_blk.png","../images/blu_wht.png","../images/wht_red.png","../images/org_blu.png"],"mutagen_generator_assignment":[0,1],"goal":9,"start":1,"action_noise":0.15,"location_history":"[1,5,9]","action_history":"[1,1]","mutagen_history":"[1,1]","location_rts":"[1388,703]","trial_type":"fractal-mutation","trial_index":61,"time_elapsed":1572485,"internal_node_id":"0.0-5.0-22.0"},{"group":"dicyclic group of order 12","fractal_assignment":["../images/red_prp.png","../images/cyn_red.png","../images/ylw_slt.png","../images/pnk_blu.png","../images/ylw_pnk.png","../images/grn_red.png","../images/grn_prp.png","../images/grn_blu.png","../images/gry_blk.png","../images/blu_wht.png","../images/wht_red.png","../images/org_blu.png"],"mutagen_generator_assignment":[0,1],"goal":3,"start":9,"action_noise":0.15,"location_history":"[9,6,10,7,11,3]","action_history":"[1,1,0,1,1]","mutagen_history":"[1,1,0,1,1]","location_rts":"[1625,534,560,552,354]","trial_type":"fractal-mutation","trial_index":62,"time_elapsed":1585535,"internal_node_id":"0.0-5.0-23.0"},{"group":"dicyclic group of order 12","fractal_assignment":["../images/red_prp.png","../images/cyn_red.png","../images/ylw_slt.png","../images/pnk_blu.png","../images/ylw_pnk.png","../images/grn_red.png","../images/grn_prp.png","../images/grn_blu.png","../images/gry_blk.png","../images/blu_wht.png","../images/wht_red.png","../images/org_blu.png"],"mutagen_generator_assignment":[0,1],"goal":4,"start":3,"action_noise":0.15,"location_history":"[3,7,11,3,0,4]","action_history":"[1,1,1,0,1]","mutagen_history":"[1,1,1,0,1]","location_rts":"[1116,507,474,502,783]","trial_type":"fractal-mutation","trial_index":63,"time_elapsed":1598293,"internal_node_id":"0.0-5.0-24.0"},{"group":"dicyclic group of order 12","fractal_assignment":["../images/red_prp.png","../images/cyn_red.png","../images/ylw_slt.png","../images/pnk_blu.png","../images/ylw_pnk.png","../images/grn_red.png","../images/grn_prp.png","../images/grn_blu.png","../images/gry_blk.png","../images/blu_wht.png","../images/wht_red.png","../images/org_blu.png"],"mutagen_generator_assignment":[0,1],"goal":2,"start":4,"action_noise":0.15,"location_history":"[4,8,0,1,5,10,2]","action_history":"[1,1,0,1,0,0]","mutagen_history":"[1,1,0,1,0,0]","location_rts":"[935,462,994,1343,641,601]","trial_type":"fractal-mutation","trial_index":64,"time_elapsed":1613795,"internal_node_id":"0.0-5.0-25.0"},{"group":"dicyclic group of order 12","fractal_assignment":["../images/red_prp.png","../images/cyn_red.png","../images/ylw_slt.png","../images/pnk_blu.png","../images/ylw_pnk.png","../images/grn_red.png","../images/grn_prp.png","../images/grn_blu.png","../images/gry_blk.png","../images/blu_wht.png","../images/wht_red.png","../images/org_blu.png"],"mutagen_generator_assignment":[0,1],"goal":1,"start":2,"action_noise":0.15,"location_history":"[2,6,11,3,0,4,8,0,4,8,5,10,2,3,7,8,5,10,2,3,0,4,8,5,10,7,8,5,9,6,10,2,6,10,2,3,7,11,4,9,1]","action_history":"[0,0,1,0,1,1,1,0,1,0,1,1,1,1,0,0,0,1,0,0,0,1,0,0,0,1,1,0,0,1,1,1,1,1,0,1,1,1,0,1]","mutagen_history":"[0,0,1,0,1,1,1,0,1,0,1,1,1,1,0,0,0,1,0,0,0,1,0,0,0,1,1,0,0,1,1,1,1,1,0,1,1,1,0,1]","location_rts":"[1173,937,524,950,934,367,540,435,761,546,768,447,578,586,579,864,634,751,792,639,785,792,1053,991,613,642,1000,598,1438,487,366,431,538,1241,626,495,330,494,548,448]","trial_type":"fractal-mutation","trial_index":65,"time_elapsed":1691399,"internal_node_id":"0.0-5.0-26.0"},{"group":"dicyclic group of order 12","fractal_assignment":["../images/red_prp.png","../images/cyn_red.png","../images/ylw_slt.png","../images/pnk_blu.png","../images/ylw_pnk.png","../images/grn_red.png","../images/grn_prp.png","../images/grn_blu.png","../images/gry_blk.png","../images/blu_wht.png","../images/wht_red.png","../images/org_blu.png"],"mutagen_generator_assignment":[0,1],"goal":8,"start":1,"action_noise":0.15,"location_history":"[1,2,6,10,2,3,7,8]","action_history":"[0,1,1,1,0,1,1]","mutagen_history":"[0,1,1,1,0,1,1]","location_rts":"[1688,475,296,325,735,832,305]","trial_type":"fractal-mutation","trial_index":66,"time_elapsed":1707748,"internal_node_id":"0.0-5.0-27.0"},{"group":"dicyclic group of order 12","fractal_assignment":["../images/red_prp.png","../images/cyn_red.png","../images/ylw_slt.png","../images/pnk_blu.png","../images/ylw_pnk.png","../images/grn_red.png","../images/grn_prp.png","../images/grn_blu.png","../images/gry_blk.png","../images/blu_wht.png","../images/wht_red.png","../images/org_blu.png"],"mutagen_generator_assignment":[0,1],"goal":10,"start":8,"action_noise":0.15,"location_history":"[8,5,9,1,5,9,1,2,6,10]","action_history":"[0,1,1,1,1,0,0,1,1]","mutagen_history":"[0,1,1,1,1,0,0,1,1]","location_rts":"[1147,437,341,341,472,670,673,466,332]","trial_type":"fractal-mutation","trial_index":67,"time_elapsed":1726542,"internal_node_id":"0.0-5.0-28.0"},{"group":"dicyclic group of order 12","fractal_assignment":["../images/red_prp.png","../images/cyn_red.png","../images/ylw_slt.png","../images/pnk_blu.png","../images/ylw_pnk.png","../images/grn_red.png","../images/grn_prp.png","../images/grn_blu.png","../images/gry_blk.png","../images/blu_wht.png","../images/wht_red.png","../images/org_blu.png"],"mutagen_generator_assignment":[0,1],"goal":7,"start":10,"action_noise":0.15,"location_history":"[10,2,6,10,7]","action_history":"[1,1,1,1]","mutagen_history":"[1,1,1,1]","location_rts":"[1277,510,569,410]","trial_type":"fractal-mutation","trial_index":68,"time_elapsed":1737605,"internal_node_id":"0.0-5.0-29.0"},{"group":"dicyclic group of order 12","fractal_assignment":["../images/red_prp.png","../images/cyn_red.png","../images/ylw_slt.png","../images/pnk_blu.png","../images/ylw_pnk.png","../images/grn_red.png","../images/grn_prp.png","../images/grn_blu.png","../images/gry_blk.png","../images/blu_wht.png","../images/wht_red.png","../images/org_blu.png"],"mutagen_generator_assignment":[0,1],"goal":6,"start":7,"action_noise":0.15,"location_history":"[7,11,4,8,0,4,8,0,1,5,10,2,6]","action_history":"[1,1,1,1,1,1,1,0,1,1,1,1]","mutagen_history":"[1,1,1,1,1,1,1,0,1,1,1,1]","location_rts":"[1159,322,374,429,1078,833,630,413,604,741,567,518]","trial_type":"fractal-mutation","trial_index":69,"time_elapsed":1763201,"internal_node_id":"0.0-5.0-30.0"},{"group":"dicyclic group of order 12","fractal_assignment":["../images/red_prp.png","../images/cyn_red.png","../images/ylw_slt.png","../images/pnk_blu.png","../images/ylw_pnk.png","../images/grn_red.png","../images/grn_prp.png","../images/grn_blu.png","../images/gry_blk.png","../images/blu_wht.png","../images/wht_red.png","../images/org_blu.png"],"mutagen_generator_assignment":[0,1],"goal":0,"start":6,"action_noise":0.15,"location_history":"[6,10,2,6,10,7,8,0]","action_history":"[0,1,1,1,0,1,1]","mutagen_history":"[0,1,1,1,0,1,1]","location_rts":"[1227,449,454,402,960,533,419]","trial_type":"fractal-mutation","trial_index":70,"time_elapsed":1779334,"internal_node_id":"0.0-5.0-31.0"},{"group":"dicyclic group of order 12","fractal_assignment":["../images/red_prp.png","../images/cyn_red.png","../images/ylw_slt.png","../images/pnk_blu.png","../images/ylw_pnk.png","../images/grn_red.png","../images/grn_prp.png","../images/grn_blu.png","../images/gry_blk.png","../images/blu_wht.png","../images/wht_red.png","../images/org_blu.png"],"mutagen_generator_assignment":[0,1],"goal":11,"start":0,"action_noise":0.15,"location_history":"[0,1,5,9,1,5,10,2,6,10,2,3,0,4,8,5,10,2,6,11]","action_history":"[1,1,1,1,1,0,1,1,1,1,0,1,1,1,1,0,1,1,0]","mutagen_history":"[1,1,1,1,1,0,1,1,1,1,0,1,1,1,1,0,1,1,0]","location_rts":"[1286,395,546,506,593,1670,935,343,345,382,619,348,352,488,466,610,437,386,550]","trial_type":"fractal-mutation","trial_index":71,"time_elapsed":1816555,"internal_node_id":"0.0-5.0-32.0"},{"group":"dicyclic group of order 12","fractal_assignment":["../images/red_prp.png","../images/cyn_red.png","../images/ylw_slt.png","../images/pnk_blu.png","../images/ylw_pnk.png","../images/grn_red.png","../images/grn_prp.png","../images/grn_blu.png","../images/gry_blk.png","../images/blu_wht.png","../images/wht_red.png","../images/org_blu.png"],"mutagen_generator_assignment":[0,1],"goal":9,"start":11,"action_noise":0.15,"location_history":"[11,3,7,8,5,10,2,6,10,7,11,3,7,11,3,7,11,3,0,4,8,0,1,2,3,7,11,4,9]","action_history":"[1,1,1,1,0,1,1,1,0,1,1,1,0,1,1,1,1,0,1,1,1,0,1,1,1,1,1,1]","mutagen_history":"[1,1,1,1,0,1,1,1,0,1,1,1,0,1,1,1,1,0,1,1,1,0,1,1,1,1,1,1]","location_rts":"[1433,458,358,662,486,644,423,450,740,336,306,382,603,469,422,277,489,557,616,324,345,454,499,363,375,279,389,780]","trial_type":"fractal-mutation","trial_index":72,"time_elapsed":1867048,"internal_node_id":"0.0-5.0-33.0"},{"group":"dicyclic group of order 12","fractal_assignment":["../images/red_prp.png","../images/cyn_red.png","../images/ylw_slt.png","../images/pnk_blu.png","../images/ylw_pnk.png","../images/grn_red.png","../images/grn_prp.png","../images/grn_blu.png","../images/gry_blk.png","../images/blu_wht.png","../images/wht_red.png","../images/org_blu.png"],"mutagen_generator_assignment":[0,1],"goal":5,"start":9,"action_noise":0.15,"location_history":"[9,6,10,2,6,11,3,7,8,5]","action_history":"[0,1,1,1,0,1,1,1,0]","mutagen_history":"[0,1,1,1,0,1,1,1,0]","location_rts":"[9719,657,378,727,553,737,361,366,428]","trial_type":"fractal-mutation","trial_index":73,"time_elapsed":1894911,"internal_node_id":"0.0-5.0-34.0"},{"view_history":"[{\"page_index\":0,\"viewing_time\":2354}]","rt":2355,"trial_type":"instructions","trial_index":74,"time_elapsed":1898266,"internal_node_id":"0.0-6.0"},{"rt":26356,"responses":"{\"Q0\":\"one of my favorite HITS of all time. I feel like I improved since yesterday. Looking forward to part 3\"}","trial_type":"survey-text","trial_index":75,"time_elapsed":1925638,"internal_node_id":"0.0-7.0"}]