[{"view_history":"[{\"page_index\":0,\"viewing_time\":1188},{\"page_index\":1,\"viewing_time\":19146}]","rt":20335,"trial_type":"instructions","trial_index":0,"time_elapsed":20336,"internal_node_id":"0.0-0.0"},{"view_history":"[{\"page_index\":0,\"viewing_time\":2249},{\"page_index\":1,\"viewing_time\":22163}]","rt":24412,"trial_type":"instructions","trial_index":1,"time_elapsed":45757,"internal_node_id":"0.0-1.0"},{"group":"dicyclic group of order 12","room_assignment":["orange","blue","pink","brown","green","olive","purple","grey","yellow","cyan","red","ivory"],"door_color_assignment":["white","black"],"door_generator_assignment":[1,0],"goal":7,"start":11,"action_noise":0.15,"location_history":"[11,4,9,6,11,4,9,1,5,9,1,2,6,10,2,3,0,1,2,6,10,2,3,0,1,2,6,10,2,3,0,1,2,3,7]","action_history":"[0,0,0,0,0,0,1,1,1,0,0,1,1,1,0,0,0,0,1,0,1,0,1,0,0,1,1,1,0,0,0,0,0,1]","door_history":"[1,1,1,1,1,1,0,0,0,1,1,0,0,0,1,1,1,1,0,1,0,1,0,1,1,0,0,0,1,1,1,1,1,0]","location_rts":"[2511,4543,3667,1933,1979,904,813,556,745,544,716,616,537,508,880,676,461,442,747,397,495,748,498,1146,431,441,387,444,472,414,519,390,419,607]","trial_type":"two-door-navigation","trial_index":2,"time_elapsed":115682,"internal_node_id":"0.0-2.0-0.0"},{"group":"dicyclic group of order 12","room_assignment":["orange","blue","pink","brown","green","olive","purple","grey","yellow","cyan","red","ivory"],"door_color_assignment":["white","black"],"door_generator_assignment":[1,0],"goal":8,"start":7,"action_noise":0.15,"location_history":"[7,11,4,8]","action_history":"[1,0,1]","door_history":"[0,1,0]","location_rts":"[1934,442,582]","trial_type":"two-door-navigation","trial_index":3,"time_elapsed":125224,"internal_node_id":"0.0-2.0-1.0"},{"group":"dicyclic group of order 12","room_assignment":["orange","blue","pink","brown","green","olive","purple","grey","yellow","cyan","red","ivory"],"door_color_assignment":["white","black"],"door_generator_assignment":[1,0],"goal":4,"start":8,"action_noise":0.15,"location_history":"[8,5,9,6,10,7,11,3,0,4]","action_history":"[0,1,0,1,0,0,1,1,1]","door_history":"[1,0,1,0,1,1,0,0,0]","location_rts":"[7596,1183,742,730,656,669,540,413,418]","trial_type":"two-door-navigation","trial_index":4,"time_elapsed":150894,"internal_node_id":"0.0-2.0-2.0"},{"group":"dicyclic group of order 12","room_assignment":["orange","blue","pink","brown","green","olive","purple","grey","yellow","cyan","red","ivory"],"door_color_assignment":["white","black"],"door_generator_assignment":[1,0],"goal":5,"start":4,"action_noise":0.15,"location_history":"[4,9,6,11,4,8,0,4,8,0,1,2,6,11,4,9,6,10,2,3,7,8,5]","action_history":"[0,0,0,0,1,1,1,1,1,0,1,0,0,0,0,0,1,1,0,1,0,0]","door_history":"[1,1,1,1,0,0,0,0,0,1,0,1,1,1,1,1,0,0,1,0,1,1]","location_rts":"[248409,463,492,565,566,400,486,662,375,319,632,528,417,542,479,501,509,905,713,1069,1130,456]","trial_type":"two-door-navigation","trial_index":5,"time_elapsed":437553,"internal_node_id":"0.0-2.0-3.0"},{"group":"dicyclic group of order 12","room_assignment":["orange","blue","pink","brown","green","olive","purple","grey","yellow","cyan","red","ivory"],"door_color_assignment":["white","black"],"door_generator_assignment":[1,0],"goal":10,"start":5,"action_noise":0.15,"location_history":"[5,9,6,11,3,7,11,3,0,1,5,10]","action_history":"[0,0,0,1,1,1,0,0,0,1,0]","door_history":"[1,1,1,0,0,0,1,1,1,0,1]","location_rts":"[1148,677,605,854,638,789,535,699,669,866,429]","trial_type":"two-door-navigation","trial_index":6,"time_elapsed":460226,"internal_node_id":"0.0-2.0-4.0"},{"group":"dicyclic group of order 12","room_assignment":["orange","blue","pink","brown","green","olive","purple","grey","yellow","cyan","red","ivory"],"door_color_assignment":["white","black"],"door_generator_assignment":[1,0],"goal":1,"start":10,"action_noise":0.15,"location_history":"[10,7,8,0,4,9,1]","action_history":"[0,0,1,1,0,1]","door_history":"[1,1,0,0,1,0]","location_rts":"[1191,527,415,437,569,777]","trial_type":"two-door-navigation","trial_index":7,"time_elapsed":473783,"internal_node_id":"0.0-2.0-5.0"},{"group":"dicyclic group of order 12","room_assignment":["orange","blue","pink","brown","green","olive","purple","grey","yellow","cyan","red","ivory"],"door_color_assignment":["white","black"],"door_generator_assignment":[1,0],"goal":6,"start":1,"action_noise":0.15,"location_history":"[1,5,10,7,8,0,1,2,3,7,11,4,8,5,10,7,8,5,10,7,8,5,9,6]","action_history":"[0,0,0,1,1,0,0,0,0,1,0,1,0,0,0,0,0,0,0,0,1,1,1]","door_history":"[1,1,1,0,0,1,1,1,1,0,1,0,1,1,1,1,1,1,1,1,0,0,0]","location_rts":"[994,1079,1406,979,815,860,540,660,432,1546,739,743,704,565,437,594,436,639,442,622,413,711,748]","trial_type":"two-door-navigation","trial_index":8,"time_elapsed":517932,"internal_node_id":"0.0-2.0-6.0"},{"group":"dicyclic group of order 12","room_assignment":["orange","blue","pink","brown","green","olive","purple","grey","yellow","cyan","red","ivory"],"door_color_assignment":["white","black"],"door_generator_assignment":[1,0],"goal":9,"start":6,"action_noise":0.15,"location_history":"[6,10,7,11,4,9]","action_history":"[1,0,1,0,0]","door_history":"[0,1,0,1,1]","location_rts":"[1656,560,816,718,667]","trial_type":"two-door-navigation","trial_index":9,"time_elapsed":530965,"internal_node_id":"0.0-2.0-7.0"},{"group":"dicyclic group of order 12","room_assignment":["orange","blue","pink","brown","green","olive","purple","grey","yellow","cyan","red","ivory"],"door_color_assignment":["white","black"],"door_generator_assignment":[1,0],"goal":2,"start":9,"action_noise":0.15,"location_history":"[9,6,11,4,8,0,4,8,5,10,2]","action_history":"[0,0,0,0,1,0,1,0,0,1]","door_history":"[1,1,1,1,0,1,0,1,1,0]","location_rts":"[924,621,1592,500,584,709,661,987,8269,675]","trial_type":"two-door-navigation","trial_index":10,"time_elapsed":560216,"internal_node_id":"0.0-2.0-8.0"},{"group":"dicyclic group of order 12","room_assignment":["orange","blue","pink","brown","green","olive","purple","grey","yellow","cyan","red","ivory"],"door_color_assignment":["white","black"],"door_generator_assignment":[1,0],"goal":0,"start":2,"action_noise":0.15,"location_history":"[2,3,7,8,5,10,2,3,7,8,0]","action_history":"[0,1,0,0,0,1,0,1,0,1]","door_history":"[1,0,1,1,1,0,1,0,1,0]","location_rts":"[1085,646,854,711,430,561,1045,428,404,734]","trial_type":"two-door-navigation","trial_index":11,"time_elapsed":580852,"internal_node_id":"0.0-2.0-9.0"},{"group":"dicyclic group of order 12","room_assignment":["orange","blue","pink","brown","green","olive","purple","grey","yellow","cyan","red","ivory"],"door_color_assignment":["white","black"],"door_generator_assignment":[1,0],"goal":3,"start":0,"action_noise":0.15,"location_history":"[0,4,9,6,10,2,3]","action_history":"[1,0,0,1,0,0]","door_history":"[0,1,1,0,1,1]","location_rts":"[886,686,430,498,386,360]","trial_type":"two-door-navigation","trial_index":12,"time_elapsed":593734,"internal_node_id":"0.0-2.0-10.0"},{"group":"dicyclic group of order 12","room_assignment":["orange","blue","pink","brown","green","olive","purple","grey","yellow","cyan","red","ivory"],"door_color_assignment":["white","black"],"door_generator_assignment":[1,0],"goal":10,"start":3,"action_noise":0.15,"location_history":"[3,0,4,8,0,1,2,3,0,1,5,9,1,5,10]","action_history":"[0,1,1,1,1,0,0,0,0,1,1,0,1,0]","door_history":"[1,0,0,0,0,1,1,1,1,0,0,1,0,1]","location_rts":"[1048,494,921,407,665,352,460,436,472,352,362,574,373,352]","trial_type":"two-door-navigation","trial_index":13,"time_elapsed":618839,"internal_node_id":"0.0-2.0-11.0"},{"group":"dicyclic group of order 12","room_assignment":["orange","blue","pink","brown","green","olive","purple","grey","yellow","cyan","red","ivory"],"door_color_assignment":["white","black"],"door_generator_assignment":[1,0],"goal":8,"start":10,"action_noise":0.15,"location_history":"[10,7,11,3,7,11,3,7,8]","action_history":"[0,1,1,1,1,1,1,0]","door_history":"[1,0,0,0,0,0,0,1]","location_rts":"[927,494,552,317,401,362,403,454]","trial_type":"two-door-navigation","trial_index":14,"time_elapsed":634448,"internal_node_id":"0.0-2.0-12.0"},{"group":"dicyclic group of order 12","room_assignment":["orange","blue","pink","brown","green","olive","purple","grey","yellow","cyan","red","ivory"],"door_color_assignment":["white","black"],"door_generator_assignment":[1,0],"goal":4,"start":8,"action_noise":0.15,"location_history":"[8,5,9,1,5,9,6,11,4]","action_history":"[0,1,1,1,1,0,0,0]","door_history":"[1,0,0,0,0,1,1,1]","location_rts":"[929,1129,367,411,621,424,443,415]","trial_type":"two-door-navigation","trial_index":15,"time_elapsed":650872,"internal_node_id":"0.0-2.0-13.0"},{"group":"dicyclic group of order 12","room_assignment":["orange","blue","pink","brown","green","olive","purple","grey","yellow","cyan","red","ivory"],"door_color_assignment":["white","black"],"door_generator_assignment":[1,0],"goal":0,"start":4,"action_noise":0.15,"location_history":"[4,9,6,11,4,8,0]","action_history":"[0,0,0,1,1,1]","door_history":"[1,1,1,0,0,0]","location_rts":"[926,529,1197,340,387,565]","trial_type":"two-door-navigation","trial_index":16,"time_elapsed":664461,"internal_node_id":"0.0-2.0-14.0"},{"group":"dicyclic group of order 12","room_assignment":["orange","blue","pink","brown","green","olive","purple","grey","yellow","cyan","red","ivory"],"door_color_assignment":["white","black"],"door_generator_assignment":[1,0],"goal":11,"start":0,"action_noise":0.15,"location_history":"[0,4,9,1,2,3,7,11]","action_history":"[1,1,1,0,0,1,1]","door_history":"[0,0,0,1,1,0,0]","location_rts":"[948,433,511,769,659,559,551]","trial_type":"two-door-navigation","trial_index":17,"time_elapsed":679561,"internal_node_id":"0.0-2.0-15.0"},{"group":"dicyclic group of order 12","room_assignment":["orange","blue","pink","brown","green","olive","purple","grey","yellow","cyan","red","ivory"],"door_color_assignment":["white","black"],"door_generator_assignment":[1,0],"goal":2,"start":11,"action_noise":0.15,"location_history":"[11,3,7,8,0,4,9,6,10,7,11,3,0,1,2]","action_history":"[0,1,1,1,1,0,0,0,0,1,1,0,0,0]","door_history":"[1,0,0,0,0,1,1,1,1,0,0,1,1,1]","location_rts":"[789,534,608,420,365,319,434,433,480,420,3352,848,623,939]","trial_type":"two-door-navigation","trial_index":18,"time_elapsed":707937,"internal_node_id":"0.0-2.0-16.0"},{"group":"dicyclic group of order 12","room_assignment":["orange","blue","pink","brown","green","olive","purple","grey","yellow","cyan","red","ivory"],"door_color_assignment":["white","black"],"door_generator_assignment":[1,0],"goal":7,"start":2,"action_noise":0.15,"location_history":"[2,3,0,1,5,9,1,5,10,7]","action_history":"[0,0,0,1,1,1,1,0,0]","door_history":"[1,1,1,0,0,0,0,1,1]","location_rts":"[1261,624,615,431,364,499,406,393,465]","trial_type":"two-door-navigation","trial_index":19,"time_elapsed":725701,"internal_node_id":"0.0-2.0-17.0"},{"group":"dicyclic group of order 12","room_assignment":["orange","blue","pink","brown","green","olive","purple","grey","yellow","cyan","red","ivory"],"door_color_assignment":["white","black"],"door_generator_assignment":[1,0],"goal":5,"start":7,"action_noise":0.15,"location_history":"[7,11,3,7,11,3,7,8,5]","action_history":"[0,0,1,1,1,0,0,0]","door_history":"[1,1,0,0,0,1,1,1]","location_rts":"[992,483,563,690,615,367,537,553]","trial_type":"two-door-navigation","trial_index":20,"time_elapsed":742181,"internal_node_id":"0.0-2.0-18.0"},{"group":"dicyclic group of order 12","room_assignment":["orange","blue","pink","brown","green","olive","purple","grey","yellow","cyan","red","ivory"],"door_color_assignment":["white","black"],"door_generator_assignment":[1,0],"goal":6,"start":5,"action_noise":0.15,"location_history":"[5,10,7,8,5,10,2,6]","action_history":"[0,0,0,0,0,1,1]","door_history":"[1,1,1,1,1,0,0]","location_rts":"[1028,420,587,429,767,292,277]","trial_type":"two-door-navigation","trial_index":21,"time_elapsed":756654,"internal_node_id":"0.0-2.0-19.0"},{"group":"dicyclic group of order 12","room_assignment":["orange","blue","pink","brown","green","olive","purple","grey","yellow","cyan","red","ivory"],"door_color_assignment":["white","black"],"door_generator_assignment":[1,0],"goal":3,"start":6,"action_noise":0.15,"location_history":"[6,11,4,9,1,2,3]","action_history":"[0,0,1,1,0,0]","door_history":"[1,1,0,0,1,1]","location_rts":"[1059,445,406,402,436,439]","trial_type":"two-door-navigation","trial_index":22,"time_elapsed":769486,"internal_node_id":"0.0-2.0-20.0"},{"group":"dicyclic group of order 12","room_assignment":["orange","blue","pink","brown","green","olive","purple","grey","yellow","cyan","red","ivory"],"door_color_assignment":["white","black"],"door_generator_assignment":[1,0],"goal":1,"start":3,"action_noise":0.15,"location_history":"[3,7,8,0,1]","action_history":"[1,0,1,0]","door_history":"[0,1,0,1]","location_rts":"[1768,597,450,399]","trial_type":"two-door-navigation","trial_index":23,"time_elapsed":780299,"internal_node_id":"0.0-2.0-21.0"},{"group":"dicyclic group of order 12","room_assignment":["orange","blue","pink","brown","green","olive","purple","grey","yellow","cyan","red","ivory"],"door_color_assignment":["white","black"],"door_generator_assignment":[1,0],"goal":9,"start":1,"action_noise":0.15,"location_history":"[1,2,6,10,2,3,0,1,5,9]","action_history":"[0,1,1,1,0,0,0,1,1]","door_history":"[1,0,0,0,1,1,1,0,0]","location_rts":"[1023,632,334,362,569,416,550,685,357]","trial_type":"two-door-navigation","trial_index":24,"time_elapsed":797951,"internal_node_id":"0.0-2.0-22.0"},{"group":"dicyclic group of order 12","room_assignment":["orange","blue","pink","brown","green","olive","purple","grey","yellow","cyan","red","ivory"],"door_color_assignment":["white","black"],"door_generator_assignment":[1,0],"goal":3,"start":9,"action_noise":0.15,"location_history":"[9,1,2,3]","action_history":"[1,0,0]","door_history":"[0,1,1]","location_rts":"[1009,387,470]","trial_type":"two-door-navigation","trial_index":25,"time_elapsed":806380,"internal_node_id":"0.0-2.0-23.0"},{"group":"dicyclic group of order 12","room_assignment":["orange","blue","pink","brown","green","olive","purple","grey","yellow","cyan","red","ivory"],"door_color_assignment":["white","black"],"door_generator_assignment":[1,0],"goal":4,"start":3,"action_noise":0.15,"location_history":"[3,0,4]","action_history":"[0,1]","door_history":"[1,0]","location_rts":"[989,610]","trial_type":"two-door-navigation","trial_index":26,"time_elapsed":813528,"internal_node_id":"0.0-2.0-24.0"},{"group":"dicyclic group of order 12","room_assignment":["orange","blue","pink","brown","green","olive","purple","grey","yellow","cyan","red","ivory"],"door_color_assignment":["white","black"],"door_generator_assignment":[1,0],"goal":2,"start":4,"action_noise":0.15,"location_history":"[4,9,1,5,9,6,10,7,8,0,4,9,1,5,9,6,11,3,0,4,8,5,9,1,2]","action_history":"[0,1,1,1,0,0,0,0,1,1,1,1,1,0,0,0,0,0,1,1,1,1,1,0]","door_history":"[1,0,0,0,1,1,1,1,0,0,0,0,0,1,1,1,1,1,0,0,0,0,0,1]","location_rts":"[1251,449,353,699,698,387,389,416,397,485,433,613,576,564,453,415,405,528,429,478,466,781,515,1045]","trial_type":"two-door-navigation","trial_index":27,"time_elapsed":854811,"internal_node_id":"0.0-2.0-25.0"},{"group":"dicyclic group of order 12","room_assignment":["orange","blue","pink","brown","green","olive","purple","grey","yellow","cyan","red","ivory"],"door_color_assignment":["white","black"],"door_generator_assignment":[1,0],"goal":1,"start":2,"action_noise":0.15,"location_history":"[2,6,10,7,8,0,4,8,5,10,7,11,3,0,4,9,6,10,7,8,0,4,8,0,1]","action_history":"[1,0,0,0,1,1,0,0,0,1,1,1,1,1,0,0,0,0,0,1,1,1,1,0]","door_history":"[0,1,1,1,0,0,1,1,1,0,0,0,0,0,1,1,1,1,1,0,0,0,0,1]","location_rts":"[1501,1130,442,475,324,401,1072,423,617,1008,372,437,531,597,561,831,585,373,384,431,390,503,356,587]","trial_type":"two-door-navigation","trial_index":28,"time_elapsed":897184,"internal_node_id":"0.0-2.0-26.0"},{"group":"dicyclic group of order 12","room_assignment":["orange","blue","pink","brown","green","olive","purple","grey","yellow","cyan","red","ivory"],"door_color_assignment":["white","black"],"door_generator_assignment":[1,0],"goal":8,"start":1,"action_noise":0.15,"location_history":"[1,2,6,10,7,8]","action_history":"[0,1,1,0,0]","door_history":"[1,0,0,1,1]","location_rts":"[926,447,483,392,624]","trial_type":"two-door-navigation","trial_index":29,"time_elapsed":908659,"internal_node_id":"0.0-2.0-27.0"},{"group":"dicyclic group of order 12","room_assignment":["orange","blue","pink","brown","green","olive","purple","grey","yellow","cyan","red","ivory"],"door_color_assignment":["white","black"],"door_generator_assignment":[1,0],"goal":10,"start":8,"action_noise":0.15,"location_history":"[8,0,1,2,6,11,4,9,6,10]","action_history":"[1,0,0,1,0,0,0,0,1]","door_history":"[0,1,1,0,1,1,1,1,0]","location_rts":"[2017,508,505,358,374,376,420,390,323]","trial_type":"two-door-navigation","trial_index":30,"time_elapsed":926640,"internal_node_id":"0.0-2.0-28.0"},{"group":"dicyclic group of order 12","room_assignment":["orange","blue","pink","brown","green","olive","purple","grey","yellow","cyan","red","ivory"],"door_color_assignment":["white","black"],"door_generator_assignment":[1,0],"goal":7,"start":10,"action_noise":0.15,"location_history":"[10,2,3,7]","action_history":"[1,0,1]","door_history":"[0,1,0]","location_rts":"[772,313,451]","trial_type":"two-door-navigation","trial_index":31,"time_elapsed":934746,"internal_node_id":"0.0-2.0-29.0"},{"group":"dicyclic group of order 12","room_assignment":["orange","blue","pink","brown","green","olive","purple","grey","yellow","cyan","red","ivory"],"door_color_assignment":["white","black"],"door_generator_assignment":[1,0],"goal":6,"start":7,"action_noise":0.15,"location_history":"[7,8,5,10,2,6]","action_history":"[0,0,0,1,0]","door_history":"[1,1,1,0,1]","location_rts":"[1098,375,539,496,623]","trial_type":"two-door-navigation","trial_index":32,"time_elapsed":946495,"internal_node_id":"0.0-2.0-30.0"},{"group":"dicyclic group of order 12","room_assignment":["orange","blue","pink","brown","green","olive","purple","grey","yellow","cyan","red","ivory"],"door_color_assignment":["white","black"],"door_generator_assignment":[1,0],"goal":0,"start":6,"action_noise":0.15,"location_history":"[6,11,3,7,11,4,8,5,10,7,11,3,7,11,3,7,8,0]","action_history":"[0,1,0,1,0,1,0,0,0,1,1,1,1,1,0,0,0]","door_history":"[1,0,1,0,1,0,1,1,1,0,0,0,0,0,1,1,1]","location_rts":"[934,351,454,558,439,403,388,339,547,361,338,359,369,488,197,339,436]","trial_type":"two-door-navigation","trial_index":33,"time_elapsed":974705,"internal_node_id":"0.0-2.0-31.0"},{"group":"dicyclic group of order 12","room_assignment":["orange","blue","pink","brown","green","olive","purple","grey","yellow","cyan","red","ivory"],"door_color_assignment":["white","black"],"door_generator_assignment":[1,0],"goal":11,"start":0,"action_noise":0.15,"location_history":"[0,4,9,6,11]","action_history":"[1,1,0,0]","door_history":"[0,0,1,1]","location_rts":"[1053,468,336,413]","trial_type":"two-door-navigation","trial_index":34,"time_elapsed":984580,"internal_node_id":"0.0-2.0-32.0"},{"group":"dicyclic group of order 12","room_assignment":["orange","blue","pink","brown","green","olive","purple","grey","yellow","cyan","red","ivory"],"door_color_assignment":["white","black"],"door_generator_assignment":[1,0],"goal":9,"start":11,"action_noise":0.15,"location_history":"[11,3,7,11,4,8,5,9]","action_history":"[0,1,0,0,1,1,1]","door_history":"[1,0,1,1,0,0,0]","location_rts":"[849,419,322,366,647,351,431]","trial_type":"two-door-navigation","trial_index":35,"time_elapsed":998631,"internal_node_id":"0.0-2.0-33.0"},{"group":"dicyclic group of order 12","room_assignment":["orange","blue","pink","brown","green","olive","purple","grey","yellow","cyan","red","ivory"],"door_color_assignment":["white","black"],"door_generator_assignment":[1,0],"goal":5,"start":9,"action_noise":0.15,"location_history":"[9,6,11,3,0,4,9,1,5]","action_history":"[0,0,1,0,1,0,1,1]","door_history":"[1,1,0,1,0,1,0,0]","location_rts":"[772,500,355,399,359,556,976,406]","trial_type":"two-door-navigation","trial_index":36,"time_elapsed":1014646,"internal_node_id":"0.0-2.0-34.0"},{"view_history":"[{\"page_index\":0,\"viewing_time\":1754}]","rt":1754,"trial_type":"instructions","trial_index":37,"time_elapsed":1017402,"internal_node_id":"0.0-3.0"},{"view_history":"[{\"page_index\":0,\"viewing_time\":2968},{\"page_index\":1,\"viewing_time\":2770}]","rt":5738,"trial_type":"instructions","trial_index":38,"time_elapsed":1024141,"internal_node_id":"0.0-4.0"},{"group":"dihedral group of order 12","fractal_assignment":["../images/red_prp.png","../images/grn_blu.png","../images/org_blu.png","../images/pnk_blu.png","../images/ylw_slt.png","../images/grn_red.png","../images/ylw_pnk.png","../images/grn_prp.png","../images/wht_red.png","../images/gry_blk.png","../images/cyn_red.png","../images/blu_wht.png"],"mutagen_generator_assignment":[1,0],"goal":7,"start":11,"action_noise":0.15,"location_history":"[11,5,11,5,0,1,7]","action_history":"[1,0,0,0,0,1]","mutagen_history":"[0,1,1,1,1,0]","location_rts":"[6462,1255,907,945,521,709]","trial_type":"fractal-mutation","trial_index":39,"time_elapsed":1045694,"internal_node_id":"0.0-5.0-0.0"},{"group":"dihedral group of order 12","fractal_assignment":["../images/red_prp.png","../images/grn_blu.png","../images/org_blu.png","../images/pnk_blu.png","../images/ylw_slt.png","../images/grn_red.png","../images/ylw_pnk.png","../images/grn_prp.png","../images/wht_red.png","../images/gry_blk.png","../images/cyn_red.png","../images/blu_wht.png"],"mutagen_generator_assignment":[1,0],"goal":8,"start":7,"action_noise":0.15,"location_history":"[7,1,7,6,0,6,0,6,11,10,9,3,9,3,9,8]","action_history":"[1,1,0,1,1,1,1,0,0,0,1,1,1,1,0]","mutagen_history":"[0,0,1,0,0,0,0,1,1,1,0,0,0,0,1]","location_rts":"[1884,962,578,926,818,956,947,600,463,541,387,415,405,587,367]","trial_type":"fractal-mutation","trial_index":40,"time_elapsed":1077733,"internal_node_id":"0.0-5.0-1.0"},{"group":"dihedral group of order 12","fractal_assignment":["../images/red_prp.png","../images/grn_blu.png","../images/org_blu.png","../images/pnk_blu.png","../images/ylw_slt.png","../images/grn_red.png","../images/ylw_pnk.png","../images/grn_prp.png","../images/wht_red.png","../images/gry_blk.png","../images/cyn_red.png","../images/blu_wht.png"],"mutagen_generator_assignment":[1,0],"goal":4,"start":8,"action_noise":0.15,"location_history":"[8,7,1,7,1,2,3,4]","action_history":"[0,1,1,1,0,0,1]","mutagen_history":"[1,0,0,0,1,1,0]","location_rts":"[2173,1490,985,792,949,680,804]","trial_type":"fractal-mutation","trial_index":41,"time_elapsed":1097515,"internal_node_id":"0.0-5.0-2.0"},{"group":"dihedral group of order 12","fractal_assignment":["../images/red_prp.png","../images/grn_blu.png","../images/org_blu.png","../images/pnk_blu.png","../images/ylw_slt.png","../images/grn_red.png","../images/ylw_pnk.png","../images/grn_prp.png","../images/wht_red.png","../images/gry_blk.png","../images/cyn_red.png","../images/blu_wht.png"],"mutagen_generator_assignment":[1,0],"goal":5,"start":4,"action_noise":0.15,"location_history":"[4,5]","action_history":"[0]","mutagen_history":"[1]","location_rts":"[1456]","trial_type":"fractal-mutation","trial_index":42,"time_elapsed":1103675,"internal_node_id":"0.0-5.0-3.0"},{"group":"dihedral group of order 12","fractal_assignment":["../images/red_prp.png","../images/grn_blu.png","../images/org_blu.png","../images/pnk_blu.png","../images/ylw_slt.png","../images/grn_red.png","../images/ylw_pnk.png","../images/grn_prp.png","../images/wht_red.png","../images/gry_blk.png","../images/cyn_red.png","../images/blu_wht.png"],"mutagen_generator_assignment":[1,0],"goal":10,"start":5,"action_noise":0.15,"location_history":"[5,0,6,0,6,11,5,11,10]","action_history":"[0,1,1,1,0,0,1,0]","mutagen_history":"[1,0,0,0,1,1,0,1]","location_rts":"[1434,519,1110,710,438,497,986,634]","trial_type":"fractal-mutation","trial_index":43,"time_elapsed":1123131,"internal_node_id":"0.0-5.0-4.0"},{"group":"dihedral group of order 12","fractal_assignment":["../images/red_prp.png","../images/grn_blu.png","../images/org_blu.png","../images/pnk_blu.png","../images/ylw_slt.png","../images/grn_red.png","../images/ylw_pnk.png","../images/grn_prp.png","../images/wht_red.png","../images/gry_blk.png","../images/cyn_red.png","../images/blu_wht.png"],"mutagen_generator_assignment":[1,0],"goal":1,"start":10,"action_noise":0.15,"location_history":"[10,9,3,9,3,4,5,0,1]","action_history":"[0,1,1,1,0,0,0,1]","mutagen_history":"[1,0,0,0,1,1,1,0]","location_rts":"[2609,640,542,509,666,582,667,552]","trial_type":"fractal-mutation","trial_index":44,"time_elapsed":1143069,"internal_node_id":"0.0-5.0-5.0"},{"group":"dihedral group of order 12","fractal_assignment":["../images/red_prp.png","../images/grn_blu.png","../images/org_blu.png","../images/pnk_blu.png","../images/ylw_slt.png","../images/grn_red.png","../images/ylw_pnk.png","../images/grn_prp.png","../images/wht_red.png","../images/gry_blk.png","../images/cyn_red.png","../images/blu_wht.png"],"mutagen_generator_assignment":[1,0],"goal":6,"start":1,"action_noise":0.15,"location_history":"[1,7,6]","action_history":"[1,0]","mutagen_history":"[0,1]","location_rts":"[1930,433]","trial_type":"fractal-mutation","trial_index":45,"time_elapsed":1151202,"internal_node_id":"0.0-5.0-6.0"},{"group":"dihedral group of order 12","fractal_assignment":["../images/red_prp.png","../images/grn_blu.png","../images/org_blu.png","../images/pnk_blu.png","../images/ylw_slt.png","../images/grn_red.png","../images/ylw_pnk.png","../images/grn_prp.png","../images/wht_red.png","../images/gry_blk.png","../images/cyn_red.png","../images/blu_wht.png"],"mutagen_generator_assignment":[1,0],"goal":9,"start":6,"action_noise":0.15,"location_history":"[6,0,1,7,1,7,1,7,1,2,3,9]","action_history":"[1,0,0,1,1,1,1,0,0,0,1]","mutagen_history":"[0,1,1,0,0,0,0,1,1,1,0]","location_rts":"[1566,544,559,906,553,1590,823,509,701,469,466]","trial_type":"fractal-mutation","trial_index":46,"time_elapsed":1176601,"internal_node_id":"0.0-5.0-7.0"},{"group":"dihedral group of order 12","fractal_assignment":["../images/red_prp.png","../images/grn_blu.png","../images/org_blu.png","../images/pnk_blu.png","../images/ylw_slt.png","../images/grn_red.png","../images/ylw_pnk.png","../images/grn_prp.png","../images/wht_red.png","../images/gry_blk.png","../images/cyn_red.png","../images/blu_wht.png"],"mutagen_generator_assignment":[1,0],"goal":2,"start":9,"action_noise":0.15,"location_history":"[9,3,9,8,7,6,0,1,7,6,0,6,0,1,2]","action_history":"[1,0,0,0,0,1,1,1,0,1,1,1,0,0]","mutagen_history":"[0,1,1,1,1,0,0,0,1,0,0,0,1,1]","location_rts":"[1322,684,432,743,482,413,748,503,966,1021,710,733,614,418]","trial_type":"fractal-mutation","trial_index":47,"time_elapsed":1206735,"internal_node_id":"0.0-5.0-8.0"},{"group":"dihedral group of order 12","fractal_assignment":["../images/red_prp.png","../images/grn_blu.png","../images/org_blu.png","../images/pnk_blu.png","../images/ylw_slt.png","../images/grn_red.png","../images/ylw_pnk.png","../images/grn_prp.png","../images/wht_red.png","../images/gry_blk.png","../images/cyn_red.png","../images/blu_wht.png"],"mutagen_generator_assignment":[1,0],"goal":0,"start":2,"action_noise":0.15,"location_history":"[2,8,7,6,0]","action_history":"[1,0,0,1]","mutagen_history":"[0,1,1,0]","location_rts":"[1307,898,554,68]","trial_type":"fractal-mutation","trial_index":48,"time_elapsed":1217798,"internal_node_id":"0.0-5.0-9.0"},{"group":"dihedral group of order 12","fractal_assignment":["../images/red_prp.png","../images/grn_blu.png","../images/org_blu.png","../images/pnk_blu.png","../images/ylw_slt.png","../images/grn_red.png","../images/ylw_pnk.png","../images/grn_prp.png","../images/wht_red.png","../images/gry_blk.png","../images/cyn_red.png","../images/blu_wht.png"],"mutagen_generator_assignment":[1,0],"goal":3,"start":0,"action_noise":0.15,"location_history":"[0,6,11,10,4,10,9,8,2,8,2,3]","action_history":"[1,0,0,1,1,0,0,1,1,0,0]","mutagen_history":"[0,1,1,0,0,1,1,0,0,1,1]","location_rts":"[1129,354,2371,673,483,990,510,639,656,1097,605]","trial_type":"fractal-mutation","trial_index":49,"time_elapsed":1244120,"internal_node_id":"0.0-5.0-10.0"},{"group":"dihedral group of order 12","fractal_assignment":["../images/red_prp.png","../images/grn_blu.png","../images/org_blu.png","../images/pnk_blu.png","../images/ylw_slt.png","../images/grn_red.png","../images/ylw_pnk.png","../images/grn_prp.png","../images/wht_red.png","../images/gry_blk.png","../images/cyn_red.png","../images/blu_wht.png"],"mutagen_generator_assignment":[1,0],"goal":10,"start":3,"action_noise":0.15,"location_history":"[3,9,8,7,6,0,6,0,1,2,3,9,8,7,1,7,1,7,1,2,8,2,8,2,3,4,5,11,10]","action_history":"[1,0,0,0,1,1,1,0,0,0,1,0,0,0,1,1,1,1,0,0,1,1,1,1,0,0,0,0]","mutagen_history":"[0,1,1,1,0,0,0,1,1,1,0,1,1,1,0,0,0,0,1,1,0,0,0,0,1,1,1,1]","location_rts":"[1595,578,724,951,500,626,660,494,863,665,764,668,627,591,615,359,450,533,403,573,378,588,362,629,296,576,638,725]","trial_type":"fractal-mutation","trial_index":50,"time_elapsed":1298835,"internal_node_id":"0.0-5.0-11.0"},{"group":"dihedral group of order 12","fractal_assignment":["../images/red_prp.png","../images/grn_blu.png","../images/org_blu.png","../images/pnk_blu.png","../images/ylw_slt.png","../images/grn_red.png","../images/ylw_pnk.png","../images/grn_prp.png","../images/wht_red.png","../images/gry_blk.png","../images/cyn_red.png","../images/blu_wht.png"],"mutagen_generator_assignment":[1,0],"goal":8,"start":10,"action_noise":0.15,"location_history":"[10,4,5,0,6,0,6,11,5,11,5,0,6,0,1,2,8]","action_history":"[1,0,0,1,1,1,0,1,1,1,0,1,1,0,0,0]","mutagen_history":"[0,1,1,0,0,0,1,0,0,0,1,0,0,1,1,1]","location_rts":"[1238,452,702,361,559,520,578,367,417,517,617,1050,625,476,337,616]","trial_type":"fractal-mutation","trial_index":51,"time_elapsed":1331003,"internal_node_id":"0.0-5.0-12.0"},{"group":"dihedral group of order 12","fractal_assignment":["../images/red_prp.png","../images/grn_blu.png","../images/org_blu.png","../images/pnk_blu.png","../images/ylw_slt.png","../images/grn_red.png","../images/ylw_pnk.png","../images/grn_prp.png","../images/wht_red.png","../images/gry_blk.png","../images/cyn_red.png","../images/blu_wht.png"],"mutagen_generator_assignment":[1,0],"goal":4,"start":8,"action_noise":0.15,"location_history":"[8,2,3,9,8,7,6,0,6,0,1,7,6,11,10,9,8,7,1,2,8,7,1,7,1,2,3,4]","action_history":"[1,0,1,0,0,0,1,1,0,0,1,1,0,0,0,0,0,1,0,0,0,1,1,1,0,0,0]","mutagen_history":"[0,1,0,1,1,1,0,0,1,1,0,0,1,1,1,1,1,0,1,1,1,0,0,0,1,1,1]","location_rts":"[1197,574,600,1765,671,788,559,533,500,644,1597,1170,427,495,527,834,548,365,515,495,540,826,532,897,598,502,682]","trial_type":"fractal-mutation","trial_index":52,"time_elapsed":1386688,"internal_node_id":"0.0-5.0-13.0"},{"group":"dihedral group of order 12","fractal_assignment":["../images/red_prp.png","../images/grn_blu.png","../images/org_blu.png","../images/pnk_blu.png","../images/ylw_slt.png","../images/grn_red.png","../images/ylw_pnk.png","../images/grn_prp.png","../images/wht_red.png","../images/gry_blk.png","../images/cyn_red.png","../images/blu_wht.png"],"mutagen_generator_assignment":[1,0],"goal":0,"start":4,"action_noise":0.15,"location_history":"[4,10,9,3,9,8,7,6,0]","action_history":"[1,0,1,1,0,0,1,1]","mutagen_history":"[0,1,0,0,1,1,0,0]","location_rts":"[1285,713,575,510,648,687,508,347]","trial_type":"fractal-mutation","trial_index":53,"time_elapsed":1405018,"internal_node_id":"0.0-5.0-14.0"},{"group":"dihedral group of order 12","fractal_assignment":["../images/red_prp.png","../images/grn_blu.png","../images/org_blu.png","../images/pnk_blu.png","../images/ylw_slt.png","../images/grn_red.png","../images/ylw_pnk.png","../images/grn_prp.png","../images/wht_red.png","../images/gry_blk.png","../images/cyn_red.png","../images/blu_wht.png"],"mutagen_generator_assignment":[1,0],"goal":11,"start":0,"action_noise":0.15,"location_history":"[0,1,7,1,2,3,4,5,0,1,7,1,7,6,11]","action_history":"[0,1,1,0,0,0,0,0,1,1,1,1,0,0]","mutagen_history":"[1,0,0,1,1,1,1,1,0,0,0,0,1,1]","location_rts":"[1295,789,1635,621,736,864,814,769,367,549,823,457,449,577]","trial_type":"fractal-mutation","trial_index":54,"time_elapsed":1436516,"internal_node_id":"0.0-5.0-15.0"},{"group":"dihedral group of order 12","fractal_assignment":["../images/red_prp.png","../images/grn_blu.png","../images/org_blu.png","../images/pnk_blu.png","../images/ylw_slt.png","../images/grn_red.png","../images/ylw_pnk.png","../images/grn_prp.png","../images/wht_red.png","../images/gry_blk.png","../images/cyn_red.png","../images/blu_wht.png"],"mutagen_generator_assignment":[1,0],"goal":2,"start":11,"action_noise":0.15,"location_history":"[11,5,0,6,0,1,2]","action_history":"[1,0,1,1,0,0]","mutagen_history":"[0,1,0,0,1,1]","location_rts":"[1195,643,764,576,1149,476]","trial_type":"fractal-mutation","trial_index":55,"time_elapsed":1451863,"internal_node_id":"0.0-5.0-16.0"},{"group":"dihedral group of order 12","fractal_assignment":["../images/red_prp.png","../images/grn_blu.png","../images/org_blu.png","../images/pnk_blu.png","../images/ylw_slt.png","../images/grn_red.png","../images/ylw_pnk.png","../images/grn_prp.png","../images/wht_red.png","../images/gry_blk.png","../images/cyn_red.png","../images/blu_wht.png"],"mutagen_generator_assignment":[1,0],"goal":7,"start":2,"action_noise":0.15,"location_history":"[2,3,9,3,4,5,11,10,4,5,11,5,0,1,2,3,4,5,11,10,9,3,9,8,7]","action_history":"[0,1,1,0,0,1,1,1,0,0,1,1,1,0,0,0,0,1,1,0,1,1,0,0]","mutagen_history":"[1,0,0,1,1,0,0,0,1,1,0,0,0,1,1,1,1,0,0,1,0,0,1,1]","location_rts":"[1391,1180,549,1071,801,561,718,622,1072,473,437,490,528,797,722,777,2487,830,505,772,1095,835,613,472]","trial_type":"fractal-mutation","trial_index":56,"time_elapsed":1504173,"internal_node_id":"0.0-5.0-17.0"},{"group":"dihedral group of order 12","fractal_assignment":["../images/red_prp.png","../images/grn_blu.png","../images/org_blu.png","../images/pnk_blu.png","../images/ylw_slt.png","../images/grn_red.png","../images/ylw_pnk.png","../images/grn_prp.png","../images/wht_red.png","../images/gry_blk.png","../images/cyn_red.png","../images/blu_wht.png"],"mutagen_generator_assignment":[1,0],"goal":5,"start":7,"action_noise":0.15,"location_history":"[7,6,11,10,9,3,9,3,9,3,4,5]","action_history":"[1,0,0,0,0,1,1,1,1,0,0]","mutagen_history":"[0,1,1,1,1,0,0,0,0,1,1]","location_rts":"[1322,1056,426,619,664,458,443,549,411,469,606]","trial_type":"fractal-mutation","trial_index":57,"time_elapsed":1527743,"internal_node_id":"0.0-5.0-18.0"},{"group":"dihedral group of order 12","fractal_assignment":["../images/red_prp.png","../images/grn_blu.png","../images/org_blu.png","../images/pnk_blu.png","../images/ylw_slt.png","../images/grn_red.png","../images/ylw_pnk.png","../images/grn_prp.png","../images/wht_red.png","../images/gry_blk.png","../images/cyn_red.png","../images/blu_wht.png"],"mutagen_generator_assignment":[1,0],"goal":6,"start":5,"action_noise":0.15,"location_history":"[5,0,1,2,3,4,5,0,6]","action_history":"[1,0,0,0,1,1,1,1]","mutagen_history":"[0,1,1,1,0,0,0,0]","location_rts":"[1387,494,503,742,1232,541,1002,585]","trial_type":"fractal-mutation","trial_index":58,"time_elapsed":1547224,"internal_node_id":"0.0-5.0-19.0"},{"group":"dihedral group of order 12","fractal_assignment":["../images/red_prp.png","../images/grn_blu.png","../images/org_blu.png","../images/pnk_blu.png","../images/ylw_slt.png","../images/grn_red.png","../images/ylw_pnk.png","../images/grn_prp.png","../images/wht_red.png","../images/gry_blk.png","../images/cyn_red.png","../images/blu_wht.png"],"mutagen_generator_assignment":[1,0],"goal":3,"start":6,"action_noise":0.15,"location_history":"[6,11,5,11,10,9,8,7,1,7,1,2,3]","action_history":"[0,1,1,0,0,0,0,1,1,1,0,0]","mutagen_history":"[1,0,0,1,1,1,1,0,0,0,1,1]","location_rts":"[1228,1973,588,923,545,801,503,683,610,666,456,532]","trial_type":"fractal-mutation","trial_index":59,"time_elapsed":1574885,"internal_node_id":"0.0-5.0-20.0"},{"group":"dihedral group of order 12","fractal_assignment":["../images/red_prp.png","../images/grn_blu.png","../images/org_blu.png","../images/pnk_blu.png","../images/ylw_slt.png","../images/grn_red.png","../images/ylw_pnk.png","../images/grn_prp.png","../images/wht_red.png","../images/gry_blk.png","../images/cyn_red.png","../images/blu_wht.png"],"mutagen_generator_assignment":[1,0],"goal":1,"start":3,"action_noise":0.15,"location_history":"[3,9,3,4,5,0,6,11,10,4,5,11,5,11,5,0,1]","action_history":"[1,1,0,0,0,1,1,0,0,0,1,1,1,1,0,0]","mutagen_history":"[0,0,1,1,1,0,0,1,1,1,0,0,0,0,1,1]","location_rts":"[797,356,284,542,537,452,555,1031,484,691,430,432,593,502,507,846]","trial_type":"fractal-mutation","trial_index":60,"time_elapsed":1606479,"internal_node_id":"0.0-5.0-21.0"},{"group":"dihedral group of order 12","fractal_assignment":["../images/red_prp.png","../images/grn_blu.png","../images/org_blu.png","../images/pnk_blu.png","../images/ylw_slt.png","../images/grn_red.png","../images/ylw_pnk.png","../images/grn_prp.png","../images/wht_red.png","../images/gry_blk.png","../images/cyn_red.png","../images/blu_wht.png"],"mutagen_generator_assignment":[1,0],"goal":9,"start":1,"action_noise":0.15,"location_history":"[1,7,6,11,5,0,6,11,5,0,1,7,6,11,5,11,10,4,5,11,5,0,1,7,1,2,3,9]","action_history":"[1,0,0,1,0,0,1,0,1,0,1,0,0,1,1,0,0,0,1,1,0,0,1,1,0,0,0]","mutagen_history":"[0,1,1,0,1,1,0,1,0,1,0,1,1,0,0,1,1,1,0,0,1,1,0,0,1,1,1]","location_rts":"[1299,410,592,619,449,675,591,1002,365,667,395,1986,491,110,241,394,358,280,520,619,510,507,316,960,675,478,564]","trial_type":"fractal-mutation","trial_index":61,"time_elapsed":1659012,"internal_node_id":"0.0-5.0-22.0"},{"group":"dihedral group of order 12","fractal_assignment":["../images/red_prp.png","../images/grn_blu.png","../images/org_blu.png","../images/pnk_blu.png","../images/ylw_slt.png","../images/grn_red.png","../images/ylw_pnk.png","../images/grn_prp.png","../images/wht_red.png","../images/gry_blk.png","../images/cyn_red.png","../images/blu_wht.png"],"mutagen_generator_assignment":[1,0],"goal":3,"start":9,"action_noise":0.15,"location_history":"[9,3]","action_history":"[1]","mutagen_history":"[0]","location_rts":"[981]","trial_type":"fractal-mutation","trial_index":62,"time_elapsed":1664530,"internal_node_id":"0.0-5.0-23.0"},{"group":"dihedral group of order 12","fractal_assignment":["../images/red_prp.png","../images/grn_blu.png","../images/org_blu.png","../images/pnk_blu.png","../images/ylw_slt.png","../images/grn_red.png","../images/ylw_pnk.png","../images/grn_prp.png","../images/wht_red.png","../images/gry_blk.png","../images/cyn_red.png","../images/blu_wht.png"],"mutagen_generator_assignment":[1,0],"goal":4,"start":3,"action_noise":0.15,"location_history":"[3,4]","action_history":"[0]","mutagen_history":"[1]","location_rts":"[1572]","trial_type":"fractal-mutation","trial_index":63,"time_elapsed":1670843,"internal_node_id":"0.0-5.0-24.0"},{"group":"dihedral group of order 12","fractal_assignment":["../images/red_prp.png","../images/grn_blu.png","../images/org_blu.png","../images/pnk_blu.png","../images/ylw_slt.png","../images/grn_red.png","../images/ylw_pnk.png","../images/grn_prp.png","../images/wht_red.png","../images/gry_blk.png","../images/cyn_red.png","../images/blu_wht.png"],"mutagen_generator_assignment":[1,0],"goal":2,"start":4,"action_noise":0.15,"location_history":"[4,10,4,5,11,5,11,10,9,3,9,3,9,3,4,5,0,6,0,1,2]","action_history":"[1,0,1,1,1,1,0,0,0,0,1,1,1,0,0,0,1,1,0,0]","mutagen_history":"[0,1,0,0,0,0,1,1,1,1,0,0,0,1,1,1,0,0,1,1]","location_rts":"[1071,659,351,426,431,873,627,537,518,478,344,460,416,595,1422,714,1269,1162,747,467]","trial_type":"fractal-mutation","trial_index":64,"time_elapsed":1712119,"internal_node_id":"0.0-5.0-25.0"},{"group":"dihedral group of order 12","fractal_assignment":["../images/red_prp.png","../images/grn_blu.png","../images/org_blu.png","../images/pnk_blu.png","../images/ylw_slt.png","../images/grn_red.png","../images/ylw_pnk.png","../images/grn_prp.png","../images/wht_red.png","../images/gry_blk.png","../images/cyn_red.png","../images/blu_wht.png"],"mutagen_generator_assignment":[1,0],"goal":1,"start":2,"action_noise":0.15,"location_history":"[2,8,7,6,0,6,0,1]","action_history":"[1,0,0,0,1,1,0]","mutagen_history":"[0,1,1,1,0,0,1]","location_rts":"[1126,413,617,874,469,406,463]","trial_type":"fractal-mutation","trial_index":65,"time_elapsed":1728383,"internal_node_id":"0.0-5.0-26.0"},{"group":"dihedral group of order 12","fractal_assignment":["../images/red_prp.png","../images/grn_blu.png","../images/org_blu.png","../images/pnk_blu.png","../images/ylw_slt.png","../images/grn_red.png","../images/ylw_pnk.png","../images/grn_prp.png","../images/wht_red.png","../images/gry_blk.png","../images/cyn_red.png","../images/blu_wht.png"],"mutagen_generator_assignment":[1,0],"goal":8,"start":1,"action_noise":0.15,"location_history":"[1,7,6,0,6,11,5,11,5,0,1,2,3,4,10,4,10,4,10,4,10,4,5,0,6,11,10,4,5,11,5,11,10,4,10,4,5,0,6,11,5,11,10,4,5,0,6,0,1,7,6,0,6,11,10,9,3,9,8]","action_history":"[1,0,1,1,0,1,1,1,1,1,0,0,1,1,1,1,1,1,0,1,1,0,0,0,0,0,1,0,0,1,1,0,1,1,0,0,0,0,0,1,1,0,1,0,0,0,1,0,1,1,1,1,0,0,0,1,1,1]","mutagen_history":"[0,1,0,0,1,0,0,0,0,0,1,1,0,0,0,0,0,0,1,0,0,1,1,1,1,1,0,1,1,0,0,1,0,0,1,1,1,1,1,0,0,1,0,1,1,1,0,1,0,0,0,0,1,1,1,0,0,0]","location_rts":"[762,639,414,800,441,551,461,365,382,819,586,1346,396,410,359,342,429,808,463,424,386,447,373,550,1041,522,498,416,434,225,392,211,424,325,395,1009,544,742,1426,459,525,234,424,321,379,403,1722,876,405,400,373,393,793,402,456,605,438,413]","trial_type":"fractal-mutation","trial_index":66,"time_elapsed":1832976,"internal_node_id":"0.0-5.0-27.0"},{"group":"dihedral group of order 12","fractal_assignment":["../images/red_prp.png","../images/grn_blu.png","../images/org_blu.png","../images/pnk_blu.png","../images/ylw_slt.png","../images/grn_red.png","../images/ylw_pnk.png","../images/grn_prp.png","../images/wht_red.png","../images/gry_blk.png","../images/cyn_red.png","../images/blu_wht.png"],"mutagen_generator_assignment":[1,0],"goal":10,"start":8,"action_noise":0.15,"location_history":"[8,7,1,7,1,2,8,7,6,0,6,0,6,0,1,2,3,4,5,0,6,11,5,11,10]","action_history":"[0,1,1,1,1,0,0,0,1,1,1,1,1,0,1,0,0,0,1,0,0,0,0,0]","mutagen_history":"[1,0,0,0,0,1,1,1,0,0,0,0,0,1,0,1,1,1,0,1,1,1,1,1]","location_rts":"[2081,512,478,370,445,211,454,545,317,40,401,304,587,330,369,433,516,503,428,359,466,521,479,453]","trial_type":"fractal-mutation","trial_index":67,"time_elapsed":1877219,"internal_node_id":"0.0-5.0-28.0"},{"group":"dihedral group of order 12","fractal_assignment":["../images/red_prp.png","../images/grn_blu.png","../images/org_blu.png","../images/pnk_blu.png","../images/ylw_slt.png","../images/grn_red.png","../images/ylw_pnk.png","../images/grn_prp.png","../images/wht_red.png","../images/gry_blk.png","../images/cyn_red.png","../images/blu_wht.png"],"mutagen_generator_assignment":[1,0],"goal":7,"start":10,"action_noise":0.15,"location_history":"[10,4,5,11,5,11,10,4,10,4,5,0,6,0,1,2,3,4,10,4,5,11,10,9,3,9,8,7]","action_history":"[1,0,1,1,0,0,1,1,1,0,0,1,1,0,0,0,0,0,1,0,1,0,0,1,1,0,0]","mutagen_history":"[0,1,0,0,1,1,0,0,0,1,1,0,0,1,1,1,1,1,0,1,0,1,1,0,0,1,1]","location_rts":"[1222,427,1098,529,205,519,606,1683,758,582,651,426,624,443,659,561,981,1517,362,890,511,965,584,474,711,860,1193]","trial_type":"fractal-mutation","trial_index":68,"time_elapsed":1933470,"internal_node_id":"0.0-5.0-29.0"},{"group":"dihedral group of order 12","fractal_assignment":["../images/red_prp.png","../images/grn_blu.png","../images/org_blu.png","../images/pnk_blu.png","../images/ylw_slt.png","../images/grn_red.png","../images/ylw_pnk.png","../images/grn_prp.png","../images/wht_red.png","../images/gry_blk.png","../images/cyn_red.png","../images/blu_wht.png"],"mutagen_generator_assignment":[1,0],"goal":6,"start":7,"action_noise":0.15,"location_history":"[7,6]","action_history":"[1]","mutagen_history":"[0]","location_rts":"[839]","trial_type":"fractal-mutation","trial_index":69,"time_elapsed":1938845,"internal_node_id":"0.0-5.0-30.0"},{"group":"dihedral group of order 12","fractal_assignment":["../images/red_prp.png","../images/grn_blu.png","../images/org_blu.png","../images/pnk_blu.png","../images/ylw_slt.png","../images/grn_red.png","../images/ylw_pnk.png","../images/grn_prp.png","../images/wht_red.png","../images/gry_blk.png","../images/cyn_red.png","../images/blu_wht.png"],"mutagen_generator_assignment":[1,0],"goal":0,"start":6,"action_noise":0.15,"location_history":"[6,11,10,9,3,9,8,7,6,11,5,11,10,9,8,2,8,2,3,4,10,9,8,2,3,4,10,9,3,4,10,9,8,7,1,7,6,0]","action_history":"[1,0,1,1,1,0,0,0,0,1,1,0,0,0,1,1,1,1,1,0,0,0,1,0,0,1,0,1,0,1,0,0,0,0,1,0,1]","mutagen_history":"[0,1,0,0,0,1,1,1,1,0,0,1,1,1,0,0,0,0,0,1,1,1,0,1,1,0,1,0,1,0,1,1,1,1,0,1,0]","location_rts":"[1838,2494,672,493,703,447,867,14717,7124,733,8158,500,549,53,680,771,649,720,549,496,457,461,853,945,671,688,520,632,638,481,441,344,548,506,500,495,707]","trial_type":"fractal-mutation","trial_index":70,"time_elapsed":2040295,"internal_node_id":"0.0-5.0-31.0"},{"group":"dihedral group of order 12","fractal_assignment":["../images/red_prp.png","../images/grn_blu.png","../images/org_blu.png","../images/pnk_blu.png","../images/ylw_slt.png","../images/grn_red.png","../images/ylw_pnk.png","../images/grn_prp.png","../images/wht_red.png","../images/gry_blk.png","../images/cyn_red.png","../images/blu_wht.png"],"mutagen_generator_assignment":[1,0],"goal":11,"start":0,"action_noise":0.15,"location_history":"[0,1,7,6,11]","action_history":"[0,1,0,0]","mutagen_history":"[1,0,1,1]","location_rts":"[2101,797,732,519]","trial_type":"fractal-mutation","trial_index":71,"time_elapsed":2052863,"internal_node_id":"0.0-5.0-32.0"},{"group":"dihedral group of order 12","fractal_assignment":["../images/red_prp.png","../images/grn_blu.png","../images/org_blu.png","../images/pnk_blu.png","../images/ylw_slt.png","../images/grn_red.png","../images/ylw_pnk.png","../images/grn_prp.png","../images/wht_red.png","../images/gry_blk.png","../images/cyn_red.png","../images/blu_wht.png"],"mutagen_generator_assignment":[1,0],"goal":9,"start":11,"action_noise":0.15,"location_history":"[11,5,0,6,11,10,4,5,0,6,11,10,9]","action_history":"[1,0,0,0,1,1,0,0,1,0,0,0]","mutagen_history":"[0,1,1,1,0,0,1,1,0,1,1,1]","location_rts":"[955,311,409,497,2450,616,404,563,344,588,421,117]","trial_type":"fractal-mutation","trial_index":72,"time_elapsed":2078571,"internal_node_id":"0.0-5.0-33.0"},{"group":"dihedral group of order 12","fractal_assignment":["../images/red_prp.png","../images/grn_blu.png","../images/org_blu.png","../images/pnk_blu.png","../images/ylw_slt.png","../images/grn_red.png","../images/ylw_pnk.png","../images/grn_prp.png","../images/wht_red.png","../images/gry_blk.png","../images/cyn_red.png","../images/blu_wht.png"],"mutagen_generator_assignment":[1,0],"goal":5,"start":9,"action_noise":0.15,"location_history":"[9,3,4,10,4,10,4,10,4,10,9,3,4,10,4,10,9,8,2,3,9,3,9,3,4,10,4,5]","action_history":"[1,0,0,1,1,0,0,0,1,1,0,1,1,1,1,0,0,1,0,1,1,1,1,0,1,1,0]","mutagen_history":"[0,1,1,0,0,1,1,1,0,0,1,0,0,0,0,1,1,0,1,0,0,0,0,1,0,0,1]","location_rts":"[892,551,522,542,781,480,372,521,411,516,1186,614,511,575,415,980,762,1032,467,491,431,597,403,422,362,634,535]","trial_type":"fractal-mutation","trial_index":73,"time_elapsed":2130418,"internal_node_id":"0.0-5.0-34.0"},{"view_history":"[{\"page_index\":0,\"viewing_time\":8065}]","rt":8065,"trial_type":"instructions","trial_index":74,"time_elapsed":2139485,"internal_node_id":"0.0-6.0"},{"rt":5321,"responses":"{\"Q0\":\"no\"}","trial_type":"survey-text","trial_index":75,"time_elapsed":2145810,"internal_node_id":"0.0-7.0"}]