[{"view_history":"[{\"page_index\":0,\"viewing_time\":514295},{\"page_index\":1,\"viewing_time\":20356}]","rt":534653,"trial_type":"instructions","trial_index":0,"time_elapsed":534656,"internal_node_id":"0.0-0.0"},{"view_history":"[{\"page_index\":0,\"viewing_time\":4915},{\"page_index\":1,\"viewing_time\":33839}]","rt":38762,"trial_type":"instructions","trial_index":1,"time_elapsed":574420,"internal_node_id":"0.0-1.0"},{"group":"dihedral group of order 12","room_assignment":["blue","red","pink","purple","grey","yellow","olive","cyan","ivory","green","brown","orange"],"door_color_assignment":["white","black"],"door_generator_assignment":[0,1],"goal":7,"start":11,"action_noise":0.15,"location_history":"[11,10,4,5,11,10,9,3,4,5,11,5,11,5,0,1,7]","action_history":"[0,0,0,0,0,0,1,1,1,1,1,1,1,0,0,0]","door_history":"[0,0,0,0,0,0,1,1,1,1,1,1,1,0,0,0]","location_rts":"[5968,1953,942,2409,422,1686,1949,614,543,582,492,597,583,1020,976,582]","trial_type":"two-door-navigation","trial_index":2,"time_elapsed":615549,"internal_node_id":"0.0-2.0-0.0"},{"group":"dihedral group of order 12","room_assignment":["blue","red","pink","purple","grey","yellow","olive","cyan","ivory","green","brown","orange"],"door_color_assignment":["white","black"],"door_generator_assignment":[0,1],"goal":8,"start":7,"action_noise":0.15,"location_history":"[7,1,2,8]","action_history":"[0,0,1]","door_history":"[0,0,1]","location_rts":"[2633,537,1053]","trial_type":"two-door-navigation","trial_index":3,"time_elapsed":626329,"internal_node_id":"0.0-2.0-1.0"},{"group":"dihedral group of order 12","room_assignment":["blue","red","pink","purple","grey","yellow","olive","cyan","ivory","green","brown","orange"],"door_color_assignment":["white","black"],"door_generator_assignment":[0,1],"goal":4,"start":8,"action_noise":0.15,"location_history":"[8,7,1,2,3,4]","action_history":"[0,0,0,0,0]","door_history":"[0,0,0,0,0]","location_rts":"[2779,487,492,462,461]","trial_type":"two-door-navigation","trial_index":4,"time_elapsed":639605,"internal_node_id":"0.0-2.0-2.0"},{"group":"dihedral group of order 12","room_assignment":["blue","red","pink","purple","grey","yellow","olive","cyan","ivory","green","brown","orange"],"door_color_assignment":["white","black"],"door_generator_assignment":[0,1],"goal":5,"start":4,"action_noise":0.15,"location_history":"[4,10,4,10,9,8,2,3,4,5]","action_history":"[1,1,1,0,0,0,0,0,0]","door_history":"[1,1,1,0,0,0,0,0,0]","location_rts":"[2357,762,673,950,526,647,542,559,769]","trial_type":"two-door-navigation","trial_index":5,"time_elapsed":660079,"internal_node_id":"0.0-2.0-3.0"},{"group":"dihedral group of order 12","room_assignment":["blue","red","pink","purple","grey","yellow","olive","cyan","ivory","green","brown","orange"],"door_color_assignment":["white","black"],"door_generator_assignment":[0,1],"goal":10,"start":5,"action_noise":0.15,"location_history":"[5,0,6,0,6,0,1,2,8,7,6,11,10]","action_history":"[1,1,1,1,1,0,0,0,0,0,0,0]","door_history":"[1,1,1,1,1,0,0,0,0,0,0,0]","location_rts":"[2520,2612,1424,594,1360,1605,7633,4315,4234,679,2935,2551]","trial_type":"two-door-navigation","trial_index":6,"time_elapsed":708247,"internal_node_id":"0.0-2.0-4.0"},{"group":"dihedral group of order 12","room_assignment":["blue","red","pink","purple","grey","yellow","olive","cyan","ivory","green","brown","orange"],"door_color_assignment":["white","black"],"door_generator_assignment":[0,1],"goal":1,"start":10,"action_noise":0.15,"location_history":"[10,9,8,7,6,11,5,11,5,11,5,11,10,4,5,0,6,11,10,9,3,9,8,2,3,9,8,7,6,11,10,9,8,2,8,7,1]","action_history":"[0,0,0,0,0,1,1,1,1,1,1,0,0,0,0,0,0,0,0,1,1,0,0,1,1,0,0,0,0,0,0,0,0,1,1,1]","door_history":"[0,0,0,0,0,1,1,1,1,1,1,0,0,0,0,0,0,0,0,1,1,0,0,1,1,0,0,0,0,0,0,0,0,1,1,1]","location_rts":"[3906,3440,503,5844,838,2904,4034,3916,920,2135,1040,1079,1067,1643,777,1376,591,1499,924,2443,652,1646,1007,2949,726,940,1835,3420,444,3081,3465,937,412,1344,525,491]","trial_type":"two-door-navigation","trial_index":7,"time_elapsed":813057,"internal_node_id":"0.0-2.0-5.0"},{"group":"dihedral group of order 12","room_assignment":["blue","red","pink","purple","grey","yellow","olive","cyan","ivory","green","brown","orange"],"door_color_assignment":["white","black"],"door_generator_assignment":[0,1],"goal":6,"start":1,"action_noise":0.15,"location_history":"[1,2,8,7,6]","action_history":"[0,0,0,0]","door_history":"[0,0,0,0]","location_rts":"[6904,6041,409,773]","trial_type":"two-door-navigation","trial_index":8,"time_elapsed":834760,"internal_node_id":"0.0-2.0-6.0"},{"group":"dihedral group of order 12","room_assignment":["blue","red","pink","purple","grey","yellow","olive","cyan","ivory","green","brown","orange"],"door_color_assignment":["white","black"],"door_generator_assignment":[0,1],"goal":9,"start":6,"action_noise":0.15,"location_history":"[6,0,6,0,1,2,3,4,5,0,1,7,1,2,3,9]","action_history":"[1,1,1,0,0,0,0,0,0,1,1,1,0,0,0]","door_history":"[1,1,1,0,0,0,0,0,0,1,1,1,0,0,0]","location_rts":"[8430,3066,721,1390,4992,463,4455,4249,903,2728,528,493,744,4873,598]","trial_type":"two-door-navigation","trial_index":9,"time_elapsed":892129,"internal_node_id":"0.0-2.0-7.0"},{"group":"dihedral group of order 12","room_assignment":["blue","red","pink","purple","grey","yellow","olive","cyan","ivory","green","brown","orange"],"door_color_assignment":["white","black"],"door_generator_assignment":[0,1],"goal":2,"start":9,"action_noise":0.15,"location_history":"[9,3,4,5,0,6,11,5,11,5,11,10,9,3,4,5,0,1,2]","action_history":"[0,0,0,1,1,1,1,1,1,1,0,0,0,0,0,0,0,0]","door_history":"[0,0,0,1,1,1,1,1,1,1,0,0,0,0,0,0,0,0]","location_rts":"[2873,1842,639,3124,6365,466,683,1818,820,744,1278,2432,2635,1606,604,3115,1958,647]","trial_type":"two-door-navigation","trial_index":10,"time_elapsed":947592,"internal_node_id":"0.0-2.0-8.0"},{"group":"dihedral group of order 12","room_assignment":["blue","red","pink","purple","grey","yellow","olive","cyan","ivory","green","brown","orange"],"door_color_assignment":["white","black"],"door_generator_assignment":[0,1],"goal":0,"start":2,"action_noise":0.15,"location_history":"[2,8,2,8,2,3,4,5,0]","action_history":"[0,1,1,1,0,0,0,0]","door_history":"[0,1,1,1,0,0,0,0]","location_rts":"[3080,3243,1215,524,853,3362,409,1638]","trial_type":"two-door-navigation","trial_index":11,"time_elapsed":973566,"internal_node_id":"0.0-2.0-9.0"},{"group":"dihedral group of order 12","room_assignment":["blue","red","pink","purple","grey","yellow","olive","cyan","ivory","green","brown","orange"],"door_color_assignment":["white","black"],"door_generator_assignment":[0,1],"goal":3,"start":0,"action_noise":0.15,"location_history":"[0,1,2,3]","action_history":"[1,0,0]","door_history":"[1,0,0]","location_rts":"[4478,12246,1536]","trial_type":"two-door-navigation","trial_index":12,"time_elapsed":998376,"internal_node_id":"0.0-2.0-10.0"},{"group":"dihedral group of order 12","room_assignment":["blue","red","pink","purple","grey","yellow","olive","cyan","ivory","green","brown","orange"],"door_color_assignment":["white","black"],"door_generator_assignment":[0,1],"goal":10,"start":3,"action_noise":0.15,"location_history":"[3,9,3,9,3,9,8,7,6,11,5,0,6,0,1,2,3,9,8,7,6,0,1,2,3,9,3,9,8,7,1,7,6,11,5,11,10]","action_history":"[1,1,1,1,0,0,0,0,0,0,1,1,1,0,0,1,1,0,0,1,1,0,0,0,1,1,1,0,0,0,1,1,0,1,1,0]","door_history":"[1,1,1,1,0,0,0,0,0,0,1,1,1,0,0,1,1,0,0,1,1,0,0,0,1,1,1,0,0,0,1,1,0,1,1,0]","location_rts":"[2121,482,859,586,1840,727,1739,546,535,657,2341,474,487,375,488,1092,495,719,475,1245,700,1374,518,593,1098,482,505,565,596,558,1000,494,1628,1383,424,732]","trial_type":"two-door-navigation","trial_index":13,"time_elapsed":1069484,"internal_node_id":"0.0-2.0-11.0"},{"group":"dihedral group of order 12","room_assignment":["blue","red","pink","purple","grey","yellow","olive","cyan","ivory","green","brown","orange"],"door_color_assignment":["white","black"],"door_generator_assignment":[0,1],"goal":8,"start":10,"action_noise":0.15,"location_history":"[10,9,8]","action_history":"[0,0]","door_history":"[0,0]","location_rts":"[1898,386]","trial_type":"two-door-navigation","trial_index":14,"time_elapsed":1077312,"internal_node_id":"0.0-2.0-12.0"},{"group":"dihedral group of order 12","room_assignment":["blue","red","pink","purple","grey","yellow","olive","cyan","ivory","green","brown","orange"],"door_color_assignment":["white","black"],"door_generator_assignment":[0,1],"goal":4,"start":8,"action_noise":0.15,"location_history":"[8,7,6,11,10,4]","action_history":"[0,0,0,0,0]","door_history":"[0,0,0,0,0]","location_rts":"[1402,727,376,538,468]","trial_type":"two-door-navigation","trial_index":15,"time_elapsed":1089407,"internal_node_id":"0.0-2.0-13.0"},{"group":"dihedral group of order 12","room_assignment":["blue","red","pink","purple","grey","yellow","olive","cyan","ivory","green","brown","orange"],"door_color_assignment":["white","black"],"door_generator_assignment":[0,1],"goal":0,"start":4,"action_noise":0.15,"location_history":"[4,10,4,10,4,5,0]","action_history":"[0,1,1,1,0,0]","door_history":"[0,1,1,1,0,0]","location_rts":"[3023,918,459,396,564,547]","trial_type":"two-door-navigation","trial_index":16,"time_elapsed":1104923,"internal_node_id":"0.0-2.0-14.0"},{"group":"dihedral group of order 12","room_assignment":["blue","red","pink","purple","grey","yellow","olive","cyan","ivory","green","brown","orange"],"door_color_assignment":["white","black"],"door_generator_assignment":[0,1],"goal":11,"start":0,"action_noise":0.15,"location_history":"[0,1,7,6,11]","action_history":"[0,1,1,0]","door_history":"[0,1,1,0]","location_rts":"[1999,856,428,511]","trial_type":"two-door-navigation","trial_index":17,"time_elapsed":1116278,"internal_node_id":"0.0-2.0-15.0"},{"group":"dihedral group of order 12","room_assignment":["blue","red","pink","purple","grey","yellow","olive","cyan","ivory","green","brown","orange"],"door_color_assignment":["white","black"],"door_generator_assignment":[0,1],"goal":2,"start":11,"action_noise":0.15,"location_history":"[11,10,4,10,9,8,2]","action_history":"[0,1,1,0,0,1]","door_history":"[0,1,1,0,0,1]","location_rts":"[2586,1743,513,668,515,851]","trial_type":"two-door-navigation","trial_index":18,"time_elapsed":1132766,"internal_node_id":"0.0-2.0-16.0"},{"group":"dihedral group of order 12","room_assignment":["blue","red","pink","purple","grey","yellow","olive","cyan","ivory","green","brown","orange"],"door_color_assignment":["white","black"],"door_generator_assignment":[0,1],"goal":7,"start":2,"action_noise":0.15,"location_history":"[2,8,2,8,7]","action_history":"[0,1,1,0]","door_history":"[0,1,1,0]","location_rts":"[2240,2221,510,984]","trial_type":"two-door-navigation","trial_index":19,"time_elapsed":1146299,"internal_node_id":"0.0-2.0-17.0"},{"group":"dihedral group of order 12","room_assignment":["blue","red","pink","purple","grey","yellow","olive","cyan","ivory","green","brown","orange"],"door_color_assignment":["white","black"],"door_generator_assignment":[0,1],"goal":5,"start":7,"action_noise":0.15,"location_history":"[7,1,7,1,7,6,0,6,11,10,9,8,2,8,2,3,9,8,2,3,9,3,9,8,7,6,0,6,11,5]","action_history":"[0,0,1,1,0,1,1,0,0,0,0,1,1,1,0,0,0,0,0,1,1,1,0,0,0,1,1,0,1]","door_history":"[0,0,1,1,0,1,1,0,0,0,0,1,1,1,0,0,0,0,0,1,1,1,0,0,0,1,1,0,1]","location_rts":"[3069,371,974,462,615,946,449,442,424,517,505,791,446,658,343,390,546,564,883,829,798,568,812,514,921,1588,469,422,1242]","trial_type":"two-door-navigation","trial_index":20,"time_elapsed":1200907,"internal_node_id":"0.0-2.0-18.0"},{"group":"dihedral group of order 12","room_assignment":["blue","red","pink","purple","grey","yellow","olive","cyan","ivory","green","brown","orange"],"door_color_assignment":["white","black"],"door_generator_assignment":[0,1],"goal":6,"start":5,"action_noise":0.15,"location_history":"[5,0,1,7,1,7,6]","action_history":"[0,0,0,1,1,0]","door_history":"[0,0,0,1,1,0]","location_rts":"[1490,550,524,544,486,1416]","trial_type":"two-door-navigation","trial_index":21,"time_elapsed":1215510,"internal_node_id":"0.0-2.0-19.0"},{"group":"dihedral group of order 12","room_assignment":["blue","red","pink","purple","grey","yellow","olive","cyan","ivory","green","brown","orange"],"door_color_assignment":["white","black"],"door_generator_assignment":[0,1],"goal":3,"start":6,"action_noise":0.15,"location_history":"[6,11,10,4,5,11,5,11,10,4,5,0,1,7,1,2,3]","action_history":"[0,0,1,1,0,1,1,0,1,1,0,0,1,1,0,0]","door_history":"[0,0,1,1,0,1,1,0,1,1,0,0,1,1,0,0]","location_rts":"[3429,1619,616,405,522,691,402,774,962,581,1346,811,996,522,443,749]","trial_type":"two-door-navigation","trial_index":22,"time_elapsed":1250126,"internal_node_id":"0.0-2.0-20.0"},{"group":"dihedral group of order 12","room_assignment":["blue","red","pink","purple","grey","yellow","olive","cyan","ivory","green","brown","orange"],"door_color_assignment":["white","black"],"door_generator_assignment":[0,1],"goal":1,"start":3,"action_noise":0.15,"location_history":"[3,9,8,7,1]","action_history":"[0,0,1,1]","door_history":"[0,0,1,1]","location_rts":"[529,401,365,433]","trial_type":"two-door-navigation","trial_index":23,"time_elapsed":1259417,"internal_node_id":"0.0-2.0-21.0"},{"group":"dihedral group of order 12","room_assignment":["blue","red","pink","purple","grey","yellow","olive","cyan","ivory","green","brown","orange"],"door_color_assignment":["white","black"],"door_generator_assignment":[0,1],"goal":9,"start":1,"action_noise":0.15,"location_history":"[1,7,6,11,5,11,10,4,10,4,5,0,6,0,1,2,3,9]","action_history":"[0,0,0,1,1,0,0,1,1,0,0,1,1,0,0,0,1]","door_history":"[0,0,0,1,1,0,0,1,1,0,0,1,1,0,0,0,1]","location_rts":"[894,509,664,392,450,484,626,1035,426,762,551,935,1359,751,633,576,868]","trial_type":"two-door-navigation","trial_index":24,"time_elapsed":1292119,"internal_node_id":"0.0-2.0-22.0"},{"group":"dihedral group of order 12","room_assignment":["blue","red","pink","purple","grey","yellow","olive","cyan","ivory","green","brown","orange"],"door_color_assignment":["white","black"],"door_generator_assignment":[0,1],"goal":3,"start":9,"action_noise":0.15,"location_history":"[9,8,2,8,7,6,11,5,0,1,7,1,2,3]","action_history":"[0,1,1,0,0,1,1,0,0,1,1,0,0]","door_history":"[0,1,1,0,0,1,1,0,0,1,1,0,0]","location_rts":"[1294,649,509,523,470,1191,345,406,545,1132,536,596,664]","trial_type":"two-door-navigation","trial_index":25,"time_elapsed":1317716,"internal_node_id":"0.0-2.0-23.0"},{"group":"dihedral group of order 12","room_assignment":["blue","red","pink","purple","grey","yellow","olive","cyan","ivory","green","brown","orange"],"door_color_assignment":["white","black"],"door_generator_assignment":[0,1],"goal":4,"start":3,"action_noise":0.15,"location_history":"[3,4]","action_history":"[0]","door_history":"[0]","location_rts":"[9462]","trial_type":"two-door-navigation","trial_index":26,"time_elapsed":1331701,"internal_node_id":"0.0-2.0-24.0"},{"group":"dihedral group of order 12","room_assignment":["blue","red","pink","purple","grey","yellow","olive","cyan","ivory","green","brown","orange"],"door_color_assignment":["white","black"],"door_generator_assignment":[0,1],"goal":2,"start":4,"action_noise":0.15,"location_history":"[4,5,11,10,4,10,9,3,4,5,11,10,9,3,4,5,0,1,7,1,2]","action_history":"[0,1,0,1,0,0,1,0,0,1,0,0,1,0,0,0,0,1,1,0]","door_history":"[0,1,0,1,0,0,1,0,0,1,0,0,1,0,0,0,0,1,1,0]","location_rts":"[1385,774,499,430,406,494,906,486,500,1026,448,555,771,1000,482,722,533,754,1065,659]","trial_type":"two-door-navigation","trial_index":27,"time_elapsed":1369434,"internal_node_id":"0.0-2.0-25.0"},{"group":"dihedral group of order 12","room_assignment":["blue","red","pink","purple","grey","yellow","olive","cyan","ivory","green","brown","orange"],"door_color_assignment":["white","black"],"door_generator_assignment":[0,1],"goal":1,"start":2,"action_noise":0.15,"location_history":"[2,3,4,10,9,8,7,6,11,10,4,5,11,5,0,1]","action_history":"[0,1,1,0,0,1,0,0,0,1,0,0,1,0,1]","door_history":"[0,1,1,0,0,1,0,0,0,1,0,0,1,0,1]","location_rts":"[1930,710,445,302,437,878,568,458,458,516,940,527,673,357,1521]","trial_type":"two-door-navigation","trial_index":28,"time_elapsed":1398887,"internal_node_id":"0.0-2.0-26.0"},{"group":"dihedral group of order 12","room_assignment":["blue","red","pink","purple","grey","yellow","olive","cyan","ivory","green","brown","orange"],"door_color_assignment":["white","black"],"door_generator_assignment":[0,1],"goal":8,"start":1,"action_noise":0.15,"location_history":"[1,2,3,9,8]","action_history":"[0,0,1,0]","door_history":"[0,0,1,0]","location_rts":"[713,568,629,398]","trial_type":"two-door-navigation","trial_index":29,"time_elapsed":1408763,"internal_node_id":"0.0-2.0-27.0"},{"group":"dihedral group of order 12","room_assignment":["blue","red","pink","purple","grey","yellow","olive","cyan","ivory","green","brown","orange"],"door_color_assignment":["white","black"],"door_generator_assignment":[0,1],"goal":10,"start":8,"action_noise":0.15,"location_history":"[8,7,6,0,6,11,10]","action_history":"[0,0,1,1,0,0]","door_history":"[0,0,1,1,0,0]","location_rts":"[441,436,535,398,1329,493]","trial_type":"two-door-navigation","trial_index":30,"time_elapsed":1422002,"internal_node_id":"0.0-2.0-28.0"},{"group":"dihedral group of order 12","room_assignment":["blue","red","pink","purple","grey","yellow","olive","cyan","ivory","green","brown","orange"],"door_color_assignment":["white","black"],"door_generator_assignment":[0,1],"goal":7,"start":10,"action_noise":0.15,"location_history":"[10,9,3,4,5,11,10,4,5,11,10,4,5,0,6,11,10,9,8,7]","action_history":"[0,1,0,0,1,0,1,0,1,0,1,0,0,1,0,0,0,0,1]","door_history":"[0,1,0,0,1,0,1,0,1,0,1,0,0,1,0,0,0,0,1]","location_rts":"[1485,1177,909,443,411,877,911,468,1112,835,1315,861,1284,1910,1176,511,1312,1263,1319]","trial_type":"two-door-navigation","trial_index":31,"time_elapsed":1464408,"internal_node_id":"0.0-2.0-29.0"},{"group":"dihedral group of order 12","room_assignment":["blue","red","pink","purple","grey","yellow","olive","cyan","ivory","green","brown","orange"],"door_color_assignment":["white","black"],"door_generator_assignment":[0,1],"goal":6,"start":7,"action_noise":0.15,"location_history":"[7,6]","action_history":"[0]","door_history":"[0]","location_rts":"[1537]","trial_type":"two-door-navigation","trial_index":32,"time_elapsed":1470468,"internal_node_id":"0.0-2.0-30.0"},{"group":"dihedral group of order 12","room_assignment":["blue","red","pink","purple","grey","yellow","olive","cyan","ivory","green","brown","orange"],"door_color_assignment":["white","black"],"door_generator_assignment":[0,1],"goal":0,"start":6,"action_noise":0.15,"location_history":"[6,11,10,4,5,0]","action_history":"[0,0,1,0,0]","door_history":"[0,0,1,0,0]","location_rts":"[792,419,935,806,547]","trial_type":"two-door-navigation","trial_index":33,"time_elapsed":1482584,"internal_node_id":"0.0-2.0-31.0"},{"group":"dihedral group of order 12","room_assignment":["blue","red","pink","purple","grey","yellow","olive","cyan","ivory","green","brown","orange"],"door_color_assignment":["white","black"],"door_generator_assignment":[0,1],"goal":11,"start":0,"action_noise":0.15,"location_history":"[0,1,2,3,9,3,4,5,11]","action_history":"[0,0,1,1,0,0,0,0]","door_history":"[0,0,1,1,0,0,0,0]","location_rts":"[1650,612,466,428,854,487,553,568]","trial_type":"two-door-navigation","trial_index":34,"time_elapsed":1499834,"internal_node_id":"0.0-2.0-32.0"},{"group":"dihedral group of order 12","room_assignment":["blue","red","pink","purple","grey","yellow","olive","cyan","ivory","green","brown","orange"],"door_color_assignment":["white","black"],"door_generator_assignment":[0,1],"goal":9,"start":11,"action_noise":0.15,"location_history":"[11,10,9]","action_history":"[0,0]","door_history":"[0,0]","location_rts":"[837,391]","trial_type":"two-door-navigation","trial_index":35,"time_elapsed":1506598,"internal_node_id":"0.0-2.0-33.0"},{"group":"dihedral group of order 12","room_assignment":["blue","red","pink","purple","grey","yellow","olive","cyan","ivory","green","brown","orange"],"door_color_assignment":["white","black"],"door_generator_assignment":[0,1],"goal":5,"start":9,"action_noise":0.15,"location_history":"[9,8,2,3,4,5]","action_history":"[0,0,0,0,0]","door_history":"[0,0,0,0,0]","location_rts":"[1555,419,400,407,640]","trial_type":"two-door-navigation","trial_index":36,"time_elapsed":1518594,"internal_node_id":"0.0-2.0-34.0"},{"view_history":"[{\"page_index\":0,\"viewing_time\":5525}]","rt":5527,"trial_type":"instructions","trial_index":37,"time_elapsed":1525123,"internal_node_id":"0.0-3.0"},{"view_history":"[{\"page_index\":0,\"viewing_time\":2902},{\"page_index\":1,\"viewing_time\":9813}]","rt":12716,"trial_type":"instructions","trial_index":38,"time_elapsed":1538839,"internal_node_id":"0.0-4.0"},{"group":"dihedral group of order 12","fractal_assignment":["../images/red_prp.png","../images/grn_red.png","../images/org_blu.png","../images/cyn_red.png","../images/pnk_blu.png","../images/grn_blu.png","../images/gry_blk.png","../images/ylw_slt.png","../images/wht_red.png","../images/grn_prp.png","../images/blu_wht.png","../images/ylw_pnk.png"],"mutagen_generator_assignment":[0,1],"goal":7,"start":11,"action_noise":0.15,"location_history":"[11,10,4,10,9,8,7]","action_history":"[0,1,1,0,0,1]","mutagen_history":"[0,1,1,0,0,1]","location_rts":"[3039,780,460,369,309,432]","trial_type":"fractal-mutation","trial_index":39,"time_elapsed":1555251,"internal_node_id":"0.0-5.0-0.0"},{"group":"dihedral group of order 12","fractal_assignment":["../images/red_prp.png","../images/grn_red.png","../images/org_blu.png","../images/cyn_red.png","../images/pnk_blu.png","../images/grn_blu.png","../images/gry_blk.png","../images/ylw_slt.png","../images/wht_red.png","../images/grn_prp.png","../images/blu_wht.png","../images/ylw_pnk.png"],"mutagen_generator_assignment":[0,1],"goal":8,"start":7,"action_noise":0.15,"location_history":"[7,6,0,6,11,10,4,5,0,1,2,3,4,5,0,6,0,6,11,10,4,5,11,10,4,5,11,10,9,8]","action_history":"[0,1,1,0,0,0,1,0,0,1,1,0,0,0,0,1,1,1,0,0,0,1,0,1,0,1,0,0,0]","mutagen_history":"[0,1,1,0,0,0,1,0,0,1,1,0,0,0,0,1,1,1,0,0,0,1,0,1,0,1,0,0,0]","location_rts":"[427,409,393,321,386,421,509,396,580,407,1126,420,471,1075,1014,469,586,499,481,441,546,460,678,1018,686,1176,422,599,505]","trial_type":"fractal-mutation","trial_index":40,"time_elapsed":1611635,"internal_node_id":"0.0-5.0-1.0"},{"group":"dihedral group of order 12","fractal_assignment":["../images/red_prp.png","../images/grn_red.png","../images/org_blu.png","../images/cyn_red.png","../images/pnk_blu.png","../images/grn_blu.png","../images/gry_blk.png","../images/ylw_slt.png","../images/wht_red.png","../images/grn_prp.png","../images/blu_wht.png","../images/ylw_pnk.png"],"mutagen_generator_assignment":[0,1],"goal":4,"start":8,"action_noise":0.15,"location_history":"[8,7,6,0,6,0,6,11,5,0,1,7,1,2,3,9,8,7,1,7,6,0,1,2,3,9,8,7,1,2,8,2,3,4]","action_history":"[0,1,1,1,1,0,0,0,0,0,1,1,0,0,1,0,0,1,0,0,1,0,1,0,1,0,1,0,0,1,1,0,0]","mutagen_history":"[0,1,1,1,1,0,0,0,0,0,1,1,0,0,1,0,0,1,0,0,1,0,1,0,1,0,1,0,0,1,1,0,0]","location_rts":"[1562,373,402,435,380,328,1009,683,581,758,571,639,368,725,590,696,712,531,491,937,638,955,1292,800,306,456,982,804,435,572,737,644,569]","trial_type":"fractal-mutation","trial_index":41,"time_elapsed":1677765,"internal_node_id":"0.0-5.0-2.0"},{"group":"dihedral group of order 12","fractal_assignment":["../images/red_prp.png","../images/grn_red.png","../images/org_blu.png","../images/cyn_red.png","../images/pnk_blu.png","../images/grn_blu.png","../images/gry_blk.png","../images/ylw_slt.png","../images/wht_red.png","../images/grn_prp.png","../images/blu_wht.png","../images/ylw_pnk.png"],"mutagen_generator_assignment":[0,1],"goal":5,"start":4,"action_noise":0.15,"location_history":"[4,5]","action_history":"[1]","mutagen_history":"[1]","location_rts":"[1878]","trial_type":"fractal-mutation","trial_index":42,"time_elapsed":1684490,"internal_node_id":"0.0-5.0-3.0"},{"group":"dihedral group of order 12","fractal_assignment":["../images/red_prp.png","../images/grn_red.png","../images/org_blu.png","../images/cyn_red.png","../images/pnk_blu.png","../images/grn_blu.png","../images/gry_blk.png","../images/ylw_slt.png","../images/wht_red.png","../images/grn_prp.png","../images/blu_wht.png","../images/ylw_pnk.png"],"mutagen_generator_assignment":[0,1],"goal":10,"start":5,"action_noise":0.15,"location_history":"[5,0,1,2,3,4,5,0,6,11,10]","action_history":"[0,1,0,0,0,0,0,1,0,0]","mutagen_history":"[0,1,0,0,0,0,0,1,0,0]","location_rts":"[1293,461,319,409,567,2143,727,352,375,421]","trial_type":"fractal-mutation","trial_index":43,"time_elapsed":1706972,"internal_node_id":"0.0-5.0-4.0"},{"group":"dihedral group of order 12","fractal_assignment":["../images/red_prp.png","../images/grn_red.png","../images/org_blu.png","../images/cyn_red.png","../images/pnk_blu.png","../images/grn_blu.png","../images/gry_blk.png","../images/ylw_slt.png","../images/wht_red.png","../images/grn_prp.png","../images/blu_wht.png","../images/ylw_pnk.png"],"mutagen_generator_assignment":[0,1],"goal":1,"start":10,"action_noise":0.15,"location_history":"[10,4,5,11,5,0,6,11,10,4,10,4,5,0,1]","action_history":"[1,0,1,0,0,1,0,0,1,1,1,0,0,1]","mutagen_history":"[1,0,1,0,0,1,0,0,1,1,1,0,0,1]","location_rts":"[1704,607,806,669,329,454,1285,3888,1617,1719,3205,1493,1172,441]","trial_type":"fractal-mutation","trial_index":44,"time_elapsed":1747237,"internal_node_id":"0.0-5.0-5.0"},{"group":"dihedral group of order 12","fractal_assignment":["../images/red_prp.png","../images/grn_red.png","../images/org_blu.png","../images/cyn_red.png","../images/pnk_blu.png","../images/grn_blu.png","../images/gry_blk.png","../images/ylw_slt.png","../images/wht_red.png","../images/grn_prp.png","../images/blu_wht.png","../images/ylw_pnk.png"],"mutagen_generator_assignment":[0,1],"goal":6,"start":1,"action_noise":0.15,"location_history":"[1,2,3,4,10,9,3,4,10,4,5,0,1,2,3,4,10,9,3,4,5,11,10,9,3,9,8,7,6]","action_history":"[0,0,1,1,0,1,1,1,1,1,0,0,1,0,0,0,0,1,0,0,1,0,0,1,1,0,0,0]","mutagen_history":"[0,0,1,1,0,1,1,1,1,1,0,0,1,0,0,0,0,1,0,0,1,0,0,1,1,0,0,0]","location_rts":"[1506,390,336,517,780,365,341,439,543,395,521,485,1114,475,571,617,438,753,562,514,697,680,447,438,451,615,393,389]","trial_type":"fractal-mutation","trial_index":45,"time_elapsed":1801159,"internal_node_id":"0.0-5.0-6.0"},{"group":"dihedral group of order 12","fractal_assignment":["../images/red_prp.png","../images/grn_red.png","../images/org_blu.png","../images/cyn_red.png","../images/pnk_blu.png","../images/grn_blu.png","../images/gry_blk.png","../images/ylw_slt.png","../images/wht_red.png","../images/grn_prp.png","../images/blu_wht.png","../images/ylw_pnk.png"],"mutagen_generator_assignment":[0,1],"goal":9,"start":6,"action_noise":0.15,"location_history":"[6,0,1,2,3,9]","action_history":"[1,0,0,1,1]","mutagen_history":"[1,0,0,1,1]","location_rts":"[1042,381,412,394,394]","trial_type":"fractal-mutation","trial_index":46,"time_elapsed":1813643,"internal_node_id":"0.0-5.0-7.0"},{"group":"dihedral group of order 12","fractal_assignment":["../images/red_prp.png","../images/grn_red.png","../images/org_blu.png","../images/cyn_red.png","../images/pnk_blu.png","../images/grn_blu.png","../images/gry_blk.png","../images/ylw_slt.png","../images/wht_red.png","../images/grn_prp.png","../images/blu_wht.png","../images/ylw_pnk.png"],"mutagen_generator_assignment":[0,1],"goal":2,"start":9,"action_noise":0.15,"location_history":"[9,3,4,10,9,8,2]","action_history":"[1,0,0,0,1,1]","mutagen_history":"[1,0,0,0,1,1]","location_rts":"[23523,2567,16368,356,294,401]","trial_type":"fractal-mutation","trial_index":47,"time_elapsed":1868371,"internal_node_id":"0.0-5.0-8.0"},{"group":"dihedral group of order 12","fractal_assignment":["../images/red_prp.png","../images/grn_red.png","../images/org_blu.png","../images/cyn_red.png","../images/pnk_blu.png","../images/grn_blu.png","../images/gry_blk.png","../images/ylw_slt.png","../images/wht_red.png","../images/grn_prp.png","../images/blu_wht.png","../images/ylw_pnk.png"],"mutagen_generator_assignment":[0,1],"goal":0,"start":2,"action_noise":0.15,"location_history":"[2,3,4,10,4,10,4,5,0]","action_history":"[0,1,1,0,1,0,0,0]","mutagen_history":"[0,1,1,0,1,0,0,0]","location_rts":"[1508,305,411,463,625,408,338,484]","trial_type":"fractal-mutation","trial_index":48,"time_elapsed":1886449,"internal_node_id":"0.0-5.0-9.0"},{"group":"dihedral group of order 12","fractal_assignment":["../images/red_prp.png","../images/grn_red.png","../images/org_blu.png","../images/cyn_red.png","../images/pnk_blu.png","../images/grn_blu.png","../images/gry_blk.png","../images/ylw_slt.png","../images/wht_red.png","../images/grn_prp.png","../images/blu_wht.png","../images/ylw_pnk.png"],"mutagen_generator_assignment":[0,1],"goal":3,"start":0,"action_noise":0.15,"location_history":"[0,6,0,1,7,1,2,3]","action_history":"[0,1,0,1,1,0,1]","mutagen_history":"[0,1,0,1,1,0,1]","location_rts":"[905,311,686,788,392,519,691]","trial_type":"fractal-mutation","trial_index":49,"time_elapsed":1903097,"internal_node_id":"0.0-5.0-10.0"},{"group":"dihedral group of order 12","fractal_assignment":["../images/red_prp.png","../images/grn_red.png","../images/org_blu.png","../images/cyn_red.png","../images/pnk_blu.png","../images/grn_blu.png","../images/gry_blk.png","../images/ylw_slt.png","../images/wht_red.png","../images/grn_prp.png","../images/blu_wht.png","../images/ylw_pnk.png"],"mutagen_generator_assignment":[0,1],"goal":10,"start":3,"action_noise":0.15,"location_history":"[3,9,8,2,3,9,8,2,3,9,8,2,8,2,3,9,3,4,10]","action_history":"[0,0,0,0,1,0,1,0,0,0,0,1,0,0,1,1,0,1]","mutagen_history":"[0,0,0,0,1,0,1,0,0,0,0,1,0,0,1,1,0,1]","location_rts":"[1730,398,390,384,407,509,497,344,387,449,571,795,480,706,898,733,469,625]","trial_type":"fractal-mutation","trial_index":50,"time_elapsed":1939032,"internal_node_id":"0.0-5.0-11.0"},{"group":"dihedral group of order 12","fractal_assignment":["../images/red_prp.png","../images/grn_red.png","../images/org_blu.png","../images/cyn_red.png","../images/pnk_blu.png","../images/grn_blu.png","../images/gry_blk.png","../images/ylw_slt.png","../images/wht_red.png","../images/grn_prp.png","../images/blu_wht.png","../images/ylw_pnk.png"],"mutagen_generator_assignment":[0,1],"goal":8,"start":10,"action_noise":0.15,"location_history":"[10,4,5,11,10,4,5,11,10,4,5,11,5,11,10,9,3,9,8]","action_history":"[1,0,0,0,1,1,0,0,0,0,1,1,0,0,0,0,0,0]","mutagen_history":"[1,0,0,0,1,1,0,0,0,0,1,1,0,0,0,0,0,0]","location_rts":"[1619,272,693,874,330,388,359,321,288,368,453,469,300,406,351,417,423,492]","trial_type":"fractal-mutation","trial_index":51,"time_elapsed":1973570,"internal_node_id":"0.0-5.0-12.0"},{"group":"dihedral group of order 12","fractal_assignment":["../images/red_prp.png","../images/grn_red.png","../images/org_blu.png","../images/cyn_red.png","../images/pnk_blu.png","../images/grn_blu.png","../images/gry_blk.png","../images/ylw_slt.png","../images/wht_red.png","../images/grn_prp.png","../images/blu_wht.png","../images/ylw_pnk.png"],"mutagen_generator_assignment":[0,1],"goal":4,"start":8,"action_noise":0.15,"location_history":"[8,7,1,7,1,2,3,9,8,2,3,4]","action_history":"[0,1,1,1,0,0,1,0,1,0,0]","mutagen_history":"[0,1,1,1,0,0,1,0,1,0,0]","location_rts":"[846,416,441,745,300,459,602,676,404,508,955]","trial_type":"fractal-mutation","trial_index":52,"time_elapsed":1996975,"internal_node_id":"0.0-5.0-13.0"},{"group":"dihedral group of order 12","fractal_assignment":["../images/red_prp.png","../images/grn_red.png","../images/org_blu.png","../images/cyn_red.png","../images/pnk_blu.png","../images/grn_blu.png","../images/gry_blk.png","../images/ylw_slt.png","../images/wht_red.png","../images/grn_prp.png","../images/blu_wht.png","../images/ylw_pnk.png"],"mutagen_generator_assignment":[0,1],"goal":0,"start":4,"action_noise":0.15,"location_history":"[4,5,11,5,0]","action_history":"[0,1,1,0]","mutagen_history":"[0,1,1,0]","location_rts":"[1566,462,427,470]","trial_type":"fractal-mutation","trial_index":53,"time_elapsed":2008308,"internal_node_id":"0.0-5.0-14.0"},{"group":"dihedral group of order 12","fractal_assignment":["../images/red_prp.png","../images/grn_red.png","../images/org_blu.png","../images/cyn_red.png","../images/pnk_blu.png","../images/grn_blu.png","../images/gry_blk.png","../images/ylw_slt.png","../images/wht_red.png","../images/grn_prp.png","../images/blu_wht.png","../images/ylw_pnk.png"],"mutagen_generator_assignment":[0,1],"goal":11,"start":0,"action_noise":0.15,"location_history":"[0,1,2,3,9,3,4,5,0,6,11]","action_history":"[0,0,0,1,1,0,0,0,1,0]","mutagen_history":"[0,0,0,1,1,0,0,0,1,0]","location_rts":"[994,539,426,348,543,899,840,425,2410,4873]","trial_type":"fractal-mutation","trial_index":54,"time_elapsed":2035930,"internal_node_id":"0.0-5.0-15.0"},{"group":"dihedral group of order 12","fractal_assignment":["../images/red_prp.png","../images/grn_red.png","../images/org_blu.png","../images/cyn_red.png","../images/pnk_blu.png","../images/grn_blu.png","../images/gry_blk.png","../images/ylw_slt.png","../images/wht_red.png","../images/grn_prp.png","../images/blu_wht.png","../images/ylw_pnk.png"],"mutagen_generator_assignment":[0,1],"goal":2,"start":11,"action_noise":0.15,"location_history":"[11,5,0,6,11,10,9,8,7,1,2]","action_history":"[1,0,0,0,0,0,0,1,0,0]","mutagen_history":"[1,0,0,0,0,0,0,1,0,0]","location_rts":"[2124,531,645,276,283,594,1274,2136,2291,315]","trial_type":"fractal-mutation","trial_index":55,"time_elapsed":2062117,"internal_node_id":"0.0-5.0-16.0"},{"group":"dihedral group of order 12","fractal_assignment":["../images/red_prp.png","../images/grn_red.png","../images/org_blu.png","../images/cyn_red.png","../images/pnk_blu.png","../images/grn_blu.png","../images/gry_blk.png","../images/ylw_slt.png","../images/wht_red.png","../images/grn_prp.png","../images/blu_wht.png","../images/ylw_pnk.png"],"mutagen_generator_assignment":[0,1],"goal":7,"start":2,"action_noise":0.15,"location_history":"[2,3,4,5,0,1,2,8,7]","action_history":"[0,1,1,0,0,1,0,0]","mutagen_history":"[0,1,1,0,0,1,0,0]","location_rts":"[1083,384,307,305,362,330,447,461]","trial_type":"fractal-mutation","trial_index":56,"time_elapsed":2079205,"internal_node_id":"0.0-5.0-17.0"},{"group":"dihedral group of order 12","fractal_assignment":["../images/red_prp.png","../images/grn_red.png","../images/org_blu.png","../images/cyn_red.png","../images/pnk_blu.png","../images/grn_blu.png","../images/gry_blk.png","../images/ylw_slt.png","../images/wht_red.png","../images/grn_prp.png","../images/blu_wht.png","../images/ylw_pnk.png"],"mutagen_generator_assignment":[0,1],"goal":5,"start":7,"action_noise":0.15,"location_history":"[7,1,7,1,2,3,4,5]","action_history":"[1,0,1,0,0,0,1]","mutagen_history":"[1,0,1,0,0,0,1]","location_rts":"[972,515,429,877,373,407,988]","trial_type":"fractal-mutation","trial_index":57,"time_elapsed":2096029,"internal_node_id":"0.0-5.0-18.0"},{"group":"dihedral group of order 12","fractal_assignment":["../images/red_prp.png","../images/grn_red.png","../images/org_blu.png","../images/cyn_red.png","../images/pnk_blu.png","../images/grn_blu.png","../images/gry_blk.png","../images/ylw_slt.png","../images/wht_red.png","../images/grn_prp.png","../images/blu_wht.png","../images/ylw_pnk.png"],"mutagen_generator_assignment":[0,1],"goal":6,"start":5,"action_noise":0.15,"location_history":"[5,0,6]","action_history":"[0,1]","mutagen_history":"[0,1]","location_rts":"[2752,446]","trial_type":"fractal-mutation","trial_index":58,"time_elapsed":2105094,"internal_node_id":"0.0-5.0-19.0"},{"group":"dihedral group of order 12","fractal_assignment":["../images/red_prp.png","../images/grn_red.png","../images/org_blu.png","../images/cyn_red.png","../images/pnk_blu.png","../images/grn_blu.png","../images/gry_blk.png","../images/ylw_slt.png","../images/wht_red.png","../images/grn_prp.png","../images/blu_wht.png","../images/ylw_pnk.png"],"mutagen_generator_assignment":[0,1],"goal":3,"start":6,"action_noise":0.15,"location_history":"[6,11,5,11,5,0,6,11,5,11,10,9,3]","action_history":"[0,1,1,0,0,1,0,1,1,0,0,1]","mutagen_history":"[0,1,1,0,0,1,0,1,1,0,0,1]","location_rts":"[997,318,630,314,598,587,462,1992,647,871,460,481]","trial_type":"fractal-mutation","trial_index":59,"time_elapsed":2131975,"internal_node_id":"0.0-5.0-20.0"},{"group":"dihedral group of order 12","fractal_assignment":["../images/red_prp.png","../images/grn_red.png","../images/org_blu.png","../images/cyn_red.png","../images/pnk_blu.png","../images/grn_blu.png","../images/gry_blk.png","../images/ylw_slt.png","../images/wht_red.png","../images/grn_prp.png","../images/blu_wht.png","../images/ylw_pnk.png"],"mutagen_generator_assignment":[0,1],"goal":1,"start":3,"action_noise":0.15,"location_history":"[3,9,8,7,6,11,10,4,5,0,6,11,10,9,3,4,5,11,10,4,5,11,10,9,3,4,5,11,5,0,1]","action_history":"[1,0,0,0,0,0,1,0,0,1,0,0,1,1,0,0,1,0,1,0,1,0,0,1,0,0,1,0,0,0]","mutagen_history":"[1,0,0,0,0,0,1,0,0,1,0,0,1,1,0,0,1,0,1,0,1,0,0,1,0,0,1,0,0,0]","location_rts":"[915,430,425,369,361,236,371,551,423,339,489,312,292,487,1222,605,463,603,439,418,689,380,598,540,572,1070,580,709,425,381]","trial_type":"fractal-mutation","trial_index":60,"time_elapsed":2188168,"internal_node_id":"0.0-5.0-21.0"},{"group":"dihedral group of order 12","fractal_assignment":["../images/red_prp.png","../images/grn_red.png","../images/org_blu.png","../images/cyn_red.png","../images/pnk_blu.png","../images/grn_blu.png","../images/gry_blk.png","../images/ylw_slt.png","../images/wht_red.png","../images/grn_prp.png","../images/blu_wht.png","../images/ylw_pnk.png"],"mutagen_generator_assignment":[0,1],"goal":9,"start":1,"action_noise":0.15,"location_history":"[1,7,6,11,10,4,5,0,1,2,8,7,6,0,6,11,10,4,5,11,5,0,1,7,1,7,6,0,6,11,10,9]","action_history":"[1,0,0,0,1,0,0,0,0,1,0,0,1,0,0,0,1,0,0,1,0,0,1,0,1,0,0,1,0,0,0]","mutagen_history":"[1,0,0,0,1,0,0,0,0,1,0,0,1,0,0,0,1,0,0,1,0,0,1,0,1,0,0,1,0,0,0]","location_rts":"[1043,253,330,338,391,296,587,410,399,421,506,399,376,437,492,439,743,2599,571,480,3182,17870,498,415,728,454,409,504,392,394,387]","trial_type":"fractal-mutation","trial_index":61,"time_elapsed":2266842,"internal_node_id":"0.0-5.0-22.0"},{"group":"dihedral group of order 12","fractal_assignment":["../images/red_prp.png","../images/grn_red.png","../images/org_blu.png","../images/cyn_red.png","../images/pnk_blu.png","../images/grn_blu.png","../images/gry_blk.png","../images/ylw_slt.png","../images/wht_red.png","../images/grn_prp.png","../images/blu_wht.png","../images/ylw_pnk.png"],"mutagen_generator_assignment":[0,1],"goal":3,"start":9,"action_noise":0.15,"location_history":"[9,3]","action_history":"[1]","mutagen_history":"[1]","location_rts":"[1692]","trial_type":"fractal-mutation","trial_index":62,"time_elapsed":2273362,"internal_node_id":"0.0-5.0-23.0"},{"group":"dihedral group of order 12","fractal_assignment":["../images/red_prp.png","../images/grn_red.png","../images/org_blu.png","../images/cyn_red.png","../images/pnk_blu.png","../images/grn_blu.png","../images/gry_blk.png","../images/ylw_slt.png","../images/wht_red.png","../images/grn_prp.png","../images/blu_wht.png","../images/ylw_pnk.png"],"mutagen_generator_assignment":[0,1],"goal":4,"start":3,"action_noise":0.15,"location_history":"[3,4]","action_history":"[1]","mutagen_history":"[1]","location_rts":"[1716]","trial_type":"fractal-mutation","trial_index":63,"time_elapsed":2279916,"internal_node_id":"0.0-5.0-24.0"},{"group":"dihedral group of order 12","fractal_assignment":["../images/red_prp.png","../images/grn_red.png","../images/org_blu.png","../images/cyn_red.png","../images/pnk_blu.png","../images/grn_blu.png","../images/gry_blk.png","../images/ylw_slt.png","../images/wht_red.png","../images/grn_prp.png","../images/blu_wht.png","../images/ylw_pnk.png"],"mutagen_generator_assignment":[0,1],"goal":2,"start":4,"action_noise":0.15,"location_history":"[4,10,9,8,7,6,11,5,0,1,2]","action_history":"[1,0,0,0,0,0,1,0,0,0]","mutagen_history":"[1,0,0,0,0,0,1,0,0,0]","location_rts":"[1513,342,366,404,388,415,378,407,448,363]","trial_type":"fractal-mutation","trial_index":64,"time_elapsed":2300591,"internal_node_id":"0.0-5.0-25.0"},{"group":"dihedral group of order 12","fractal_assignment":["../images/red_prp.png","../images/grn_red.png","../images/org_blu.png","../images/cyn_red.png","../images/pnk_blu.png","../images/grn_blu.png","../images/gry_blk.png","../images/ylw_slt.png","../images/wht_red.png","../images/grn_prp.png","../images/blu_wht.png","../images/ylw_pnk.png"],"mutagen_generator_assignment":[0,1],"goal":1,"start":2,"action_noise":0.15,"location_history":"[2,8,7,6,11,10,4,5,11,10,4,5,11,10,9,8,7,6,11,10,4,10,4,5,0,6,0,6,11,5,11,10,9,3,4,5,0,6,11,10,4,10,9,3,4,5,0,6,11,10,9,8,2,3,9,8,7,6,11,10,4,5,0,1]","action_history":"[1,0,0,0,1,1,0,0,0,0,0,1,0,0,0,0,0,0,0,1,1,1,0,0,1,0,1,0,0,1,0,0,1,0,0,0,1,0,0,1,0,0,1,0,0,0,1,0,0,0,0,1,0,1,0,0,0,0,0,1,0,0,0]","mutagen_history":"[1,0,0,0,1,1,0,0,0,0,0,1,0,0,0,0,0,0,0,1,1,1,0,0,1,0,1,0,0,1,0,0,1,0,0,0,1,0,0,1,0,0,1,0,0,0,1,0,0,0,0,1,0,1,0,0,0,0,0,1,0,0,0]","location_rts":"[1114,338,346,348,334,390,429,483,388,480,619,705,547,456,905,491,422,442,365,484,1304,983,306,486,458,406,369,529,392,830,398,471,805,781,497,942,419,389,1243,558,340,436,1316,605,965,603,496,373,378,870,1513,1024,1287,765,903,408,392,405,505,308,295,491,410]","trial_type":"fractal-mutation","trial_index":65,"time_elapsed":2419112,"internal_node_id":"0.0-5.0-26.0"},{"group":"dihedral group of order 12","fractal_assignment":["../images/red_prp.png","../images/grn_red.png","../images/org_blu.png","../images/cyn_red.png","../images/pnk_blu.png","../images/grn_blu.png","../images/gry_blk.png","../images/ylw_slt.png","../images/wht_red.png","../images/grn_prp.png","../images/blu_wht.png","../images/ylw_pnk.png"],"mutagen_generator_assignment":[0,1],"goal":8,"start":1,"action_noise":0.15,"location_history":"[1,2,3,4,10,9,3,4,5,11,10,9,8]","action_history":"[0,0,0,1,0,1,0,0,0,0,0,0]","mutagen_history":"[0,0,0,1,0,1,0,0,0,0,0,0]","location_rts":"[2285,426,270,362,341,733,383,468,389,417,346,436]","trial_type":"fractal-mutation","trial_index":66,"time_elapsed":2443622,"internal_node_id":"0.0-5.0-27.0"},{"group":"dihedral group of order 12","fractal_assignment":["../images/red_prp.png","../images/grn_red.png","../images/org_blu.png","../images/cyn_red.png","../images/pnk_blu.png","../images/grn_blu.png","../images/gry_blk.png","../images/ylw_slt.png","../images/wht_red.png","../images/grn_prp.png","../images/blu_wht.png","../images/ylw_pnk.png"],"mutagen_generator_assignment":[0,1],"goal":10,"start":8,"action_noise":0.15,"location_history":"[8,2,8,7,1,7,6,0,1,2,8,2,8,7,1,2,3,4,5,11,10]","action_history":"[1,1,1,1,1,0,1,0,1,1,1,1,0,1,0,1,0,0,1,0]","mutagen_history":"[1,1,1,1,1,0,1,0,1,1,1,1,0,1,0,1,0,0,1,0]","location_rts":"[2019,391,711,424,348,368,404,358,346,343,372,495,285,717,448,412,520,614,464,761]","trial_type":"fractal-mutation","trial_index":67,"time_elapsed":2483541,"internal_node_id":"0.0-5.0-28.0"},{"group":"dihedral group of order 12","fractal_assignment":["../images/red_prp.png","../images/grn_red.png","../images/org_blu.png","../images/cyn_red.png","../images/pnk_blu.png","../images/grn_blu.png","../images/gry_blk.png","../images/ylw_slt.png","../images/wht_red.png","../images/grn_prp.png","../images/blu_wht.png","../images/ylw_pnk.png"],"mutagen_generator_assignment":[0,1],"goal":7,"start":10,"action_noise":0.15,"location_history":"[10,9,8,7]","action_history":"[1,0,0]","mutagen_history":"[1,0,0]","location_rts":"[1564,437,341]","trial_type":"fractal-mutation","trial_index":68,"time_elapsed":2493161,"internal_node_id":"0.0-5.0-29.0"},{"group":"dihedral group of order 12","fractal_assignment":["../images/red_prp.png","../images/grn_red.png","../images/org_blu.png","../images/cyn_red.png","../images/pnk_blu.png","../images/grn_blu.png","../images/gry_blk.png","../images/ylw_slt.png","../images/wht_red.png","../images/grn_prp.png","../images/blu_wht.png","../images/ylw_pnk.png"],"mutagen_generator_assignment":[0,1],"goal":6,"start":7,"action_noise":0.15,"location_history":"[7,1,2,8,2,8,2,3,4,5,0,6]","action_history":"[1,0,1,0,0,0,1,1,0,0,1]","mutagen_history":"[1,0,1,0,0,0,1,1,0,0,1]","location_rts":"[1695,399,385,390,328,321,421,477,384,459,405]","trial_type":"fractal-mutation","trial_index":69,"time_elapsed":2516243,"internal_node_id":"0.0-5.0-30.0"},{"group":"dihedral group of order 12","fractal_assignment":["../images/red_prp.png","../images/grn_red.png","../images/org_blu.png","../images/cyn_red.png","../images/pnk_blu.png","../images/grn_blu.png","../images/gry_blk.png","../images/ylw_slt.png","../images/wht_red.png","../images/grn_prp.png","../images/blu_wht.png","../images/ylw_pnk.png"],"mutagen_generator_assignment":[0,1],"goal":0,"start":6,"action_noise":0.15,"location_history":"[6,0]","action_history":"[1]","mutagen_history":"[1]","location_rts":"[945]","trial_type":"fractal-mutation","trial_index":70,"time_elapsed":2521992,"internal_node_id":"0.0-5.0-31.0"},{"group":"dihedral group of order 12","fractal_assignment":["../images/red_prp.png","../images/grn_red.png","../images/org_blu.png","../images/cyn_red.png","../images/pnk_blu.png","../images/grn_blu.png","../images/gry_blk.png","../images/ylw_slt.png","../images/wht_red.png","../images/grn_prp.png","../images/blu_wht.png","../images/ylw_pnk.png"],"mutagen_generator_assignment":[0,1],"goal":11,"start":0,"action_noise":0.15,"location_history":"[0,6,0,6,11]","action_history":"[1,0,1,0]","mutagen_history":"[1,0,1,0]","location_rts":"[1378,308,371,323]","trial_type":"fractal-mutation","trial_index":71,"time_elapsed":2532966,"internal_node_id":"0.0-5.0-32.0"},{"group":"dihedral group of order 12","fractal_assignment":["../images/red_prp.png","../images/grn_red.png","../images/org_blu.png","../images/cyn_red.png","../images/pnk_blu.png","../images/grn_blu.png","../images/gry_blk.png","../images/ylw_slt.png","../images/wht_red.png","../images/grn_prp.png","../images/blu_wht.png","../images/ylw_pnk.png"],"mutagen_generator_assignment":[0,1],"goal":9,"start":11,"action_noise":0.15,"location_history":"[11,5,0,6,11,10,4,10,9]","action_history":"[1,0,0,0,0,0,1,0]","mutagen_history":"[1,0,0,0,0,0,1,0]","location_rts":"[943,423,350,401,502,558,554,569]","trial_type":"fractal-mutation","trial_index":72,"time_elapsed":2550588,"internal_node_id":"0.0-5.0-33.0"},{"group":"dihedral group of order 12","fractal_assignment":["../images/red_prp.png","../images/grn_red.png","../images/org_blu.png","../images/cyn_red.png","../images/pnk_blu.png","../images/grn_blu.png","../images/gry_blk.png","../images/ylw_slt.png","../images/wht_red.png","../images/grn_prp.png","../images/blu_wht.png","../images/ylw_pnk.png"],"mutagen_generator_assignment":[0,1],"goal":5,"start":9,"action_noise":0.15,"location_history":"[9,3,9,3,4,5]","action_history":"[1,1,0,1,1]","mutagen_history":"[1,1,0,1,1]","location_rts":"[2386,2621,608,369,608]","trial_type":"fractal-mutation","trial_index":73,"time_elapsed":2567194,"internal_node_id":"0.0-5.0-34.0"},{"view_history":"[{\"page_index\":0,\"viewing_time\":10295}]","rt":10296,"trial_type":"instructions","trial_index":74,"time_elapsed":2578491,"internal_node_id":"0.0-6.0"},{"rt":26506,"responses":"{\"Q0\":\"Thank you for the opportunity to participate in this study. Looking forward to tomorrow's study.\"}","trial_type":"survey-text","trial_index":75,"time_elapsed":2606009,"internal_node_id":"0.0-7.0"}]