[{"view_history":"[{\"page_index\":0,\"viewing_time\":2877},{\"page_index\":1,\"viewing_time\":1421}]","rt":4298,"trial_type":"instructions","trial_index":0,"time_elapsed":4299,"internal_node_id":"0.0-0.0"},{"view_history":"[{\"page_index\":0,\"viewing_time\":868},{\"page_index\":1,\"viewing_time\":2344}]","rt":3212,"trial_type":"instructions","trial_index":1,"time_elapsed":8512,"internal_node_id":"0.0-1.0"},{"group":"dihedral group of order 12","room_assignment":["brown","grey","orange","olive","cyan","green","ivory","purple","yellow","red","blue","pink"],"door_color_assignment":["white","black"],"door_generator_assignment":[0,1],"goal":7,"start":11,"action_noise":0.15,"location_history":"[11,5,0,6,11,10,9,8,7]","action_history":"[1,0,0,0,0,0,0,0]","door_history":"[1,0,0,0,0,0,0,0]","location_rts":"[35111,696,72,74,4092,74,62,1042]","trial_type":"two-door-navigation","trial_index":2,"time_elapsed":61693,"internal_node_id":"0.0-2.0-0.0"},{"group":"dihedral group of order 12","room_assignment":["brown","grey","orange","olive","cyan","green","ivory","purple","yellow","red","blue","pink"],"door_color_assignment":["white","black"],"door_generator_assignment":[0,1],"goal":8,"start":7,"action_noise":0.15,"location_history":"[7,6,11,10,9,8]","action_history":"[0,0,0,0,0]","door_history":"[0,0,0,0,0]","location_rts":"[278,15,19,63,294]","trial_type":"two-door-navigation","trial_index":3,"time_elapsed":71205,"internal_node_id":"0.0-2.0-1.0"},{"group":"dihedral group of order 12","room_assignment":["brown","grey","orange","olive","cyan","green","ivory","purple","yellow","red","blue","pink"],"door_color_assignment":["white","black"],"door_generator_assignment":[0,1],"goal":4,"start":8,"action_noise":0.15,"location_history":"[8,2,8,2,3,9,3,9,3,4]","action_history":"[1,1,1,1,1,1,1,1,1]","door_history":"[1,1,1,1,1,1,1,1,1]","location_rts":"[501,17,316,237,127,223,285,291,10]","trial_type":"two-door-navigation","trial_index":4,"time_elapsed":86365,"internal_node_id":"0.0-2.0-2.0"},{"group":"dihedral group of order 12","room_assignment":["brown","grey","orange","olive","cyan","green","ivory","purple","yellow","red","blue","pink"],"door_color_assignment":["white","black"],"door_generator_assignment":[0,1],"goal":5,"start":4,"action_noise":0.15,"location_history":"[4,10,4,10,9,3,9,3,4,10,4,5]","action_history":"[1,1,1,1,1,1,1,1,1,1,1]","door_history":"[1,1,1,1,1,1,1,1,1,1,1]","location_rts":"[153,1593,254,59,107,7513,33,440,6439,171,5364]","trial_type":"two-door-navigation","trial_index":5,"time_elapsed":123549,"internal_node_id":"0.0-2.0-3.0"},{"group":"dihedral group of order 12","room_assignment":["brown","grey","orange","olive","cyan","green","ivory","purple","yellow","red","blue","pink"],"door_color_assignment":["white","black"],"door_generator_assignment":[0,1],"goal":10,"start":5,"action_noise":0.15,"location_history":"[5,11,10]","action_history":"[1,1]","door_history":"[1,1]","location_rts":"[297,8958]","trial_type":"two-door-navigation","trial_index":6,"time_elapsed":138453,"internal_node_id":"0.0-2.0-4.0"},{"group":"dihedral group of order 12","room_assignment":["brown","grey","orange","olive","cyan","green","ivory","purple","yellow","red","blue","pink"],"door_color_assignment":["white","black"],"door_generator_assignment":[0,1],"goal":1,"start":10,"action_noise":0.15,"location_history":"[10,4,10,4,10,4,10,4,10,4,10,4,10,4,10,4,10,4,10,9,3,9,3,9,3,4,10,4,5,11,10,4,5,0,1]","action_history":"[1,1,1,1,1,1,1,1,1,1,1,1,1,1,1,1,1,1,1,1,1,1,1,1,1,1,1,1,1,1,1,1,0,0]","door_history":"[1,1,1,1,1,1,1,1,1,1,1,1,1,1,1,1,1,1,1,1,1,1,1,1,1,1,1,1,1,1,1,1,0,0]","location_rts":"[1,2478463,119,122,139,551,202,34,51,30,117,195,131,70,824,6816,331,196,253,260,272,322,651,8494,585,142,58,258,251,312,52,144,12638,121]","trial_type":"two-door-navigation","trial_index":7,"time_elapsed":2691370,"internal_node_id":"0.0-2.0-5.0"},{"group":"dihedral group of order 12","room_assignment":["brown","grey","orange","olive","cyan","green","ivory","purple","yellow","red","blue","pink"],"door_color_assignment":["white","black"],"door_generator_assignment":[0,1],"goal":6,"start":1,"action_noise":0.15,"location_history":"[1,2,8,7,6]","action_history":"[0,0,0,0]","door_history":"[0,0,0,0]","location_rts":"[96,467,165,119]","trial_type":"two-door-navigation","trial_index":8,"time_elapsed":2700015,"internal_node_id":"0.0-2.0-6.0"},{"group":"dihedral group of order 12","room_assignment":["brown","grey","orange","olive","cyan","green","ivory","purple","yellow","red","blue","pink"],"door_color_assignment":["white","black"],"door_generator_assignment":[0,1],"goal":9,"start":6,"action_noise":0.15,"location_history":"[6,0,6,11,10,9]","action_history":"[0,0,0,0,0]","door_history":"[0,0,0,0,0]","location_rts":"[437,1018,99,848,413]","trial_type":"two-door-navigation","trial_index":9,"time_elapsed":2711669,"internal_node_id":"0.0-2.0-7.0"},{"group":"dihedral group of order 12","room_assignment":["brown","grey","orange","olive","cyan","green","ivory","purple","yellow","red","blue","pink"],"door_color_assignment":["white","black"],"door_generator_assignment":[0,1],"goal":2,"start":9,"action_noise":0.15,"location_history":"[9,8,7,6,11,10,9,3,9,8,2]","action_history":"[0,0,0,0,0,0,0,0,0,0]","door_history":"[0,0,0,0,0,0,0,0,0,0]","location_rts":"[305,557,295,45,109,93,196,110,789,37]","trial_type":"two-door-navigation","trial_index":10,"time_elapsed":2728448,"internal_node_id":"0.0-2.0-8.0"},{"group":"dihedral group of order 12","room_assignment":["brown","grey","orange","olive","cyan","green","ivory","purple","yellow","red","blue","pink"],"door_color_assignment":["white","black"],"door_generator_assignment":[0,1],"goal":0,"start":2,"action_noise":0.15,"location_history":"[2,3,9,8,7,1,2,3,4,5,0]","action_history":"[0,0,0,0,0,0,0,0,0,0]","door_history":"[0,0,0,0,0,0,0,0,0,0]","location_rts":"[307,1268,217,32,575,193,710,526,234,82]","trial_type":"two-door-navigation","trial_index":11,"time_elapsed":2746781,"internal_node_id":"0.0-2.0-9.0"},{"group":"dihedral group of order 12","room_assignment":["brown","grey","orange","olive","cyan","green","ivory","purple","yellow","red","blue","pink"],"door_color_assignment":["white","black"],"door_generator_assignment":[0,1],"goal":3,"start":0,"action_noise":0.15,"location_history":"[0,6,11,10,4,5,0,1,2,8,7,6,0,1,7,1,7,6,0,1,7,6,11,10,4,5,11,10,9,8,7,6,11,10,9,8,2,3]","action_history":"[0,0,0,0,0,0,0,0,0,0,0,1,1,1,1,1,1,1,1,0,0,0,0,0,0,0,0,0,0,0,0,0,0,0,0,0,0]","door_history":"[0,0,0,0,0,0,0,0,0,0,0,1,1,1,1,1,1,1,1,0,0,0,0,0,0,0,0,0,0,0,0,0,0,0,0,0,0]","location_rts":"[146,62,334,646,92,47,281,386,62,375,44,438,267,87,60,1373,223,286,344,61,504,238,74,227,362,316,324,259,159,107,137,18,155,403,26,213,231]","trial_type":"two-door-navigation","trial_index":12,"time_elapsed":2799310,"internal_node_id":"0.0-2.0-10.0"},{"group":"dihedral group of order 12","room_assignment":["brown","grey","orange","olive","cyan","green","ivory","purple","yellow","red","blue","pink"],"door_color_assignment":["white","black"],"door_generator_assignment":[0,1],"goal":10,"start":3,"action_noise":0.15,"location_history":"[3,4,10]","action_history":"[0,0]","door_history":"[0,0]","location_rts":"[132,84]","trial_type":"two-door-navigation","trial_index":13,"time_elapsed":2805166,"internal_node_id":"0.0-2.0-11.0"},{"group":"dihedral group of order 12","room_assignment":["brown","grey","orange","olive","cyan","green","ivory","purple","yellow","red","blue","pink"],"door_color_assignment":["white","black"],"door_generator_assignment":[0,1],"goal":8,"start":10,"action_noise":0.15,"location_history":"[10,9,8]","action_history":"[0,0]","door_history":"[0,0]","location_rts":"[146,369]","trial_type":"two-door-navigation","trial_index":14,"time_elapsed":2811317,"internal_node_id":"0.0-2.0-12.0"},{"group":"dihedral group of order 12","room_assignment":["brown","grey","orange","olive","cyan","green","ivory","purple","yellow","red","blue","pink"],"door_color_assignment":["white","black"],"door_generator_assignment":[0,1],"goal":4,"start":8,"action_noise":0.15,"location_history":"[8,2,3,4]","action_history":"[0,0,0]","door_history":"[0,0,0]","location_rts":"[313,345,235]","trial_type":"two-door-navigation","trial_index":15,"time_elapsed":2818936,"internal_node_id":"0.0-2.0-13.0"},{"group":"dihedral group of order 12","room_assignment":["brown","grey","orange","olive","cyan","green","ivory","purple","yellow","red","blue","pink"],"door_color_assignment":["white","black"],"door_generator_assignment":[0,1],"goal":0,"start":4,"action_noise":0.15,"location_history":"[4,10,9,8,7,6,11,10,9,8,7,6,11,10,9,3,9,8,7,6,11,10,9,8,7,6,0]","action_history":"[0,0,0,0,0,0,0,0,0,0,0,0,0,0,0,0,0,0,0,0,0,0,0,0,0,0]","door_history":"[0,0,0,0,0,0,0,0,0,0,0,0,0,0,0,0,0,0,0,0,0,0,0,0,0,0]","location_rts":"[671,280,194,156,20,226,641,261,191,196,413,355,1028,30,769,803,135,139,611,100,467,369,292,216,472,276]","trial_type":"two-door-navigation","trial_index":16,"time_elapsed":2859589,"internal_node_id":"0.0-2.0-14.0"},{"group":"dihedral group of order 12","room_assignment":["brown","grey","orange","olive","cyan","green","ivory","purple","yellow","red","blue","pink"],"door_color_assignment":["white","black"],"door_generator_assignment":[0,1],"goal":11,"start":0,"action_noise":0.15,"location_history":"[0,1,2,3,4,5,0,1,2,3,4,5,0,6,0,1,2,3,4,5,0,1,2,3,4,5,0,6,0,1,2,3,9,8,7,6,11]","action_history":"[0,0,0,0,0,0,0,0,0,0,0,0,0,0,0,0,0,0,0,0,0,0,0,0,0,0,0,0,0,0,0,0,0,0,0,0]","door_history":"[0,0,0,0,0,0,0,0,0,0,0,0,0,0,0,0,0,0,0,0,0,0,0,0,0,0,0,0,0,0,0,0,0,0,0,0]","location_rts":"[294,57,155,159,252,1068,2242,242,1434,45,487,302,76,69,581,73,228,237,128,73,88,529,516,428,20,443,165,6,236,165,56,109,95,598,103,510]","trial_type":"two-door-navigation","trial_index":17,"time_elapsed":2913901,"internal_node_id":"0.0-2.0-15.0"},{"group":"dihedral group of order 12","room_assignment":["brown","grey","orange","olive","cyan","green","ivory","purple","yellow","red","blue","pink"],"door_color_assignment":["white","black"],"door_generator_assignment":[0,1],"goal":2,"start":11,"action_noise":0.15,"location_history":"[11,10,4,5,0,1,2]","action_history":"[0,0,0,0,0,0]","door_history":"[0,0,0,0,0,0]","location_rts":"[1258,1109,299,250,188,422]","trial_type":"two-door-navigation","trial_index":18,"time_elapsed":2927368,"internal_node_id":"0.0-2.0-16.0"},{"group":"dihedral group of order 12","room_assignment":["brown","grey","orange","olive","cyan","green","ivory","purple","yellow","red","blue","pink"],"door_color_assignment":["white","black"],"door_generator_assignment":[0,1],"goal":7,"start":2,"action_noise":0.15,"location_history":"[2,8,7]","action_history":"[0,0]","door_history":"[0,0]","location_rts":"[121,198]","trial_type":"two-door-navigation","trial_index":19,"time_elapsed":2933352,"internal_node_id":"0.0-2.0-17.0"},{"group":"dihedral group of order 12","room_assignment":["brown","grey","orange","olive","cyan","green","ivory","purple","yellow","red","blue","pink"],"door_color_assignment":["white","black"],"door_generator_assignment":[0,1],"goal":5,"start":7,"action_noise":0.15,"location_history":"[7,6,11,10,9,8,7,1,2,3,4,5]","action_history":"[0,0,0,0,0,0,0,0,0,0,0]","door_history":"[0,0,0,0,0,0,0,0,0,0,0]","location_rts":"[231,33,9,439,1740,1190,389,223,630,179,280]","trial_type":"two-door-navigation","trial_index":20,"time_elapsed":2954034,"internal_node_id":"0.0-2.0-18.0"},{"group":"dihedral group of order 12","room_assignment":["brown","grey","orange","olive","cyan","green","ivory","purple","yellow","red","blue","pink"],"door_color_assignment":["white","black"],"door_generator_assignment":[0,1],"goal":6,"start":5,"action_noise":0.15,"location_history":"[5,0,1,7,1,2,3,4,5,0,1,2,3,4,5,0,1,2,3,4,5,11,10,4,5,0,1,2,3,4,5,11,10,9,3,4,5,0,1,2,3,4,5,0,1,2,3,4,5,0,1,2,3,9,3,4,5,0,6]","action_history":"[0,0,0,0,0,0,0,0,0,0,0,0,0,0,0,0,0,0,0,0,0,0,0,0,0,0,0,0,0,0,0,0,0,0,0,0,0,0,0,0,0,0,0,0,0,0,0,0,0,0,0,0,0,0,0,0,0,0]","door_history":"[0,0,0,0,0,0,0,0,0,0,0,0,0,0,0,0,0,0,0,0,0,0,0,0,0,0,0,0,0,0,0,0,0,0,0,0,0,0,0,0,0,0,0,0,0,0,0,0,0,0,0,0,0,0,0,0,0,0]","location_rts":"[152,562,82,343,551,162,445,33,289,351,61,591,139,148,196,28,126,78,304,246,261,183,347,404,312,234,242,434,256,509,89,79,268,955,6690,261,293,669,270,200,206,143,146,202,459,324,63,35,226,98,121,117,118,767,61,315,223,45]","trial_type":"two-door-navigation","trial_index":21,"time_elapsed":3041232,"internal_node_id":"0.0-2.0-19.0"},{"group":"dihedral group of order 12","room_assignment":["brown","grey","orange","olive","cyan","green","ivory","purple","yellow","red","blue","pink"],"door_color_assignment":["white","black"],"door_generator_assignment":[0,1],"goal":3,"start":6,"action_noise":0.15,"location_history":"[6,11,10,4,5,0,6,11,5,11,5,0,1,7,6,0,1,2,3]","action_history":"[0,0,0,0,0,0,0,0,0,0,0,0,0,0,0,0,0,0]","door_history":"[0,0,0,0,0,0,0,0,0,0,0,0,0,0,0,0,0,0]","location_rts":"[92,56,235,86,195,98,329,198,464,35,415,639,468,254,43,123,21,335]","trial_type":"two-door-navigation","trial_index":22,"time_elapsed":3068070,"internal_node_id":"0.0-2.0-20.0"},{"group":"dihedral group of order 12","room_assignment":["brown","grey","orange","olive","cyan","green","ivory","purple","yellow","red","blue","pink"],"door_color_assignment":["white","black"],"door_generator_assignment":[0,1],"goal":1,"start":3,"action_noise":0.15,"location_history":"[3,4,5,0,1]","action_history":"[0,0,0,0]","door_history":"[0,0,0,0]","location_rts":"[242,50,21,138]","trial_type":"two-door-navigation","trial_index":23,"time_elapsed":3076291,"internal_node_id":"0.0-2.0-21.0"},{"group":"dihedral group of order 12","room_assignment":["brown","grey","orange","olive","cyan","green","ivory","purple","yellow","red","blue","pink"],"door_color_assignment":["white","black"],"door_generator_assignment":[0,1],"goal":9,"start":1,"action_noise":0.15,"location_history":"[1,2,3,4,10,9]","action_history":"[0,0,0,0,0]","door_history":"[0,0,0,0,0]","location_rts":"[97,258,411,239,283]","trial_type":"two-door-navigation","trial_index":24,"time_elapsed":3086427,"internal_node_id":"0.0-2.0-22.0"},{"group":"dihedral group of order 12","room_assignment":["brown","grey","orange","olive","cyan","green","ivory","purple","yellow","red","blue","pink"],"door_color_assignment":["white","black"],"door_generator_assignment":[0,1],"goal":3,"start":9,"action_noise":0.15,"location_history":"[9,8,7,6,11,10,4,5,11,5,0,1,2,3]","action_history":"[0,0,0,0,0,0,0,0,0,0,0,0,0]","door_history":"[0,0,0,0,0,0,0,0,0,0,0,0,0]","location_rts":"[1510,2,601,451,80,264,413,591,32,165,128,125,213]","trial_type":"two-door-navigation","trial_index":25,"time_elapsed":3108417,"internal_node_id":"0.0-2.0-23.0"},{"group":"dihedral group of order 12","room_assignment":["brown","grey","orange","olive","cyan","green","ivory","purple","yellow","red","blue","pink"],"door_color_assignment":["white","black"],"door_generator_assignment":[0,1],"goal":4,"start":3,"action_noise":0.15,"location_history":"[3,4]","action_history":"[0]","door_history":"[0]","location_rts":"[6]","trial_type":"two-door-navigation","trial_index":26,"time_elapsed":3112997,"internal_node_id":"0.0-2.0-24.0"},{"group":"dihedral group of order 12","room_assignment":["brown","grey","orange","olive","cyan","green","ivory","purple","yellow","red","blue","pink"],"door_color_assignment":["white","black"],"door_generator_assignment":[0,1],"goal":2,"start":4,"action_noise":0.15,"location_history":"[4,5,0,1,2]","action_history":"[0,0,0,0]","door_history":"[0,0,0,0]","location_rts":"[502,85,265,122]","trial_type":"two-door-navigation","trial_index":27,"time_elapsed":3121755,"internal_node_id":"0.0-2.0-25.0"},{"group":"dihedral group of order 12","room_assignment":["brown","grey","orange","olive","cyan","green","ivory","purple","yellow","red","blue","pink"],"door_color_assignment":["white","black"],"door_generator_assignment":[0,1],"goal":1,"start":2,"action_noise":0.15,"location_history":"[2,3,9,8,7,6,11,10,9,3,4,5,0,6,11,10,9,8,2,3,9,8,2,3,4,5,0,1]","action_history":"[0,0,0,0,0,0,0,0,0,0,0,0,0,0,0,0,0,0,0,0,0,0,0,0,0,0,0]","door_history":"[0,0,0,0,0,0,0,0,0,0,0,0,0,0,0,0,0,0,0,0,0,0,0,0,0,0,0]","location_rts":"[235,614,98,720,355,59,5,637,1256,83,37,32,10,120,321,225,237,153,526,195,475,94,665,165,166,108,182]","trial_type":"two-door-navigation","trial_index":28,"time_elapsed":3161962,"internal_node_id":"0.0-2.0-26.0"},{"group":"dihedral group of order 12","room_assignment":["brown","grey","orange","olive","cyan","green","ivory","purple","yellow","red","blue","pink"],"door_color_assignment":["white","black"],"door_generator_assignment":[0,1],"goal":8,"start":1,"action_noise":0.15,"location_history":"[1,2,3,4,5,0,1,2,3,4,5,0,1,2,8]","action_history":"[0,0,0,0,0,0,0,0,0,0,0,0,0,0]","door_history":"[0,0,0,0,0,0,0,0,0,0,0,0,0,0]","location_rts":"[275,69,163,11,186,365,258,42,430,448,77,268,199,350]","trial_type":"two-door-navigation","trial_index":29,"time_elapsed":3183599,"internal_node_id":"0.0-2.0-27.0"},{"group":"dihedral group of order 12","room_assignment":["brown","grey","orange","olive","cyan","green","ivory","purple","yellow","red","blue","pink"],"door_color_assignment":["white","black"],"door_generator_assignment":[0,1],"goal":10,"start":8,"action_noise":0.15,"location_history":"[8,7,6,11,10]","action_history":"[0,0,0,0]","door_history":"[0,0,0,0]","location_rts":"[6,249,566,250]","trial_type":"two-door-navigation","trial_index":30,"time_elapsed":3192453,"internal_node_id":"0.0-2.0-28.0"},{"group":"dihedral group of order 12","room_assignment":["brown","grey","orange","olive","cyan","green","ivory","purple","yellow","red","blue","pink"],"door_color_assignment":["white","black"],"door_generator_assignment":[0,1],"goal":7,"start":10,"action_noise":0.15,"location_history":"[10,4,5,0,1,2,3,4,5,0,1,2,3,4,5,0,1,2,8,2,3,4,5,0,6,11,10,9,8,7]","action_history":"[0,0,0,0,0,0,0,0,0,0,0,0,0,0,0,0,0,0,0,0,0,0,0,0,0,0,0,0,0]","door_history":"[0,0,0,0,0,0,0,0,0,0,0,0,0,0,0,0,0,0,0,0,0,0,0,0,0,0,0,0,0]","location_rts":"[301,87,151,323,4,370,22,66,703,986,587,364,1069,1756,43,222,648,171,496,709,243,418,122,102,99,187,584,25,295]","trial_type":"two-door-navigation","trial_index":31,"time_elapsed":3238166,"internal_node_id":"0.0-2.0-29.0"},{"group":"dihedral group of order 12","room_assignment":["brown","grey","orange","olive","cyan","green","ivory","purple","yellow","red","blue","pink"],"door_color_assignment":["white","black"],"door_generator_assignment":[0,1],"goal":6,"start":7,"action_noise":0.15,"location_history":"[7,6]","action_history":"[0]","door_history":"[0]","location_rts":"[187]","trial_type":"two-door-navigation","trial_index":32,"time_elapsed":3242934,"internal_node_id":"0.0-2.0-30.0"},{"group":"dihedral group of order 12","room_assignment":["brown","grey","orange","olive","cyan","green","ivory","purple","yellow","red","blue","pink"],"door_color_assignment":["white","black"],"door_generator_assignment":[0,1],"goal":0,"start":6,"action_noise":0.15,"location_history":"[6,0]","action_history":"[0]","door_history":"[0]","location_rts":"[118]","trial_type":"two-door-navigation","trial_index":33,"time_elapsed":3247634,"internal_node_id":"0.0-2.0-31.0"},{"group":"dihedral group of order 12","room_assignment":["brown","grey","orange","olive","cyan","green","ivory","purple","yellow","red","blue","pink"],"door_color_assignment":["white","black"],"door_generator_assignment":[0,1],"goal":11,"start":0,"action_noise":0.15,"location_history":"[0,1,2,8,2,3,4,5,0,1,7,6,0,1,7,6,0,1,2,3,4,10,9,8,7,6,11]","action_history":"[0,0,0,0,0,0,0,0,0,0,0,0,0,0,0,0,0,0,0,0,0,0,0,0,0,0]","door_history":"[0,0,0,0,0,0,0,0,0,0,0,0,0,0,0,0,0,0,0,0,0,0,0,0,0,0]","location_rts":"[396,194,288,204,257,170,135,73,81,502,804,313,143,28,42,198,88,55,116,46785,252,293,61,23,468,6987]","trial_type":"two-door-navigation","trial_index":34,"time_elapsed":3337940,"internal_node_id":"0.0-2.0-32.0"},{"group":"dihedral group of order 12","room_assignment":["brown","grey","orange","olive","cyan","green","ivory","purple","yellow","red","blue","pink"],"door_color_assignment":["white","black"],"door_generator_assignment":[0,1],"goal":9,"start":11,"action_noise":0.15,"location_history":"[11,10,9]","action_history":"[0,0]","door_history":"[0,0]","location_rts":"[343,118]","trial_type":"two-door-navigation","trial_index":35,"time_elapsed":3344030,"internal_node_id":"0.0-2.0-33.0"},{"group":"dihedral group of order 12","room_assignment":["brown","grey","orange","olive","cyan","green","ivory","purple","yellow","red","blue","pink"],"door_color_assignment":["white","black"],"door_generator_assignment":[0,1],"goal":5,"start":9,"action_noise":0.15,"location_history":"[9,8,7,6,11,10,9,8,7,6,11,10,9,8,7,1,2,3,4,5]","action_history":"[0,0,0,0,0,0,0,0,0,0,0,0,0,0,0,0,0,0,0]","door_history":"[0,0,0,0,0,0,0,0,0,0,0,0,0,0,0,0,0,0,0]","location_rts":"[386,153,284,298,737,308,27,190,116,9,117,186,477,381,281,25,28,47,549]","trial_type":"two-door-navigation","trial_index":36,"time_elapsed":3372477,"internal_node_id":"0.0-2.0-34.0"},{"view_history":"[{\"page_index\":0,\"viewing_time\":11721}]","rt":11722,"trial_type":"instructions","trial_index":37,"time_elapsed":3385199,"internal_node_id":"0.0-3.0"},{"view_history":"[{\"page_index\":0,\"viewing_time\":3566},{\"page_index\":1,\"viewing_time\":1438}]","rt":5005,"trial_type":"instructions","trial_index":38,"time_elapsed":3391209,"internal_node_id":"0.0-4.0"},{"group":"dicyclic group of order 12","fractal_assignment":["../images/grn_blu.png","../images/wht_red.png","../images/org_blu.png","../images/grn_prp.png","../images/gry_blk.png","../images/pnk_blu.png","../images/ylw_pnk.png","../images/grn_red.png","../images/cyn_red.png","../images/ylw_slt.png","../images/red_prp.png","../images/blu_wht.png"],"mutagen_generator_assignment":[1,0],"goal":7,"start":11,"action_noise":0.15,"location_history":"[11,3,0,1,5,9,6,11,4,8,0,4,9,1,5,9,1,5,9,1,2,3,7]","action_history":"[1,0,1,1,1,0,0,0,1,1,1,1,1,1,1,1,1,1,1,0,0,1]","mutagen_history":"[0,1,0,0,0,1,1,1,0,0,0,0,0,0,0,0,0,0,0,1,1,0]","location_rts":"[2088,60,279,155,247,64,70,58,448,154,35,53,27,70,11,58,212,100,70,60,148,323]","trial_type":"fractal-mutation","trial_index":39,"time_elapsed":3423868,"internal_node_id":"0.0-5.0-0.0"},{"group":"dicyclic group of order 12","fractal_assignment":["../images/grn_blu.png","../images/wht_red.png","../images/org_blu.png","../images/grn_prp.png","../images/gry_blk.png","../images/pnk_blu.png","../images/ylw_pnk.png","../images/grn_red.png","../images/cyn_red.png","../images/ylw_slt.png","../images/red_prp.png","../images/blu_wht.png"],"mutagen_generator_assignment":[1,0],"goal":8,"start":7,"action_noise":0.15,"location_history":"[7,11,3,7,8]","action_history":"[0,1,1,0]","mutagen_history":"[1,0,0,1]","location_rts":"[105,181,175,43]","trial_type":"fractal-mutation","trial_index":40,"time_elapsed":3432345,"internal_node_id":"0.0-5.0-1.0"},{"group":"dicyclic group of order 12","fractal_assignment":["../images/grn_blu.png","../images/wht_red.png","../images/org_blu.png","../images/grn_prp.png","../images/gry_blk.png","../images/pnk_blu.png","../images/ylw_pnk.png","../images/grn_red.png","../images/cyn_red.png","../images/ylw_slt.png","../images/red_prp.png","../images/blu_wht.png"],"mutagen_generator_assignment":[1,0],"goal":4,"start":8,"action_noise":0.15,"location_history":"[8,0,4]","action_history":"[0,1]","mutagen_history":"[1,0]","location_rts":"[27,123]","trial_type":"fractal-mutation","trial_index":41,"time_elapsed":3438244,"internal_node_id":"0.0-5.0-2.0"},{"group":"dicyclic group of order 12","fractal_assignment":["../images/grn_blu.png","../images/wht_red.png","../images/org_blu.png","../images/grn_prp.png","../images/gry_blk.png","../images/pnk_blu.png","../images/ylw_pnk.png","../images/grn_red.png","../images/cyn_red.png","../images/ylw_slt.png","../images/red_prp.png","../images/blu_wht.png"],"mutagen_generator_assignment":[1,0],"goal":5,"start":4,"action_noise":0.15,"location_history":"[4,8,0,4,9,1,5]","action_history":"[1,1,1,1,1,1]","mutagen_history":"[0,0,0,0,0,0]","location_rts":"[114,9,50,105,29,178]","trial_type":"fractal-mutation","trial_index":42,"time_elapsed":3448697,"internal_node_id":"0.0-5.0-3.0"},{"group":"dicyclic group of order 12","fractal_assignment":["../images/grn_blu.png","../images/wht_red.png","../images/org_blu.png","../images/grn_prp.png","../images/gry_blk.png","../images/pnk_blu.png","../images/ylw_pnk.png","../images/grn_red.png","../images/cyn_red.png","../images/ylw_slt.png","../images/red_prp.png","../images/blu_wht.png"],"mutagen_generator_assignment":[1,0],"goal":10,"start":5,"action_noise":0.15,"location_history":"[5,10]","action_history":"[1]","mutagen_history":"[0]","location_rts":"[130]","trial_type":"fractal-mutation","trial_index":43,"time_elapsed":3453416,"internal_node_id":"0.0-5.0-4.0"},{"group":"dicyclic group of order 12","fractal_assignment":["../images/grn_blu.png","../images/wht_red.png","../images/org_blu.png","../images/grn_prp.png","../images/gry_blk.png","../images/pnk_blu.png","../images/ylw_pnk.png","../images/grn_red.png","../images/cyn_red.png","../images/ylw_slt.png","../images/red_prp.png","../images/blu_wht.png"],"mutagen_generator_assignment":[1,0],"goal":1,"start":10,"action_noise":0.15,"location_history":"[10,7,8,5,9,1]","action_history":"[0,0,0,1,1]","mutagen_history":"[1,1,1,0,0]","location_rts":"[62,86,44,530,107]","trial_type":"fractal-mutation","trial_index":44,"time_elapsed":3463323,"internal_node_id":"0.0-5.0-5.0"},{"group":"dicyclic group of order 12","fractal_assignment":["../images/grn_blu.png","../images/wht_red.png","../images/org_blu.png","../images/grn_prp.png","../images/gry_blk.png","../images/pnk_blu.png","../images/ylw_pnk.png","../images/grn_red.png","../images/cyn_red.png","../images/ylw_slt.png","../images/red_prp.png","../images/blu_wht.png"],"mutagen_generator_assignment":[1,0],"goal":6,"start":1,"action_noise":0.15,"location_history":"[1,5,9,1,5,9,1,5,9,1,2,6]","action_history":"[1,1,1,1,1,1,1,1,1,1,0]","mutagen_history":"[0,0,0,0,0,0,0,0,0,0,1]","location_rts":"[130,88,208,208,239,195,126,196,831,255,80]","trial_type":"fractal-mutation","trial_index":45,"time_elapsed":3481260,"internal_node_id":"0.0-5.0-6.0"},{"group":"dicyclic group of order 12","fractal_assignment":["../images/grn_blu.png","../images/wht_red.png","../images/org_blu.png","../images/grn_prp.png","../images/gry_blk.png","../images/pnk_blu.png","../images/ylw_pnk.png","../images/grn_red.png","../images/cyn_red.png","../images/ylw_slt.png","../images/red_prp.png","../images/blu_wht.png"],"mutagen_generator_assignment":[1,0],"goal":9,"start":6,"action_noise":0.15,"location_history":"[6,10,2,6,10,2,3,7,11,4,9]","action_history":"[1,1,1,1,1,1,1,1,0,0]","mutagen_history":"[0,0,0,0,0,0,0,0,1,1]","location_rts":"[432,155,192,230,349,159,347,290,151,460]","trial_type":"fractal-mutation","trial_index":46,"time_elapsed":3498419,"internal_node_id":"0.0-5.0-7.0"},{"group":"dicyclic group of order 12","fractal_assignment":["../images/grn_blu.png","../images/wht_red.png","../images/org_blu.png","../images/grn_prp.png","../images/gry_blk.png","../images/pnk_blu.png","../images/ylw_pnk.png","../images/grn_red.png","../images/cyn_red.png","../images/ylw_slt.png","../images/red_prp.png","../images/blu_wht.png"],"mutagen_generator_assignment":[1,0],"goal":2,"start":9,"action_noise":0.15,"location_history":"[9,1,5,10,2]","action_history":"[1,1,0,1]","mutagen_history":"[0,0,1,0]","location_rts":"[25,105,139,204]","trial_type":"fractal-mutation","trial_index":47,"time_elapsed":3506776,"internal_node_id":"0.0-5.0-8.0"},{"group":"dicyclic group of order 12","fractal_assignment":["../images/grn_blu.png","../images/wht_red.png","../images/org_blu.png","../images/grn_prp.png","../images/gry_blk.png","../images/pnk_blu.png","../images/ylw_pnk.png","../images/grn_red.png","../images/cyn_red.png","../images/ylw_slt.png","../images/red_prp.png","../images/blu_wht.png"],"mutagen_generator_assignment":[1,0],"goal":0,"start":2,"action_noise":0.15,"location_history":"[2,6,10,2,6,10,2,6,11,3,0]","action_history":"[1,1,1,1,1,1,0,0,1,0]","mutagen_history":"[0,0,0,0,0,0,1,1,0,1]","location_rts":"[74,599,26901,90,155,283,208,79,89,121]","trial_type":"fractal-mutation","trial_index":48,"time_elapsed":3549831,"internal_node_id":"0.0-5.0-9.0"},{"group":"dicyclic group of order 12","fractal_assignment":["../images/grn_blu.png","../images/wht_red.png","../images/org_blu.png","../images/grn_prp.png","../images/gry_blk.png","../images/pnk_blu.png","../images/ylw_pnk.png","../images/grn_red.png","../images/cyn_red.png","../images/ylw_slt.png","../images/red_prp.png","../images/blu_wht.png"],"mutagen_generator_assignment":[1,0],"goal":3,"start":0,"action_noise":0.15,"location_history":"[0,1,2,3]","action_history":"[0,0,0]","mutagen_history":"[1,1,1]","location_rts":"[547,733,130]","trial_type":"fractal-mutation","trial_index":49,"time_elapsed":3558134,"internal_node_id":"0.0-5.0-10.0"},{"group":"dicyclic group of order 12","fractal_assignment":["../images/grn_blu.png","../images/wht_red.png","../images/org_blu.png","../images/grn_prp.png","../images/gry_blk.png","../images/pnk_blu.png","../images/ylw_pnk.png","../images/grn_red.png","../images/cyn_red.png","../images/ylw_slt.png","../images/red_prp.png","../images/blu_wht.png"],"mutagen_generator_assignment":[1,0],"goal":10,"start":3,"action_noise":0.15,"location_history":"[3,7,11,4,9,6,10]","action_history":"[1,1,0,0,0,0]","mutagen_history":"[0,0,1,1,1,1]","location_rts":"[299,147,242,343,140,175]","trial_type":"fractal-mutation","trial_index":50,"time_elapsed":3569640,"internal_node_id":"0.0-5.0-11.0"},{"group":"dicyclic group of order 12","fractal_assignment":["../images/grn_blu.png","../images/wht_red.png","../images/org_blu.png","../images/grn_prp.png","../images/gry_blk.png","../images/pnk_blu.png","../images/ylw_pnk.png","../images/grn_red.png","../images/cyn_red.png","../images/ylw_slt.png","../images/red_prp.png","../images/blu_wht.png"],"mutagen_generator_assignment":[1,0],"goal":8,"start":10,"action_noise":0.15,"location_history":"[10,7,11,3,7,8]","action_history":"[0,1,1,1,1]","mutagen_history":"[1,0,0,0,0]","location_rts":"[84,27,467,504,831]","trial_type":"fractal-mutation","trial_index":51,"time_elapsed":3580572,"internal_node_id":"0.0-5.0-12.0"},{"group":"dicyclic group of order 12","fractal_assignment":["../images/grn_blu.png","../images/wht_red.png","../images/org_blu.png","../images/grn_prp.png","../images/gry_blk.png","../images/pnk_blu.png","../images/ylw_pnk.png","../images/grn_red.png","../images/cyn_red.png","../images/ylw_slt.png","../images/red_prp.png","../images/blu_wht.png"],"mutagen_generator_assignment":[1,0],"goal":4,"start":8,"action_noise":0.15,"location_history":"[8,5,9,6,10,7,11,4]","action_history":"[0,1,0,1,0,0,0]","mutagen_history":"[1,0,1,0,1,1,1]","location_rts":"[152,308,51,588,141,158,40]","trial_type":"fractal-mutation","trial_index":52,"time_elapsed":3593370,"internal_node_id":"0.0-5.0-13.0"},{"group":"dicyclic group of order 12","fractal_assignment":["../images/grn_blu.png","../images/wht_red.png","../images/org_blu.png","../images/grn_prp.png","../images/gry_blk.png","../images/pnk_blu.png","../images/ylw_pnk.png","../images/grn_red.png","../images/cyn_red.png","../images/ylw_slt.png","../images/red_prp.png","../images/blu_wht.png"],"mutagen_generator_assignment":[1,0],"goal":0,"start":4,"action_noise":0.15,"location_history":"[4,9,1,2,3,7,8,0]","action_history":"[0,0,0,0,1,0,1]","mutagen_history":"[1,1,1,1,0,1,0]","location_rts":"[2564,968,349,539,182,279,216]","trial_type":"fractal-mutation","trial_index":53,"time_elapsed":3609838,"internal_node_id":"0.0-5.0-14.0"},{"group":"dicyclic group of order 12","fractal_assignment":["../images/grn_blu.png","../images/wht_red.png","../images/org_blu.png","../images/grn_prp.png","../images/gry_blk.png","../images/pnk_blu.png","../images/ylw_pnk.png","../images/grn_red.png","../images/cyn_red.png","../images/ylw_slt.png","../images/red_prp.png","../images/blu_wht.png"],"mutagen_generator_assignment":[1,0],"goal":11,"start":0,"action_noise":0.15,"location_history":"[0,1,2,6,11]","action_history":"[0,0,1,0]","mutagen_history":"[1,1,0,1]","location_rts":"[40,621,131,114]","trial_type":"fractal-mutation","trial_index":54,"time_elapsed":3618725,"internal_node_id":"0.0-5.0-15.0"},{"group":"dicyclic group of order 12","fractal_assignment":["../images/grn_blu.png","../images/wht_red.png","../images/org_blu.png","../images/grn_prp.png","../images/gry_blk.png","../images/pnk_blu.png","../images/ylw_pnk.png","../images/grn_red.png","../images/cyn_red.png","../images/ylw_slt.png","../images/red_prp.png","../images/blu_wht.png"],"mutagen_generator_assignment":[1,0],"goal":2,"start":11,"action_noise":0.15,"location_history":"[11,3,7,11,4,8,5,9,1,2]","action_history":"[1,0,1,0,1,0,0,1,0]","mutagen_history":"[0,1,0,1,0,1,1,0,1]","location_rts":"[130,101,173,32,23,73,163,229,116]","trial_type":"fractal-mutation","trial_index":55,"time_elapsed":3633257,"internal_node_id":"0.0-5.0-16.0"},{"group":"dicyclic group of order 12","fractal_assignment":["../images/grn_blu.png","../images/wht_red.png","../images/org_blu.png","../images/grn_prp.png","../images/gry_blk.png","../images/pnk_blu.png","../images/ylw_pnk.png","../images/grn_red.png","../images/cyn_red.png","../images/ylw_slt.png","../images/red_prp.png","../images/blu_wht.png"],"mutagen_generator_assignment":[1,0],"goal":7,"start":2,"action_noise":0.15,"location_history":"[2,3,7]","action_history":"[0,1]","mutagen_history":"[1,0]","location_rts":"[419,238]","trial_type":"fractal-mutation","trial_index":56,"time_elapsed":3639653,"internal_node_id":"0.0-5.0-17.0"},{"group":"dicyclic group of order 12","fractal_assignment":["../images/grn_blu.png","../images/wht_red.png","../images/org_blu.png","../images/grn_prp.png","../images/gry_blk.png","../images/pnk_blu.png","../images/ylw_pnk.png","../images/grn_red.png","../images/cyn_red.png","../images/ylw_slt.png","../images/red_prp.png","../images/blu_wht.png"],"mutagen_generator_assignment":[1,0],"goal":5,"start":7,"action_noise":0.15,"location_history":"[7,11,3,7,8,5]","action_history":"[0,1,1,0,0]","mutagen_history":"[1,0,0,1,1]","location_rts":"[637,66,202,2,571]","trial_type":"fractal-mutation","trial_index":57,"time_elapsed":3650257,"internal_node_id":"0.0-5.0-18.0"},{"group":"dicyclic group of order 12","fractal_assignment":["../images/grn_blu.png","../images/wht_red.png","../images/org_blu.png","../images/grn_prp.png","../images/gry_blk.png","../images/pnk_blu.png","../images/ylw_pnk.png","../images/grn_red.png","../images/cyn_red.png","../images/ylw_slt.png","../images/red_prp.png","../images/blu_wht.png"],"mutagen_generator_assignment":[1,0],"goal":6,"start":5,"action_noise":0.15,"location_history":"[5,10,2,6]","action_history":"[0,1,1]","mutagen_history":"[1,0,0]","location_rts":"[406,327,588]","trial_type":"fractal-mutation","trial_index":58,"time_elapsed":3658413,"internal_node_id":"0.0-5.0-19.0"},{"group":"dicyclic group of order 12","fractal_assignment":["../images/grn_blu.png","../images/wht_red.png","../images/org_blu.png","../images/grn_prp.png","../images/gry_blk.png","../images/pnk_blu.png","../images/ylw_pnk.png","../images/grn_red.png","../images/cyn_red.png","../images/ylw_slt.png","../images/red_prp.png","../images/blu_wht.png"],"mutagen_generator_assignment":[1,0],"goal":3,"start":6,"action_noise":0.15,"location_history":"[6,11,3]","action_history":"[0,1]","mutagen_history":"[1,0]","location_rts":"[2371,2164]","trial_type":"fractal-mutation","trial_index":59,"time_elapsed":3668674,"internal_node_id":"0.0-5.0-20.0"},{"group":"dicyclic group of order 12","fractal_assignment":["../images/grn_blu.png","../images/wht_red.png","../images/org_blu.png","../images/grn_prp.png","../images/gry_blk.png","../images/pnk_blu.png","../images/ylw_pnk.png","../images/grn_red.png","../images/cyn_red.png","../images/ylw_slt.png","../images/red_prp.png","../images/blu_wht.png"],"mutagen_generator_assignment":[1,0],"goal":1,"start":3,"action_noise":0.15,"location_history":"[3,7,8,0,4,8,5,9,1]","action_history":"[1,0,1,1,1,1,1,1]","mutagen_history":"[0,1,0,0,0,0,0,0]","location_rts":"[570,767,12,92,1000,328,307,6347]","trial_type":"fractal-mutation","trial_index":60,"time_elapsed":3690397,"internal_node_id":"0.0-5.0-21.0"},{"group":"dicyclic group of order 12","fractal_assignment":["../images/grn_blu.png","../images/wht_red.png","../images/org_blu.png","../images/grn_prp.png","../images/gry_blk.png","../images/pnk_blu.png","../images/ylw_pnk.png","../images/grn_red.png","../images/cyn_red.png","../images/ylw_slt.png","../images/red_prp.png","../images/blu_wht.png"],"mutagen_generator_assignment":[1,0],"goal":9,"start":1,"action_noise":0.15,"location_history":"[1,2,3,7,8,0,4,9]","action_history":"[0,0,1,0,1,1,1]","mutagen_history":"[1,1,0,1,0,0,0]","location_rts":"[150,2296,277,209,138,88,369]","trial_type":"fractal-mutation","trial_index":61,"time_elapsed":3705220,"internal_node_id":"0.0-5.0-22.0"},{"group":"dicyclic group of order 12","fractal_assignment":["../images/grn_blu.png","../images/wht_red.png","../images/org_blu.png","../images/grn_prp.png","../images/gry_blk.png","../images/pnk_blu.png","../images/ylw_pnk.png","../images/grn_red.png","../images/cyn_red.png","../images/ylw_slt.png","../images/red_prp.png","../images/blu_wht.png"],"mutagen_generator_assignment":[1,0],"goal":3,"start":9,"action_noise":0.15,"location_history":"[9,1,5,9,6,11,3]","action_history":"[1,1,1,0,1,1]","mutagen_history":"[0,0,0,1,0,0]","location_rts":"[30,868,823,86,712,258]","trial_type":"fractal-mutation","trial_index":62,"time_elapsed":3718090,"internal_node_id":"0.0-5.0-23.0"},{"group":"dicyclic group of order 12","fractal_assignment":["../images/grn_blu.png","../images/wht_red.png","../images/org_blu.png","../images/grn_prp.png","../images/gry_blk.png","../images/pnk_blu.png","../images/ylw_pnk.png","../images/grn_red.png","../images/cyn_red.png","../images/ylw_slt.png","../images/red_prp.png","../images/blu_wht.png"],"mutagen_generator_assignment":[1,0],"goal":4,"start":3,"action_noise":0.15,"location_history":"[3,0,1,5,9,6,10,2,3,7,11,4]","action_history":"[0,1,1,1,1,1,1,1,1,1,0]","mutagen_history":"[1,0,0,0,0,0,0,0,0,0,1]","location_rts":"[357,284,181,307,60,162,23,243,166,351,11]","trial_type":"fractal-mutation","trial_index":63,"time_elapsed":3735930,"internal_node_id":"0.0-5.0-24.0"},{"group":"dicyclic group of order 12","fractal_assignment":["../images/grn_blu.png","../images/wht_red.png","../images/org_blu.png","../images/grn_prp.png","../images/gry_blk.png","../images/pnk_blu.png","../images/ylw_pnk.png","../images/grn_red.png","../images/cyn_red.png","../images/ylw_slt.png","../images/red_prp.png","../images/blu_wht.png"],"mutagen_generator_assignment":[1,0],"goal":2,"start":4,"action_noise":0.15,"location_history":"[4,8,0,1,5,9,6,10,2]","action_history":"[0,1,0,1,0,0,1,1]","mutagen_history":"[1,0,1,0,1,1,0,0]","location_rts":"[855,192,63,146,84,97,66,493]","trial_type":"fractal-mutation","trial_index":64,"time_elapsed":3750349,"internal_node_id":"0.0-5.0-25.0"},{"group":"dicyclic group of order 12","fractal_assignment":["../images/grn_blu.png","../images/wht_red.png","../images/org_blu.png","../images/grn_prp.png","../images/gry_blk.png","../images/pnk_blu.png","../images/ylw_pnk.png","../images/grn_red.png","../images/cyn_red.png","../images/ylw_slt.png","../images/red_prp.png","../images/blu_wht.png"],"mutagen_generator_assignment":[1,0],"goal":1,"start":2,"action_noise":0.15,"location_history":"[2,3,7,11,4,9,6,10,7,8,0,1]","action_history":"[0,1,0,0,0,0,1,1,0,0,0]","mutagen_history":"[1,0,1,1,1,1,0,0,1,1,1]","location_rts":"[24,2190,119,167,13,697,149,329,390,1292,222]","trial_type":"fractal-mutation","trial_index":65,"time_elapsed":3771751,"internal_node_id":"0.0-5.0-26.0"},{"group":"dicyclic group of order 12","fractal_assignment":["../images/grn_blu.png","../images/wht_red.png","../images/org_blu.png","../images/grn_prp.png","../images/gry_blk.png","../images/pnk_blu.png","../images/ylw_pnk.png","../images/grn_red.png","../images/cyn_red.png","../images/ylw_slt.png","../images/red_prp.png","../images/blu_wht.png"],"mutagen_generator_assignment":[1,0],"goal":8,"start":1,"action_noise":0.15,"location_history":"[1,5,9,6,10,2,3,7,11,4,8]","action_history":"[1,1,1,1,1,0,1,0,0,1]","mutagen_history":"[0,0,0,0,0,1,0,1,1,0]","location_rts":"[124,466,848,347,243,16,492,82,663,475]","trial_type":"fractal-mutation","trial_index":66,"time_elapsed":3790016,"internal_node_id":"0.0-5.0-27.0"},{"group":"dicyclic group of order 12","fractal_assignment":["../images/grn_blu.png","../images/wht_red.png","../images/org_blu.png","../images/grn_prp.png","../images/gry_blk.png","../images/pnk_blu.png","../images/ylw_pnk.png","../images/grn_red.png","../images/cyn_red.png","../images/ylw_slt.png","../images/red_prp.png","../images/blu_wht.png"],"mutagen_generator_assignment":[1,0],"goal":10,"start":8,"action_noise":0.15,"location_history":"[8,5,10]","action_history":"[0,0]","mutagen_history":"[1,1]","location_rts":"[4,70]","trial_type":"fractal-mutation","trial_index":67,"time_elapsed":3795884,"internal_node_id":"0.0-5.0-28.0"},{"group":"dicyclic group of order 12","fractal_assignment":["../images/grn_blu.png","../images/wht_red.png","../images/org_blu.png","../images/grn_prp.png","../images/gry_blk.png","../images/pnk_blu.png","../images/ylw_pnk.png","../images/grn_red.png","../images/cyn_red.png","../images/ylw_slt.png","../images/red_prp.png","../images/blu_wht.png"],"mutagen_generator_assignment":[1,0],"goal":7,"start":10,"action_noise":0.15,"location_history":"[10,7]","action_history":"[0]","mutagen_history":"[1]","location_rts":"[92]","trial_type":"fractal-mutation","trial_index":68,"time_elapsed":3800615,"internal_node_id":"0.0-5.0-29.0"},{"group":"dicyclic group of order 12","fractal_assignment":["../images/grn_blu.png","../images/wht_red.png","../images/org_blu.png","../images/grn_prp.png","../images/gry_blk.png","../images/pnk_blu.png","../images/ylw_pnk.png","../images/grn_red.png","../images/cyn_red.png","../images/ylw_slt.png","../images/red_prp.png","../images/blu_wht.png"],"mutagen_generator_assignment":[1,0],"goal":6,"start":7,"action_noise":0.15,"location_history":"[7,11,3,7,11,4,8,5,10,2,6]","action_history":"[1,1,1,0,1,1,1,0,1,1]","mutagen_history":"[0,0,0,1,0,0,0,1,0,0]","location_rts":"[181,853,60,58,178,1004,401,205,212,1586]","trial_type":"fractal-mutation","trial_index":69,"time_elapsed":3819858,"internal_node_id":"0.0-5.0-30.0"},{"group":"dicyclic group of order 12","fractal_assignment":["../images/grn_blu.png","../images/wht_red.png","../images/org_blu.png","../images/grn_prp.png","../images/gry_blk.png","../images/pnk_blu.png","../images/ylw_pnk.png","../images/grn_red.png","../images/cyn_red.png","../images/ylw_slt.png","../images/red_prp.png","../images/blu_wht.png"],"mutagen_generator_assignment":[1,0],"goal":0,"start":6,"action_noise":0.15,"location_history":"[6,11,4,9,1,5,10,7,8,5,9,6,10,2,3,7,8,0]","action_history":"[0,0,1,1,1,0,0,0,1,1,1,1,0,0,1,0,1]","mutagen_history":"[1,1,0,0,0,1,1,1,0,0,0,0,1,1,0,1,0]","location_rts":"[110,61,20,610,230,364,172,245,294,1057,766,455,1287,2393,1109,55,14]","trial_type":"fractal-mutation","trial_index":70,"time_elapsed":3851532,"internal_node_id":"0.0-5.0-31.0"},{"group":"dicyclic group of order 12","fractal_assignment":["../images/grn_blu.png","../images/wht_red.png","../images/org_blu.png","../images/grn_prp.png","../images/gry_blk.png","../images/pnk_blu.png","../images/ylw_pnk.png","../images/grn_red.png","../images/cyn_red.png","../images/ylw_slt.png","../images/red_prp.png","../images/blu_wht.png"],"mutagen_generator_assignment":[1,0],"goal":11,"start":0,"action_noise":0.15,"location_history":"[0,4,8,0,4,8,0,4,8,5,9,1,5,9,1,5,10,7,8,0,4,9,1,5,9,6,10,7,11]","action_history":"[1,1,1,1,1,1,1,1,1,1,1,1,1,1,1,0,0,0,1,1,1,1,1,1,0,1,1,1]","mutagen_history":"[0,0,0,0,0,0,0,0,0,0,0,0,0,0,0,1,1,1,0,0,0,0,0,0,1,0,0,0]","location_rts":"[231,524,378,310,628,572,127,220,184,97,461,176,291,79,9,61,362,184,470,224,57,55,146,135,9,436,93,65]","trial_type":"fractal-mutation","trial_index":71,"time_elapsed":3892148,"internal_node_id":"0.0-5.0-32.0"},{"group":"dicyclic group of order 12","fractal_assignment":["../images/grn_blu.png","../images/wht_red.png","../images/org_blu.png","../images/grn_prp.png","../images/gry_blk.png","../images/pnk_blu.png","../images/ylw_pnk.png","../images/grn_red.png","../images/cyn_red.png","../images/ylw_slt.png","../images/red_prp.png","../images/blu_wht.png"],"mutagen_generator_assignment":[1,0],"goal":9,"start":11,"action_noise":0.15,"location_history":"[11,4,9]","action_history":"[0,0]","mutagen_history":"[1,1]","location_rts":"[69,109]","trial_type":"fractal-mutation","trial_index":72,"time_elapsed":3898080,"internal_node_id":"0.0-5.0-33.0"},{"group":"dicyclic group of order 12","fractal_assignment":["../images/grn_blu.png","../images/wht_red.png","../images/org_blu.png","../images/grn_prp.png","../images/gry_blk.png","../images/pnk_blu.png","../images/ylw_pnk.png","../images/grn_red.png","../images/cyn_red.png","../images/ylw_slt.png","../images/red_prp.png","../images/blu_wht.png"],"mutagen_generator_assignment":[1,0],"goal":5,"start":9,"action_noise":0.15,"location_history":"[9,6,11,3,7,8,5]","action_history":"[1,1,1,1,1,1]","mutagen_history":"[0,0,0,0,0,0]","location_rts":"[423,314,182,323,46,58]","trial_type":"fractal-mutation","trial_index":73,"time_elapsed":3909412,"internal_node_id":"0.0-5.0-34.0"},{"view_history":"[{\"page_index\":0,\"viewing_time\":3432}]","rt":3432,"trial_type":"instructions","trial_index":74,"time_elapsed":3913849,"internal_node_id":"0.0-6.0"},{"rt":1385,"responses":"{\"Q0\":\"\"}","trial_type":"survey-text","trial_index":75,"time_elapsed":3916242,"internal_node_id":"0.0-7.0"}]