[{"view_history":"[{\"page_index\":0,\"viewing_time\":138680},{\"page_index\":1,\"viewing_time\":13362}]","rt":152043,"trial_type":"instructions","trial_index":0,"time_elapsed":152044,"internal_node_id":"0.0-0.0"},{"view_history":"[{\"page_index\":0,\"viewing_time\":4289},{\"page_index\":1,\"viewing_time\":3978}]","rt":8268,"trial_type":"instructions","trial_index":1,"time_elapsed":161313,"internal_node_id":"0.0-1.0"},{"group":"dihedral group of order 12","room_assignment":["green","ivory","pink","grey","red","brown","blue","olive","orange","purple","yellow","cyan"],"door_color_assignment":["white","black"],"door_generator_assignment":[1,0],"goal":7,"start":11,"action_noise":0.15,"location_history":"[11,10,9,3,4,10,4,5,11,10,9,3,4,5,0,1,2,8,7]","action_history":"[0,0,1,0,0,1,0,0,0,0,1,0,0,0,0,0,0,0]","door_history":"[1,1,0,1,1,0,1,1,1,1,0,1,1,1,1,1,1,1]","location_rts":"[1442,257,41,107,208,32,233,131,56,172,92,56,37,156,38,13,11,265]","trial_type":"two-door-navigation","trial_index":2,"time_elapsed":186270,"internal_node_id":"0.0-2.0-0.0"},{"group":"dihedral group of order 12","room_assignment":["green","ivory","pink","grey","red","brown","blue","olive","orange","purple","yellow","cyan"],"door_color_assignment":["white","black"],"door_generator_assignment":[1,0],"goal":8,"start":7,"action_noise":0.15,"location_history":"[7,6,11,10,9,8]","action_history":"[1,0,0,0,0]","door_history":"[0,1,1,1,1]","location_rts":"[245,326,18,40,405]","trial_type":"two-door-navigation","trial_index":3,"time_elapsed":195829,"internal_node_id":"0.0-2.0-1.0"},{"group":"dihedral group of order 12","room_assignment":["green","ivory","pink","grey","red","brown","blue","olive","orange","purple","yellow","cyan"],"door_color_assignment":["white","black"],"door_generator_assignment":[1,0],"goal":4,"start":8,"action_noise":0.15,"location_history":"[8,2,3,4]","action_history":"[1,0,0]","door_history":"[0,1,1]","location_rts":"[1263,4,54]","trial_type":"two-door-navigation","trial_index":4,"time_elapsed":203670,"internal_node_id":"0.0-2.0-2.0"},{"group":"dihedral group of order 12","room_assignment":["green","ivory","pink","grey","red","brown","blue","olive","orange","purple","yellow","cyan"],"door_color_assignment":["white","black"],"door_generator_assignment":[1,0],"goal":5,"start":4,"action_noise":0.15,"location_history":"[4,10,9,8,7,6,11,10,4,5]","action_history":"[1,0,1,0,0,0,0,1,0]","door_history":"[0,1,0,1,1,1,1,0,1]","location_rts":"[1146,118,40140,323,262,103,2789,135,188]","trial_type":"two-door-navigation","trial_index":5,"time_elapsed":261426,"internal_node_id":"0.0-2.0-3.0"},{"group":"dihedral group of order 12","room_assignment":["green","ivory","pink","grey","red","brown","blue","olive","orange","purple","yellow","cyan"],"door_color_assignment":["white","black"],"door_generator_assignment":[1,0],"goal":10,"start":5,"action_noise":0.15,"location_history":"[5,0,1,2,8,7,6,0,1,2,8,7,6,0,1,2,8,7,6,0,1,2,8,7,6,11,10]","action_history":"[1,0,0,1,0,0,1,0,0,1,0,0,1,0,0,1,0,0,1,0,0,1,0,0,1,0]","door_history":"[0,1,1,0,1,1,0,1,1,0,1,1,0,1,1,0,1,1,0,1,1,0,1,1,0,1]","location_rts":"[1479,59,28,166,171,36,209,159,98,165,141,97,147,28,129,8,88,15,126,124,102,156,109,143,26,51]","trial_type":"two-door-navigation","trial_index":6,"time_elapsed":295127,"internal_node_id":"0.0-2.0-4.0"},{"group":"dihedral group of order 12","room_assignment":["green","ivory","pink","grey","red","brown","blue","olive","orange","purple","yellow","cyan"],"door_color_assignment":["white","black"],"door_generator_assignment":[1,0],"goal":1,"start":10,"action_noise":0.15,"location_history":"[10,9,3,4,5,0,1]","action_history":"[0,1,0,0,0,0]","door_history":"[1,0,1,1,1,1]","location_rts":"[71,42,113,181,179,127]","trial_type":"two-door-navigation","trial_index":7,"time_elapsed":305373,"internal_node_id":"0.0-2.0-5.0"},{"group":"dihedral group of order 12","room_assignment":["green","ivory","pink","grey","red","brown","blue","olive","orange","purple","yellow","cyan"],"door_color_assignment":["white","black"],"door_generator_assignment":[1,0],"goal":6,"start":1,"action_noise":0.15,"location_history":"[1,2,3,4,5,11,5,0,1,2,8,7,6]","action_history":"[1,0,0,0,0,1,0,0,0,0,1,0]","door_history":"[0,1,1,1,1,0,1,1,1,1,0,1]","location_rts":"[420,77,21,40,108,30,23,35,132,67,149,179]","trial_type":"two-door-navigation","trial_index":8,"time_elapsed":322220,"internal_node_id":"0.0-2.0-6.0"},{"group":"dihedral group of order 12","room_assignment":["green","ivory","pink","grey","red","brown","blue","olive","orange","purple","yellow","cyan"],"door_color_assignment":["white","black"],"door_generator_assignment":[1,0],"goal":9,"start":6,"action_noise":0.15,"location_history":"[6,0,1,2,3,4,10,4,10,9]","action_history":"[1,0,0,0,1,0,0,1,0]","door_history":"[0,1,1,1,0,1,1,0,1]","location_rts":"[190,310,29,9,77,100,160,437,13]","trial_type":"two-door-navigation","trial_index":9,"time_elapsed":336103,"internal_node_id":"0.0-2.0-7.0"},{"group":"dihedral group of order 12","room_assignment":["green","ivory","pink","grey","red","brown","blue","olive","orange","purple","yellow","cyan"],"door_color_assignment":["white","black"],"door_generator_assignment":[1,0],"goal":2,"start":9,"action_noise":0.15,"location_history":"[9,8,2]","action_history":"[0,1]","door_history":"[1,0]","location_rts":"[45,118]","trial_type":"two-door-navigation","trial_index":10,"time_elapsed":341777,"internal_node_id":"0.0-2.0-8.0"},{"group":"dihedral group of order 12","room_assignment":["green","ivory","pink","grey","red","brown","blue","olive","orange","purple","yellow","cyan"],"door_color_assignment":["white","black"],"door_generator_assignment":[1,0],"goal":0,"start":2,"action_noise":0.15,"location_history":"[2,8,7,6,0]","action_history":"[1,0,0,1]","door_history":"[0,1,1,0]","location_rts":"[1013,21,164,430]","trial_type":"two-door-navigation","trial_index":11,"time_elapsed":350925,"internal_node_id":"0.0-2.0-9.0"},{"group":"dihedral group of order 12","room_assignment":["green","ivory","pink","grey","red","brown","blue","olive","orange","purple","yellow","cyan"],"door_color_assignment":["white","black"],"door_generator_assignment":[1,0],"goal":3,"start":0,"action_noise":0.15,"location_history":"[0,6,11,10,9,3]","action_history":"[0,1,0,0,1]","door_history":"[1,0,1,1,0]","location_rts":"[8177,136,81,143,116]","trial_type":"two-door-navigation","trial_index":12,"time_elapsed":368099,"internal_node_id":"0.0-2.0-10.0"},{"group":"dihedral group of order 12","room_assignment":["green","ivory","pink","grey","red","brown","blue","olive","orange","purple","yellow","cyan"],"door_color_assignment":["white","black"],"door_generator_assignment":[1,0],"goal":10,"start":3,"action_noise":0.15,"location_history":"[3,9,8,2,3,4,10]","action_history":"[1,0,1,0,0,1]","door_history":"[0,1,0,1,1,0]","location_rts":"[96,86,33,139,2251,2586]","trial_type":"two-door-navigation","trial_index":13,"time_elapsed":382827,"internal_node_id":"0.0-2.0-11.0"},{"group":"dihedral group of order 12","room_assignment":["green","ivory","pink","grey","red","brown","blue","olive","orange","purple","yellow","cyan"],"door_color_assignment":["white","black"],"door_generator_assignment":[1,0],"goal":8,"start":10,"action_noise":0.15,"location_history":"[10,9,3,4,5,0,1,2,3,4,5,0,1,2,3,4,10,9,8]","action_history":"[0,1,0,0,0,0,1,0,0,0,1,0,0,0,0,1,0,0]","door_history":"[1,0,1,1,1,1,0,1,1,1,0,1,1,1,1,0,1,1]","location_rts":"[143,114,90,127,106,142,12,21,126,78,70,208,174,134,123,108,100,83]","trial_type":"two-door-navigation","trial_index":14,"time_elapsed":406375,"internal_node_id":"0.0-2.0-12.0"},{"group":"dihedral group of order 12","room_assignment":["green","ivory","pink","grey","red","brown","blue","olive","orange","purple","yellow","cyan"],"door_color_assignment":["white","black"],"door_generator_assignment":[1,0],"goal":4,"start":8,"action_noise":0.15,"location_history":"[8,2,3,4]","action_history":"[1,0,0]","door_history":"[0,1,1]","location_rts":"[216,27,65]","trial_type":"two-door-navigation","trial_index":15,"time_elapsed":413200,"internal_node_id":"0.0-2.0-13.0"},{"group":"dihedral group of order 12","room_assignment":["green","ivory","pink","grey","red","brown","blue","olive","orange","purple","yellow","cyan"],"door_color_assignment":["white","black"],"door_generator_assignment":[1,0],"goal":0,"start":4,"action_noise":0.15,"location_history":"[4,5,11,10,9,8,2,3,9,3,9,3,4,10,4,10,4,5,11,10,9,3,4,5,11,5,0]","action_history":"[0,1,0,0,0,1,0,0,1,0,1,0,1,0,0,1,0,1,0,0,1,0,0,0,1,0]","door_history":"[1,0,1,1,1,0,1,1,0,1,0,1,0,1,1,0,1,0,1,1,0,1,1,1,0,1]","location_rts":"[232,168,8,157,102,29,124,13,94,3673,41,162,426,59,174,139,44,0,183,1,12,20,45,37,153,6]","trial_type":"two-door-navigation","trial_index":16,"time_elapsed":448943,"internal_node_id":"0.0-2.0-14.0"},{"group":"dihedral group of order 12","room_assignment":["green","ivory","pink","grey","red","brown","blue","olive","orange","purple","yellow","cyan"],"door_color_assignment":["white","black"],"door_generator_assignment":[1,0],"goal":11,"start":0,"action_noise":0.15,"location_history":"[0,6,11]","action_history":"[1,0]","door_history":"[0,1]","location_rts":"[161,130]","trial_type":"two-door-navigation","trial_index":17,"time_elapsed":454750,"internal_node_id":"0.0-2.0-15.0"},{"group":"dihedral group of order 12","room_assignment":["green","ivory","pink","grey","red","brown","blue","olive","orange","purple","yellow","cyan"],"door_color_assignment":["white","black"],"door_generator_assignment":[1,0],"goal":2,"start":11,"action_noise":0.15,"location_history":"[11,5,0,1,7,1,2]","action_history":"[1,0,0,1,0,0]","door_history":"[0,1,1,0,1,1]","location_rts":"[63,185,149,24,176,12]","trial_type":"two-door-navigation","trial_index":18,"time_elapsed":464891,"internal_node_id":"0.0-2.0-16.0"},{"group":"dihedral group of order 12","room_assignment":["green","ivory","pink","grey","red","brown","blue","olive","orange","purple","yellow","cyan"],"door_color_assignment":["white","black"],"door_generator_assignment":[1,0],"goal":7,"start":2,"action_noise":0.15,"location_history":"[2,8,7]","action_history":"[1,0]","door_history":"[0,1]","location_rts":"[428,118]","trial_type":"two-door-navigation","trial_index":19,"time_elapsed":470946,"internal_node_id":"0.0-2.0-17.0"},{"group":"dihedral group of order 12","room_assignment":["green","ivory","pink","grey","red","brown","blue","olive","orange","purple","yellow","cyan"],"door_color_assignment":["white","black"],"door_generator_assignment":[1,0],"goal":5,"start":7,"action_noise":0.15,"location_history":"[7,6,11,5]","action_history":"[0,0,1]","door_history":"[1,1,0]","location_rts":"[41,277,68]","trial_type":"two-door-navigation","trial_index":20,"time_elapsed":477851,"internal_node_id":"0.0-2.0-18.0"},{"group":"dihedral group of order 12","room_assignment":["green","ivory","pink","grey","red","brown","blue","olive","orange","purple","yellow","cyan"],"door_color_assignment":["white","black"],"door_generator_assignment":[1,0],"goal":6,"start":5,"action_noise":0.15,"location_history":"[5,11,10,4,5,0,6]","action_history":"[1,0,1,0,0,1]","door_history":"[0,1,0,1,1,0]","location_rts":"[2272,420,159,731,141,133]","trial_type":"two-door-navigation","trial_index":21,"time_elapsed":491252,"internal_node_id":"0.0-2.0-19.0"},{"group":"dihedral group of order 12","room_assignment":["green","ivory","pink","grey","red","brown","blue","olive","orange","purple","yellow","cyan"],"door_color_assignment":["white","black"],"door_generator_assignment":[1,0],"goal":3,"start":6,"action_noise":0.15,"location_history":"[6,11,5,0,1,7,6,0,1,7,1,2,8,2,3]","action_history":"[0,1,0,0,1,0,1,0,0,1,0,1,1,0]","door_history":"[1,0,1,1,0,1,0,1,1,0,1,0,0,1]","location_rts":"[947,772,593,207,289,164,296,74,299,117,175,103,1,167]","trial_type":"two-door-navigation","trial_index":22,"time_elapsed":513095,"internal_node_id":"0.0-2.0-20.0"},{"group":"dihedral group of order 12","room_assignment":["green","ivory","pink","grey","red","brown","blue","olive","orange","purple","yellow","cyan"],"door_color_assignment":["white","black"],"door_generator_assignment":[1,0],"goal":1,"start":3,"action_noise":0.15,"location_history":"[3,9,3,9,8,2,8,7,1]","action_history":"[0,1,0,0,1,1,0,1]","door_history":"[1,0,1,1,0,0,1,0]","location_rts":"[7123,331,43,536,172,137,3571,165]","trial_type":"two-door-navigation","trial_index":23,"time_elapsed":536715,"internal_node_id":"0.0-2.0-21.0"},{"group":"dihedral group of order 12","room_assignment":["green","ivory","pink","grey","red","brown","blue","olive","orange","purple","yellow","cyan"],"door_color_assignment":["white","black"],"door_generator_assignment":[1,0],"goal":9,"start":1,"action_noise":0.15,"location_history":"[1,7,6,11,5,11,10,9]","action_history":"[1,0,0,1,0,1,0]","door_history":"[0,1,1,0,1,0,1]","location_rts":"[1361,38,196,45,103,160,128]","trial_type":"two-door-navigation","trial_index":24,"time_elapsed":549288,"internal_node_id":"0.0-2.0-22.0"},{"group":"dihedral group of order 12","room_assignment":["green","ivory","pink","grey","red","brown","blue","olive","orange","purple","yellow","cyan"],"door_color_assignment":["white","black"],"door_generator_assignment":[1,0],"goal":3,"start":9,"action_noise":0.15,"location_history":"[9,3]","action_history":"[1]","door_history":"[0]","location_rts":"[28]","trial_type":"two-door-navigation","trial_index":25,"time_elapsed":553826,"internal_node_id":"0.0-2.0-23.0"},{"group":"dihedral group of order 12","room_assignment":["green","ivory","pink","grey","red","brown","blue","olive","orange","purple","yellow","cyan"],"door_color_assignment":["white","black"],"door_generator_assignment":[1,0],"goal":4,"start":3,"action_noise":0.15,"location_history":"[3,4]","action_history":"[0]","door_history":"[1]","location_rts":"[169]","trial_type":"two-door-navigation","trial_index":26,"time_elapsed":558505,"internal_node_id":"0.0-2.0-24.0"},{"group":"dihedral group of order 12","room_assignment":["green","ivory","pink","grey","red","brown","blue","olive","orange","purple","yellow","cyan"],"door_color_assignment":["white","black"],"door_generator_assignment":[1,0],"goal":2,"start":4,"action_noise":0.15,"location_history":"[4,10,9,3,4,10,9,8,7,1,7,1,7,6,11,10,4,10,9,8,2]","action_history":"[1,0,0,1,1,0,0,0,1,1,0,1,0,0,0,1,0,0,0,1]","door_history":"[0,1,1,0,0,1,1,1,0,0,1,0,1,1,1,0,1,1,1,0]","location_rts":"[540,62,151,72,102,43,32,29,179,33,133,410,75,137,107,55,23,180,33,161]","trial_type":"two-door-navigation","trial_index":27,"time_elapsed":584690,"internal_node_id":"0.0-2.0-25.0"},{"group":"dihedral group of order 12","room_assignment":["green","ivory","pink","grey","red","brown","blue","olive","orange","purple","yellow","cyan"],"door_color_assignment":["white","black"],"door_generator_assignment":[1,0],"goal":1,"start":2,"action_noise":0.15,"location_history":"[2,3,9,8,7,6,11,10,4,10,9,3,9,3,9,8,7,6,11,10,4,5,11,10,9,8,7,1]","action_history":"[0,1,0,1,0,0,1,1,0,0,1,1,0,1,0,0,1,0,0,0,1,1,0,0,1,0,1]","door_history":"[1,0,1,0,1,1,0,0,1,1,0,0,1,0,1,1,0,1,1,1,0,0,1,1,0,1,0]","location_rts":"[43,18,60,308,531,178,49,161,136,144,47,54,58,53,88,74,304,143,203,174,154,215,193,16,158,104,334]","trial_type":"two-door-navigation","trial_index":28,"time_elapsed":619342,"internal_node_id":"0.0-2.0-26.0"},{"group":"dihedral group of order 12","room_assignment":["green","ivory","pink","grey","red","brown","blue","olive","orange","purple","yellow","cyan"],"door_color_assignment":["white","black"],"door_generator_assignment":[1,0],"goal":8,"start":1,"action_noise":0.15,"location_history":"[1,7,6,11,5,11,10,4,5,0,6,11,5,11,10,4,5,0,6,11,10,9,3,9,8]","action_history":"[1,0,0,1,1,0,0,1,0,1,1,0,0,1,1,0,0,0,1,0,0,1,1,1]","door_history":"[0,1,1,0,0,1,1,0,1,0,0,1,1,0,0,1,1,1,0,1,1,0,0,0]","location_rts":"[1138,81,1,160,151,23,165,179,377,172,166,187,26,422,151,157,158,35,25,21,123,97,138,47]","trial_type":"two-door-navigation","trial_index":29,"time_elapsed":651177,"internal_node_id":"0.0-2.0-27.0"},{"group":"dihedral group of order 12","room_assignment":["green","ivory","pink","grey","red","brown","blue","olive","orange","purple","yellow","cyan"],"door_color_assignment":["white","black"],"door_generator_assignment":[1,0],"goal":10,"start":8,"action_noise":0.15,"location_history":"[8,2,3,9,8,7,1,2,3,9,3,9,8,7,6,0,6,11,10]","action_history":"[1,0,0,0,1,1,0,0,0,1,1,0,0,1,1,1,0,1]","door_history":"[0,1,1,1,0,0,1,1,1,0,0,1,1,0,0,0,1,0]","location_rts":"[247,74,57,128,89,164,171,179,125,60,146,101,38,14,123,2712,2697,151]","trial_type":"two-door-navigation","trial_index":30,"time_elapsed":680056,"internal_node_id":"0.0-2.0-28.0"},{"group":"dihedral group of order 12","room_assignment":["green","ivory","pink","grey","red","brown","blue","olive","orange","purple","yellow","cyan"],"door_color_assignment":["white","black"],"door_generator_assignment":[1,0],"goal":7,"start":10,"action_noise":0.15,"location_history":"[10,4,10,9,8,2,3,9,3,4,10,4,10,9,8,7]","action_history":"[1,0,0,0,1,0,1,1,0,0,1,1,0,0,0]","door_history":"[0,1,1,1,0,1,0,0,1,1,0,0,1,1,1]","location_rts":"[72,86,110,143,80,111,128,31,11,254,35,104,325,265,117]","trial_type":"two-door-navigation","trial_index":31,"time_elapsed":700521,"internal_node_id":"0.0-2.0-29.0"},{"group":"dihedral group of order 12","room_assignment":["green","ivory","pink","grey","red","brown","blue","olive","orange","purple","yellow","cyan"],"door_color_assignment":["white","black"],"door_generator_assignment":[1,0],"goal":6,"start":7,"action_noise":0.15,"location_history":"[7,1,2,8,2,8,7,6]","action_history":"[1,0,1,1,0,0,1]","door_history":"[0,1,0,0,1,1,0]","location_rts":"[81,548,140,6182,44,176,92]","trial_type":"two-door-navigation","trial_index":32,"time_elapsed":718336,"internal_node_id":"0.0-2.0-30.0"},{"group":"dihedral group of order 12","room_assignment":["green","ivory","pink","grey","red","brown","blue","olive","orange","purple","yellow","cyan"],"door_color_assignment":["white","black"],"door_generator_assignment":[1,0],"goal":0,"start":6,"action_noise":0.15,"location_history":"[6,11,5,0]","action_history":"[0,1,1]","door_history":"[1,0,0]","location_rts":"[299,293,78]","trial_type":"two-door-navigation","trial_index":33,"time_elapsed":725526,"internal_node_id":"0.0-2.0-31.0"},{"group":"dihedral group of order 12","room_assignment":["green","ivory","pink","grey","red","brown","blue","olive","orange","purple","yellow","cyan"],"door_color_assignment":["white","black"],"door_generator_assignment":[1,0],"goal":11,"start":0,"action_noise":0.15,"location_history":"[0,1,7,1,7,6,11]","action_history":"[0,0,1,1,0,1]","door_history":"[1,1,0,0,1,0]","location_rts":"[2,132,441,59,74,882]","trial_type":"two-door-navigation","trial_index":34,"time_elapsed":736652,"internal_node_id":"0.0-2.0-32.0"},{"group":"dihedral group of order 12","room_assignment":["green","ivory","pink","grey","red","brown","blue","olive","orange","purple","yellow","cyan"],"door_color_assignment":["white","black"],"door_generator_assignment":[1,0],"goal":9,"start":11,"action_noise":0.15,"location_history":"[11,10,9]","action_history":"[0,1]","door_history":"[1,0]","location_rts":"[307,172]","trial_type":"two-door-navigation","trial_index":35,"time_elapsed":742645,"internal_node_id":"0.0-2.0-33.0"},{"group":"dihedral group of order 12","room_assignment":["green","ivory","pink","grey","red","brown","blue","olive","orange","purple","yellow","cyan"],"door_color_assignment":["white","black"],"door_generator_assignment":[1,0],"goal":5,"start":9,"action_noise":0.15,"location_history":"[9,8,2,8,2,3,9,3,4,10,9,3,4,5]","action_history":"[0,1,1,0,0,1,1,0,0,1,1,0,0]","door_history":"[1,0,0,1,1,0,0,1,1,0,0,1,1]","location_rts":"[216,120,15,120,205,220,111,146,99,69,126,189,150]","trial_type":"two-door-navigation","trial_index":36,"time_elapsed":761002,"internal_node_id":"0.0-2.0-34.0"},{"view_history":"[{\"page_index\":0,\"viewing_time\":1175771}]","rt":1175771,"trial_type":"instructions","trial_index":37,"time_elapsed":1937774,"internal_node_id":"0.0-3.0"},{"view_history":"[{\"page_index\":0,\"viewing_time\":2690},{\"page_index\":1,\"viewing_time\":8262}]","rt":10953,"trial_type":"instructions","trial_index":38,"time_elapsed":1949728,"internal_node_id":"0.0-4.0"},{"group":"dicyclic group of order 12","fractal_assignment":["../images/ylw_pnk.png","../images/grn_red.png","../images/cyn_red.png","../images/grn_blu.png","../images/ylw_slt.png","../images/pnk_blu.png","../images/blu_wht.png","../images/gry_blk.png","../images/org_blu.png","../images/grn_prp.png","../images/wht_red.png","../images/red_prp.png"],"mutagen_generator_assignment":[0,1],"goal":7,"start":11,"action_noise":0.15,"location_history":"[11,3,7]","action_history":"[1,1]","mutagen_history":"[1,1]","location_rts":"[391,99]","trial_type":"fractal-mutation","trial_index":39,"time_elapsed":1955789,"internal_node_id":"0.0-5.0-0.0"},{"group":"dicyclic group of order 12","fractal_assignment":["../images/ylw_pnk.png","../images/grn_red.png","../images/cyn_red.png","../images/grn_blu.png","../images/ylw_slt.png","../images/pnk_blu.png","../images/blu_wht.png","../images/gry_blk.png","../images/org_blu.png","../images/grn_prp.png","../images/wht_red.png","../images/red_prp.png"],"mutagen_generator_assignment":[0,1],"goal":8,"start":7,"action_noise":0.15,"location_history":"[7,11,4,8]","action_history":"[1,0,0]","mutagen_history":"[1,0,0]","location_rts":"[170,20,6]","trial_type":"fractal-mutation","trial_index":40,"time_elapsed":1962545,"internal_node_id":"0.0-5.0-1.0"},{"group":"dicyclic group of order 12","fractal_assignment":["../images/ylw_pnk.png","../images/grn_red.png","../images/cyn_red.png","../images/grn_blu.png","../images/ylw_slt.png","../images/pnk_blu.png","../images/blu_wht.png","../images/gry_blk.png","../images/org_blu.png","../images/grn_prp.png","../images/wht_red.png","../images/red_prp.png"],"mutagen_generator_assignment":[0,1],"goal":4,"start":8,"action_noise":0.15,"location_history":"[8,5,10,7,11,3,0,1,2,3,7,11,4]","action_history":"[0,0,0,1,1,0,0,0,0,0,1,0]","mutagen_history":"[0,0,0,1,1,0,0,0,0,0,1,0]","location_rts":"[205,128,7,30,15,55,54,123,91,109,2810,30]","trial_type":"fractal-mutation","trial_index":41,"time_elapsed":1981954,"internal_node_id":"0.0-5.0-2.0"},{"group":"dicyclic group of order 12","fractal_assignment":["../images/ylw_pnk.png","../images/grn_red.png","../images/cyn_red.png","../images/grn_blu.png","../images/ylw_slt.png","../images/pnk_blu.png","../images/blu_wht.png","../images/gry_blk.png","../images/org_blu.png","../images/grn_prp.png","../images/wht_red.png","../images/red_prp.png"],"mutagen_generator_assignment":[0,1],"goal":5,"start":4,"action_noise":0.15,"location_history":"[4,8,0,4,8,5]","action_history":"[1,0,0,0,0]","mutagen_history":"[1,0,0,0,0]","location_rts":"[26,197,299,61,123]","trial_type":"fractal-mutation","trial_index":42,"time_elapsed":1991263,"internal_node_id":"0.0-5.0-3.0"},{"group":"dicyclic group of order 12","fractal_assignment":["../images/ylw_pnk.png","../images/grn_red.png","../images/cyn_red.png","../images/grn_blu.png","../images/ylw_slt.png","../images/pnk_blu.png","../images/blu_wht.png","../images/gry_blk.png","../images/org_blu.png","../images/grn_prp.png","../images/wht_red.png","../images/red_prp.png"],"mutagen_generator_assignment":[0,1],"goal":10,"start":5,"action_noise":0.15,"location_history":"[5,10]","action_history":"[0]","mutagen_history":"[0]","location_rts":"[8]","trial_type":"fractal-mutation","trial_index":43,"time_elapsed":1995792,"internal_node_id":"0.0-5.0-4.0"},{"group":"dicyclic group of order 12","fractal_assignment":["../images/ylw_pnk.png","../images/grn_red.png","../images/cyn_red.png","../images/grn_blu.png","../images/ylw_slt.png","../images/pnk_blu.png","../images/blu_wht.png","../images/gry_blk.png","../images/org_blu.png","../images/grn_prp.png","../images/wht_red.png","../images/red_prp.png"],"mutagen_generator_assignment":[0,1],"goal":1,"start":10,"action_noise":0.15,"location_history":"[10,7,8,0,4,9,6,10,7,8,0,1]","action_history":"[0,0,1,1,0,0,1,0,1,1,0]","mutagen_history":"[0,0,1,1,0,0,1,0,1,1,0]","location_rts":"[44,131,88,39,44,107,110,148,97,102,30]","trial_type":"fractal-mutation","trial_index":44,"time_elapsed":2011466,"internal_node_id":"0.0-5.0-5.0"},{"group":"dicyclic group of order 12","fractal_assignment":["../images/ylw_pnk.png","../images/grn_red.png","../images/cyn_red.png","../images/grn_blu.png","../images/ylw_slt.png","../images/pnk_blu.png","../images/blu_wht.png","../images/gry_blk.png","../images/org_blu.png","../images/grn_prp.png","../images/wht_red.png","../images/red_prp.png"],"mutagen_generator_assignment":[0,1],"goal":6,"start":1,"action_noise":0.15,"location_history":"[1,2,6]","action_history":"[0,0]","mutagen_history":"[0,0]","location_rts":"[81,44]","trial_type":"fractal-mutation","trial_index":45,"time_elapsed":2017136,"internal_node_id":"0.0-5.0-6.0"},{"group":"dicyclic group of order 12","fractal_assignment":["../images/ylw_pnk.png","../images/grn_red.png","../images/cyn_red.png","../images/grn_blu.png","../images/ylw_slt.png","../images/pnk_blu.png","../images/blu_wht.png","../images/gry_blk.png","../images/org_blu.png","../images/grn_prp.png","../images/wht_red.png","../images/red_prp.png"],"mutagen_generator_assignment":[0,1],"goal":9,"start":6,"action_noise":0.15,"location_history":"[6,11,4,8,0,1,5,9]","action_history":"[0,0,0,1,0,1,0]","mutagen_history":"[0,0,0,1,0,1,0]","location_rts":"[116,12,78,70,90,58,208]","trial_type":"fractal-mutation","trial_index":46,"time_elapsed":2028404,"internal_node_id":"0.0-5.0-7.0"},{"group":"dicyclic group of order 12","fractal_assignment":["../images/ylw_pnk.png","../images/grn_red.png","../images/cyn_red.png","../images/grn_blu.png","../images/ylw_slt.png","../images/pnk_blu.png","../images/blu_wht.png","../images/gry_blk.png","../images/org_blu.png","../images/grn_prp.png","../images/wht_red.png","../images/red_prp.png"],"mutagen_generator_assignment":[0,1],"goal":2,"start":9,"action_noise":0.15,"location_history":"[9,1,5,9,1,5,10,7,11,3,7,11,3,0,4,8,0,4,9,6,10,7,11,3,7,8,5,9,1,2]","action_history":"[1,1,1,1,1,0,0,1,1,0,1,0,0,1,0,1,1,1,0,1,0,1,1,0,0,0,1,0,0]","mutagen_history":"[1,1,1,1,1,0,0,1,1,0,1,0,0,1,0,1,1,1,0,1,0,1,1,0,0,0,1,0,0]","location_rts":"[328,22,53,142,3404,161,61,37,229,6,48,47,120,49,68,47,2734,4785,134,45,31,5,74,23,19,221,77,175,25]","trial_type":"fractal-mutation","trial_index":47,"time_elapsed":2074651,"internal_node_id":"0.0-5.0-8.0"},{"group":"dicyclic group of order 12","fractal_assignment":["../images/ylw_pnk.png","../images/grn_red.png","../images/cyn_red.png","../images/grn_blu.png","../images/ylw_slt.png","../images/pnk_blu.png","../images/blu_wht.png","../images/gry_blk.png","../images/org_blu.png","../images/grn_prp.png","../images/wht_red.png","../images/red_prp.png"],"mutagen_generator_assignment":[0,1],"goal":0,"start":2,"action_noise":0.15,"location_history":"[2,3,7,11,3,7,8,5,10,2,6,11,4,9,6,11,4,8,0]","action_history":"[0,1,1,1,1,0,1,0,1,1,0,0,0,0,0,0,1,1]","mutagen_history":"[0,1,1,1,1,0,1,0,1,1,0,0,0,0,0,0,1,1]","location_rts":"[28,3,214,76,42,290,640,149,154,62,38,235,192,12,191,181,12,349]","trial_type":"fractal-mutation","trial_index":48,"time_elapsed":2099369,"internal_node_id":"0.0-5.0-9.0"},{"group":"dicyclic group of order 12","fractal_assignment":["../images/ylw_pnk.png","../images/grn_red.png","../images/cyn_red.png","../images/grn_blu.png","../images/ylw_slt.png","../images/pnk_blu.png","../images/blu_wht.png","../images/gry_blk.png","../images/org_blu.png","../images/grn_prp.png","../images/wht_red.png","../images/red_prp.png"],"mutagen_generator_assignment":[0,1],"goal":3,"start":0,"action_noise":0.15,"location_history":"[0,1,5,10,7,8,5,10,2,3]","action_history":"[1,1,0,0,0,0,1,1,0]","mutagen_history":"[1,1,0,0,0,0,1,1,0]","location_rts":"[183,241,251,41,1264,201,196,227,273]","trial_type":"fractal-mutation","trial_index":49,"time_elapsed":2114927,"internal_node_id":"0.0-5.0-10.0"},{"group":"dicyclic group of order 12","fractal_assignment":["../images/ylw_pnk.png","../images/grn_red.png","../images/cyn_red.png","../images/grn_blu.png","../images/ylw_slt.png","../images/pnk_blu.png","../images/blu_wht.png","../images/gry_blk.png","../images/org_blu.png","../images/grn_prp.png","../images/wht_red.png","../images/red_prp.png"],"mutagen_generator_assignment":[0,1],"goal":10,"start":3,"action_noise":0.15,"location_history":"[3,7,11,4,9,1,2,6,10]","action_history":"[1,1,0,0,1,0,0,1]","mutagen_history":"[1,1,0,0,1,0,0,1]","location_rts":"[467,26,181,88,106,237,42,10]","trial_type":"fractal-mutation","trial_index":50,"time_elapsed":2127740,"internal_node_id":"0.0-5.0-11.0"},{"group":"dicyclic group of order 12","fractal_assignment":["../images/ylw_pnk.png","../images/grn_red.png","../images/cyn_red.png","../images/grn_blu.png","../images/ylw_slt.png","../images/pnk_blu.png","../images/blu_wht.png","../images/gry_blk.png","../images/org_blu.png","../images/grn_prp.png","../images/wht_red.png","../images/red_prp.png"],"mutagen_generator_assignment":[0,1],"goal":8,"start":10,"action_noise":0.15,"location_history":"[10,2,6,11,3,7,8]","action_history":"[1,1,0,1,1,0]","mutagen_history":"[1,1,0,1,1,0]","location_rts":"[4,96,111,90,79,62]","trial_type":"fractal-mutation","trial_index":51,"time_elapsed":2137808,"internal_node_id":"0.0-5.0-12.0"},{"group":"dicyclic group of order 12","fractal_assignment":["../images/ylw_pnk.png","../images/grn_red.png","../images/cyn_red.png","../images/grn_blu.png","../images/ylw_slt.png","../images/pnk_blu.png","../images/blu_wht.png","../images/gry_blk.png","../images/org_blu.png","../images/grn_prp.png","../images/wht_red.png","../images/red_prp.png"],"mutagen_generator_assignment":[0,1],"goal":4,"start":8,"action_noise":0.15,"location_history":"[8,0,1,2,3,0,4]","action_history":"[1,0,1,0,1,1]","mutagen_history":"[1,0,1,0,1,1]","location_rts":"[90,1217,2353,30,198,135]","trial_type":"fractal-mutation","trial_index":52,"time_elapsed":2151450,"internal_node_id":"0.0-5.0-13.0"},{"group":"dicyclic group of order 12","fractal_assignment":["../images/ylw_pnk.png","../images/grn_red.png","../images/cyn_red.png","../images/grn_blu.png","../images/ylw_slt.png","../images/pnk_blu.png","../images/blu_wht.png","../images/gry_blk.png","../images/org_blu.png","../images/grn_prp.png","../images/wht_red.png","../images/red_prp.png"],"mutagen_generator_assignment":[0,1],"goal":0,"start":4,"action_noise":0.15,"location_history":"[4,8,0]","action_history":"[0,0]","mutagen_history":"[0,0]","location_rts":"[111,1010]","trial_type":"fractal-mutation","trial_index":53,"time_elapsed":2158111,"internal_node_id":"0.0-5.0-14.0"},{"group":"dicyclic group of order 12","fractal_assignment":["../images/ylw_pnk.png","../images/grn_red.png","../images/cyn_red.png","../images/grn_blu.png","../images/ylw_slt.png","../images/pnk_blu.png","../images/blu_wht.png","../images/gry_blk.png","../images/org_blu.png","../images/grn_prp.png","../images/wht_red.png","../images/red_prp.png"],"mutagen_generator_assignment":[0,1],"goal":11,"start":0,"action_noise":0.15,"location_history":"[0,1,5,10,2,3,0,1,5,10,2,3,0,4,9,1,2,6,11]","action_history":"[1,1,0,1,0,0,0,1,0,0,0,0,1,1,1,0,0,0]","mutagen_history":"[1,1,0,1,0,0,0,1,0,0,0,0,1,1,1,0,0,0]","location_rts":"[46,49,2,12,165,226,110,141,7,8,1286,37,216,102,63,127,1331,1645]","trial_type":"fractal-mutation","trial_index":54,"time_elapsed":2185535,"internal_node_id":"0.0-5.0-15.0"},{"group":"dicyclic group of order 12","fractal_assignment":["../images/ylw_pnk.png","../images/grn_red.png","../images/cyn_red.png","../images/grn_blu.png","../images/ylw_slt.png","../images/pnk_blu.png","../images/blu_wht.png","../images/gry_blk.png","../images/org_blu.png","../images/grn_prp.png","../images/wht_red.png","../images/red_prp.png"],"mutagen_generator_assignment":[0,1],"goal":2,"start":11,"action_noise":0.15,"location_history":"[11,4,9,6,10,2]","action_history":"[1,0,0,1,1]","mutagen_history":"[1,0,0,1,1]","location_rts":"[156,20,177,26,767]","trial_type":"fractal-mutation","trial_index":55,"time_elapsed":2195281,"internal_node_id":"0.0-5.0-16.0"},{"group":"dicyclic group of order 12","fractal_assignment":["../images/ylw_pnk.png","../images/grn_red.png","../images/cyn_red.png","../images/grn_blu.png","../images/ylw_slt.png","../images/pnk_blu.png","../images/blu_wht.png","../images/gry_blk.png","../images/org_blu.png","../images/grn_prp.png","../images/wht_red.png","../images/red_prp.png"],"mutagen_generator_assignment":[0,1],"goal":7,"start":2,"action_noise":0.15,"location_history":"[2,3,0,4,8,0,1,5,9,6,10,7]","action_history":"[0,0,1,0,1,0,1,0,0,1,1]","mutagen_history":"[0,0,1,0,1,0,1,0,0,1,1]","location_rts":"[158,1399,41,7,12,130,729,109,113,75,143]","trial_type":"fractal-mutation","trial_index":56,"time_elapsed":2212907,"internal_node_id":"0.0-5.0-17.0"},{"group":"dicyclic group of order 12","fractal_assignment":["../images/ylw_pnk.png","../images/grn_red.png","../images/cyn_red.png","../images/grn_blu.png","../images/ylw_slt.png","../images/pnk_blu.png","../images/blu_wht.png","../images/gry_blk.png","../images/org_blu.png","../images/grn_prp.png","../images/wht_red.png","../images/red_prp.png"],"mutagen_generator_assignment":[0,1],"goal":5,"start":7,"action_noise":0.15,"location_history":"[7,11,4,9,6,11,3,0,4,9,1,5]","action_history":"[1,0,0,0,0,1,0,1,1,1,1]","mutagen_history":"[1,0,0,0,0,1,0,1,1,1,1]","location_rts":"[3,633,166,239,236,227,153,2574,2475,123,19]","trial_type":"fractal-mutation","trial_index":57,"time_elapsed":2234469,"internal_node_id":"0.0-5.0-18.0"},{"group":"dicyclic group of order 12","fractal_assignment":["../images/ylw_pnk.png","../images/grn_red.png","../images/cyn_red.png","../images/grn_blu.png","../images/ylw_slt.png","../images/pnk_blu.png","../images/blu_wht.png","../images/gry_blk.png","../images/org_blu.png","../images/grn_prp.png","../images/wht_red.png","../images/red_prp.png"],"mutagen_generator_assignment":[0,1],"goal":6,"start":5,"action_noise":0.15,"location_history":"[5,10,2,6]","action_history":"[0,1,1]","mutagen_history":"[0,1,1]","location_rts":"[291,17,45]","trial_type":"fractal-mutation","trial_index":58,"time_elapsed":2241385,"internal_node_id":"0.0-5.0-19.0"},{"group":"dicyclic group of order 12","fractal_assignment":["../images/ylw_pnk.png","../images/grn_red.png","../images/cyn_red.png","../images/grn_blu.png","../images/ylw_slt.png","../images/pnk_blu.png","../images/blu_wht.png","../images/gry_blk.png","../images/org_blu.png","../images/grn_prp.png","../images/wht_red.png","../images/red_prp.png"],"mutagen_generator_assignment":[0,1],"goal":3,"start":6,"action_noise":0.15,"location_history":"[6,10,2,3]","action_history":"[1,1,1]","mutagen_history":"[1,1,1]","location_rts":"[222,153,109]","trial_type":"fractal-mutation","trial_index":59,"time_elapsed":2248433,"internal_node_id":"0.0-5.0-20.0"},{"group":"dicyclic group of order 12","fractal_assignment":["../images/ylw_pnk.png","../images/grn_red.png","../images/cyn_red.png","../images/grn_blu.png","../images/ylw_slt.png","../images/pnk_blu.png","../images/blu_wht.png","../images/gry_blk.png","../images/org_blu.png","../images/grn_prp.png","../images/wht_red.png","../images/red_prp.png"],"mutagen_generator_assignment":[0,1],"goal":1,"start":3,"action_noise":0.15,"location_history":"[3,7,8,5,10,2,6,10,2,6,10,7,8,5,10,2,6,10,2,3,0,1]","action_history":"[0,1,0,1,1,1,1,1,1,1,1,1,0,0,1,1,1,1,0,0,0]","mutagen_history":"[0,1,0,1,1,1,1,1,1,1,1,1,0,0,1,1,1,1,0,0,0]","location_rts":"[74,106,165,83,199,21,172,840,1003,163,108,166,52,18,155,89,85,113,180,139,124]","trial_type":"fractal-mutation","trial_index":60,"time_elapsed":2277412,"internal_node_id":"0.0-5.0-21.0"},{"group":"dicyclic group of order 12","fractal_assignment":["../images/ylw_pnk.png","../images/grn_red.png","../images/cyn_red.png","../images/grn_blu.png","../images/ylw_slt.png","../images/pnk_blu.png","../images/blu_wht.png","../images/gry_blk.png","../images/org_blu.png","../images/grn_prp.png","../images/wht_red.png","../images/red_prp.png"],"mutagen_generator_assignment":[0,1],"goal":9,"start":1,"action_noise":0.15,"location_history":"[1,2,6,10,2,3,0,4,8,5,9]","action_history":"[0,1,1,0,0,1,1,0,0,1]","mutagen_history":"[0,1,1,0,0,1,1,0,0,1]","location_rts":"[183,62,104,249,180,186,161,1101,224,102]","trial_type":"fractal-mutation","trial_index":61,"time_elapsed":2293663,"internal_node_id":"0.0-5.0-22.0"},{"group":"dicyclic group of order 12","fractal_assignment":["../images/ylw_pnk.png","../images/grn_red.png","../images/cyn_red.png","../images/grn_blu.png","../images/ylw_slt.png","../images/pnk_blu.png","../images/blu_wht.png","../images/gry_blk.png","../images/org_blu.png","../images/grn_prp.png","../images/wht_red.png","../images/red_prp.png"],"mutagen_generator_assignment":[0,1],"goal":3,"start":9,"action_noise":0.15,"location_history":"[9,1,5,10,7,8,0,1,5,10,7,11,4,8,0,4,8,5,9,6,11,3]","action_history":"[1,1,0,0,0,1,0,1,0,0,1,0,1,1,1,1,0,0,0,1,0]","mutagen_history":"[1,1,0,0,0,1,0,1,0,0,1,0,1,1,1,1,0,0,0,1,0]","location_rts":"[171,118,237,270,228,95,2,21,144,146,250,90,113,75,122,161,73,18,46,158,208]","trial_type":"fractal-mutation","trial_index":62,"time_elapsed":2321329,"internal_node_id":"0.0-5.0-23.0"},{"group":"dicyclic group of order 12","fractal_assignment":["../images/ylw_pnk.png","../images/grn_red.png","../images/cyn_red.png","../images/grn_blu.png","../images/ylw_slt.png","../images/pnk_blu.png","../images/blu_wht.png","../images/gry_blk.png","../images/org_blu.png","../images/grn_prp.png","../images/wht_red.png","../images/red_prp.png"],"mutagen_generator_assignment":[0,1],"goal":4,"start":3,"action_noise":0.15,"location_history":"[3,0,1,5,9,6,10,7,11,3,0,4]","action_history":"[0,0,1,1,0,1,0,1,1,0,0]","mutagen_history":"[0,0,1,1,0,1,0,1,1,0,0]","location_rts":"[98,61,293,154,107,218,582,195,35,74,70]","trial_type":"fractal-mutation","trial_index":63,"time_elapsed":2337948,"internal_node_id":"0.0-5.0-24.0"},{"group":"dicyclic group of order 12","fractal_assignment":["../images/ylw_pnk.png","../images/grn_red.png","../images/cyn_red.png","../images/grn_blu.png","../images/ylw_slt.png","../images/pnk_blu.png","../images/blu_wht.png","../images/gry_blk.png","../images/org_blu.png","../images/grn_prp.png","../images/wht_red.png","../images/red_prp.png"],"mutagen_generator_assignment":[0,1],"goal":2,"start":4,"action_noise":0.15,"location_history":"[4,9,6,10,2]","action_history":"[0,0,1,1]","mutagen_history":"[0,0,1,1]","location_rts":"[306,248,462,256]","trial_type":"fractal-mutation","trial_index":64,"time_elapsed":2346799,"internal_node_id":"0.0-5.0-25.0"},{"group":"dicyclic group of order 12","fractal_assignment":["../images/ylw_pnk.png","../images/grn_red.png","../images/cyn_red.png","../images/grn_blu.png","../images/ylw_slt.png","../images/pnk_blu.png","../images/blu_wht.png","../images/gry_blk.png","../images/org_blu.png","../images/grn_prp.png","../images/wht_red.png","../images/red_prp.png"],"mutagen_generator_assignment":[0,1],"goal":1,"start":2,"action_noise":0.15,"location_history":"[2,6,10,2,3,7,8,0,1]","action_history":"[1,1,1,0,1,0,1,1]","mutagen_history":"[1,1,1,0,1,0,1,1]","location_rts":"[28,9,63,214,136,55,180,193]","trial_type":"fractal-mutation","trial_index":65,"time_elapsed":2359331,"internal_node_id":"0.0-5.0-26.0"},{"group":"dicyclic group of order 12","fractal_assignment":["../images/ylw_pnk.png","../images/grn_red.png","../images/cyn_red.png","../images/grn_blu.png","../images/ylw_slt.png","../images/pnk_blu.png","../images/blu_wht.png","../images/gry_blk.png","../images/org_blu.png","../images/grn_prp.png","../images/wht_red.png","../images/red_prp.png"],"mutagen_generator_assignment":[0,1],"goal":8,"start":1,"action_noise":0.15,"location_history":"[1,5,10,7,11,4,9,1,5,10,2,3,7,11,4,9,1,5,10,7,11,3,7,8]","action_history":"[1,0,0,1,0,0,1,1,0,1,0,1,1,0,0,1,1,0,0,1,1,0,0]","mutagen_history":"[1,0,0,1,0,0,1,1,0,1,0,1,1,0,0,1,1,0,0,1,1,0,0]","location_rts":"[27,16,214,239,269,209,256,140,85,64,291,72,61,71,88,116,42,110,85,158,55,151,98]","trial_type":"fractal-mutation","trial_index":66,"time_elapsed":2389206,"internal_node_id":"0.0-5.0-27.0"},{"group":"dicyclic group of order 12","fractal_assignment":["../images/ylw_pnk.png","../images/grn_red.png","../images/cyn_red.png","../images/grn_blu.png","../images/ylw_slt.png","../images/pnk_blu.png","../images/blu_wht.png","../images/gry_blk.png","../images/org_blu.png","../images/grn_prp.png","../images/wht_red.png","../images/red_prp.png"],"mutagen_generator_assignment":[0,1],"goal":10,"start":8,"action_noise":0.15,"location_history":"[8,5,9,6,10]","action_history":"[0,1,0,1]","mutagen_history":"[0,1,0,1]","location_rts":"[39,241,9,322]","trial_type":"fractal-mutation","trial_index":67,"time_elapsed":2397398,"internal_node_id":"0.0-5.0-28.0"},{"group":"dicyclic group of order 12","fractal_assignment":["../images/ylw_pnk.png","../images/grn_red.png","../images/cyn_red.png","../images/grn_blu.png","../images/ylw_slt.png","../images/pnk_blu.png","../images/blu_wht.png","../images/gry_blk.png","../images/org_blu.png","../images/grn_prp.png","../images/wht_red.png","../images/red_prp.png"],"mutagen_generator_assignment":[0,1],"goal":7,"start":10,"action_noise":0.15,"location_history":"[10,7]","action_history":"[0]","mutagen_history":"[0]","location_rts":"[385]","trial_type":"fractal-mutation","trial_index":68,"time_elapsed":2402304,"internal_node_id":"0.0-5.0-29.0"},{"group":"dicyclic group of order 12","fractal_assignment":["../images/ylw_pnk.png","../images/grn_red.png","../images/cyn_red.png","../images/grn_blu.png","../images/ylw_slt.png","../images/pnk_blu.png","../images/blu_wht.png","../images/gry_blk.png","../images/org_blu.png","../images/grn_prp.png","../images/wht_red.png","../images/red_prp.png"],"mutagen_generator_assignment":[0,1],"goal":6,"start":7,"action_noise":0.15,"location_history":"[7,11,4,9,6]","action_history":"[1,0,1,0]","mutagen_history":"[1,0,1,0]","location_rts":"[144,169,52,202]","trial_type":"fractal-mutation","trial_index":69,"time_elapsed":2410451,"internal_node_id":"0.0-5.0-30.0"},{"group":"dicyclic group of order 12","fractal_assignment":["../images/ylw_pnk.png","../images/grn_red.png","../images/cyn_red.png","../images/grn_blu.png","../images/ylw_slt.png","../images/pnk_blu.png","../images/blu_wht.png","../images/gry_blk.png","../images/org_blu.png","../images/grn_prp.png","../images/wht_red.png","../images/red_prp.png"],"mutagen_generator_assignment":[0,1],"goal":0,"start":6,"action_noise":0.15,"location_history":"[6,10,7,8,5,10,2,3,0]","action_history":"[1,0,0,1,0,1,0,0]","mutagen_history":"[1,0,0,1,0,1,0,0]","location_rts":"[76,159,226,108,207,183,220,181]","trial_type":"fractal-mutation","trial_index":70,"time_elapsed":2423481,"internal_node_id":"0.0-5.0-31.0"},{"group":"dicyclic group of order 12","fractal_assignment":["../images/ylw_pnk.png","../images/grn_red.png","../images/cyn_red.png","../images/grn_blu.png","../images/ylw_slt.png","../images/pnk_blu.png","../images/blu_wht.png","../images/gry_blk.png","../images/org_blu.png","../images/grn_prp.png","../images/wht_red.png","../images/red_prp.png"],"mutagen_generator_assignment":[0,1],"goal":11,"start":0,"action_noise":0.15,"location_history":"[0,4,8,5,9,6,10,2,3,0,4,9,6,10,7,8,0,1,2,6,11]","action_history":"[1,1,0,1,0,1,1,0,0,0,0,1,1,0,0,1,0,0,0,0]","mutagen_history":"[1,1,0,1,0,1,1,0,0,0,0,1,1,0,0,1,0,0,0,0]","location_rts":"[74,55,223,3,78,51,215,184,15,133,133,118,213,480,227,256,40,287,149,332]","trial_type":"fractal-mutation","trial_index":71,"time_elapsed":2450662,"internal_node_id":"0.0-5.0-32.0"},{"group":"dicyclic group of order 12","fractal_assignment":["../images/ylw_pnk.png","../images/grn_red.png","../images/cyn_red.png","../images/grn_blu.png","../images/ylw_slt.png","../images/pnk_blu.png","../images/blu_wht.png","../images/gry_blk.png","../images/org_blu.png","../images/grn_prp.png","../images/wht_red.png","../images/red_prp.png"],"mutagen_generator_assignment":[0,1],"goal":9,"start":11,"action_noise":0.15,"location_history":"[11,3,0,4,9]","action_history":"[1,0,1,1]","mutagen_history":"[1,0,1,1]","location_rts":"[10,277,3004,96]","trial_type":"fractal-mutation","trial_index":72,"time_elapsed":2461633,"internal_node_id":"0.0-5.0-33.0"},{"group":"dicyclic group of order 12","fractal_assignment":["../images/ylw_pnk.png","../images/grn_red.png","../images/cyn_red.png","../images/grn_blu.png","../images/ylw_slt.png","../images/pnk_blu.png","../images/blu_wht.png","../images/gry_blk.png","../images/org_blu.png","../images/grn_prp.png","../images/wht_red.png","../images/red_prp.png"],"mutagen_generator_assignment":[0,1],"goal":5,"start":9,"action_noise":0.15,"location_history":"[9,1,2,6,10,7,11,4,8,5]","action_history":"[1,0,1,1,0,1,0,1,0]","mutagen_history":"[1,0,1,1,0,1,0,1,0]","location_rts":"[172,346,49,132,243,15,90,92,162]","trial_type":"fractal-mutation","trial_index":73,"time_elapsed":2475616,"internal_node_id":"0.0-5.0-34.0"},{"view_history":"[{\"page_index\":0,\"viewing_time\":5442}]","rt":5442,"trial_type":"instructions","trial_index":74,"time_elapsed":2482059,"internal_node_id":"0.0-6.0"},{"rt":2123,"responses":"{\"Q0\":\"\"}","trial_type":"survey-text","trial_index":75,"time_elapsed":2485186,"internal_node_id":"0.0-7.0"}]