[{"view_history":"[{\"page_index\":0,\"viewing_time\":14117},{\"page_index\":1,\"viewing_time\":71084}]","rt":85202,"trial_type":"instructions","trial_index":0,"time_elapsed":85204,"internal_node_id":"0.0-0.0"},{"view_history":"[{\"page_index\":0,\"viewing_time\":79911},{\"page_index\":1,\"viewing_time\":70889}]","rt":150800,"trial_type":"instructions","trial_index":1,"time_elapsed":237004,"internal_node_id":"0.0-1.0"},{"group":"dicyclic group of order 12","room_assignment":["blue","ivory","pink","purple","brown","red","cyan","grey","green","orange","olive","yellow"],"door_color_assignment":["white","black"],"door_generator_assignment":[0,1],"goal":7,"start":11,"action_noise":0.15,"location_history":"[11,4,9,6,11,3,7]","action_history":"[0,0,0,0,1,0]","door_history":"[0,0,0,0,1,0]","location_rts":"[32203,3550,16613,13538,12892,35582]","trial_type":"two-door-navigation","trial_index":2,"time_elapsed":360968,"internal_node_id":"0.0-2.0-0.0"},{"group":"dicyclic group of order 12","room_assignment":["blue","ivory","pink","purple","brown","red","cyan","grey","green","orange","olive","yellow"],"door_color_assignment":["white","black"],"door_generator_assignment":[0,1],"goal":8,"start":7,"action_noise":0.15,"location_history":"[7,8]","action_history":"[0]","door_history":"[0]","location_rts":"[26610]","trial_type":"two-door-navigation","trial_index":3,"time_elapsed":392104,"internal_node_id":"0.0-2.0-1.0"},{"group":"dicyclic group of order 12","room_assignment":["blue","ivory","pink","purple","brown","red","cyan","grey","green","orange","olive","yellow"],"door_color_assignment":["white","black"],"door_generator_assignment":[0,1],"goal":4,"start":8,"action_noise":0.15,"location_history":"[8,5,10,7,11,4]","action_history":"[0,0,0,1,0]","door_history":"[0,0,0,1,0]","location_rts":"[8377,34954,17443,4858,4006]","trial_type":"two-door-navigation","trial_index":4,"time_elapsed":470461,"internal_node_id":"0.0-2.0-2.0"},{"group":"dicyclic group of order 12","room_assignment":["blue","ivory","pink","purple","brown","red","cyan","grey","green","orange","olive","yellow"],"door_color_assignment":["white","black"],"door_generator_assignment":[0,1],"goal":5,"start":4,"action_noise":0.15,"location_history":"[4,8,5]","action_history":"[1,0]","door_history":"[1,0]","location_rts":"[3309,5518]","trial_type":"two-door-navigation","trial_index":5,"time_elapsed":484816,"internal_node_id":"0.0-2.0-3.0"},{"group":"dicyclic group of order 12","room_assignment":["blue","ivory","pink","purple","brown","red","cyan","grey","green","orange","olive","yellow"],"door_color_assignment":["white","black"],"door_generator_assignment":[0,1],"goal":10,"start":5,"action_noise":0.15,"location_history":"[5,10]","action_history":"[0]","door_history":"[0]","location_rts":"[3162]","trial_type":"two-door-navigation","trial_index":6,"time_elapsed":492499,"internal_node_id":"0.0-2.0-4.0"},{"group":"dicyclic group of order 12","room_assignment":["blue","ivory","pink","purple","brown","red","cyan","grey","green","orange","olive","yellow"],"door_color_assignment":["white","black"],"door_generator_assignment":[0,1],"goal":1,"start":10,"action_noise":0.15,"location_history":"[10,7,8,0,1]","action_history":"[1,0,1,0]","door_history":"[1,0,1,0]","location_rts":"[2522,10679,2651,6263]","trial_type":"two-door-navigation","trial_index":7,"time_elapsed":522239,"internal_node_id":"0.0-2.0-5.0"},{"group":"dicyclic group of order 12","room_assignment":["blue","ivory","pink","purple","brown","red","cyan","grey","green","orange","olive","yellow"],"door_color_assignment":["white","black"],"door_generator_assignment":[0,1],"goal":6,"start":1,"action_noise":0.15,"location_history":"[1,2,6]","action_history":"[0,0]","door_history":"[0,0]","location_rts":"[14791,14542]","trial_type":"two-door-navigation","trial_index":8,"time_elapsed":557100,"internal_node_id":"0.0-2.0-6.0"},{"group":"dicyclic group of order 12","room_assignment":["blue","ivory","pink","purple","brown","red","cyan","grey","green","orange","olive","yellow"],"door_color_assignment":["white","black"],"door_generator_assignment":[0,1],"goal":9,"start":6,"action_noise":0.15,"location_history":"[6,10,2,3,7,11,3,0,4,9]","action_history":"[1,1,1,1,1,0,0,1,0]","door_history":"[1,1,1,1,1,0,0,1,0]","location_rts":"[1251,4983,6601,5571,67034,8222,8500,6743,5169]","trial_type":"two-door-navigation","trial_index":9,"time_elapsed":683823,"internal_node_id":"0.0-2.0-7.0"},{"group":"dicyclic group of order 12","room_assignment":["blue","ivory","pink","purple","brown","red","cyan","grey","green","orange","olive","yellow"],"door_color_assignment":["white","black"],"door_generator_assignment":[0,1],"goal":2,"start":9,"action_noise":0.15,"location_history":"[9,6,10,7,8,5,9,6,10,2]","action_history":"[0,1,1,0,0,1,1,1,1]","door_history":"[0,1,1,0,0,1,1,1,1]","location_rts":"[74811,4974,2244,18349,70807,3309,40216,19858,4890]","trial_type":"two-door-navigation","trial_index":10,"time_elapsed":936050,"internal_node_id":"0.0-2.0-8.0"},{"group":"dicyclic group of order 12","room_assignment":["blue","ivory","pink","purple","brown","red","cyan","grey","green","orange","olive","yellow"],"door_color_assignment":["white","black"],"door_generator_assignment":[0,1],"goal":0,"start":2,"action_noise":0.15,"location_history":"[2,6,11,4,9,6,11,4,8,0]","action_history":"[1,0,1,1,1,0,0,1,1]","door_history":"[1,0,1,1,1,0,0,1,1]","location_rts":"[23296,12280,999,9899,68849,4693,2195,4202,511]","trial_type":"two-door-navigation","trial_index":11,"time_elapsed":1075759,"internal_node_id":"0.0-2.0-9.0"},{"group":"dicyclic group of order 12","room_assignment":["blue","ivory","pink","purple","brown","red","cyan","grey","green","orange","olive","yellow"],"door_color_assignment":["white","black"],"door_generator_assignment":[0,1],"goal":3,"start":0,"action_noise":0.15,"location_history":"[0,1,5,9,6,11,3]","action_history":"[0,1,1,1,0,1]","door_history":"[0,1,1,1,0,1]","location_rts":"[12090,1927,50474,3104,8505,32966]","trial_type":"two-door-navigation","trial_index":12,"time_elapsed":1194461,"internal_node_id":"0.0-2.0-10.0"},{"group":"dicyclic group of order 12","room_assignment":["blue","ivory","pink","purple","brown","red","cyan","grey","green","orange","olive","yellow"],"door_color_assignment":["white","black"],"door_generator_assignment":[0,1],"goal":10,"start":3,"action_noise":0.15,"location_history":"[3,7,8,5,10]","action_history":"[1,0,0,0]","door_history":"[1,0,0,0]","location_rts":"[3372,7618,4619,1564]","trial_type":"two-door-navigation","trial_index":13,"time_elapsed":1219255,"internal_node_id":"0.0-2.0-11.0"},{"group":"dicyclic group of order 12","room_assignment":["blue","ivory","pink","purple","brown","red","cyan","grey","green","orange","olive","yellow"],"door_color_assignment":["white","black"],"door_generator_assignment":[0,1],"goal":8,"start":10,"action_noise":0.15,"location_history":"[10,7,8]","action_history":"[0,0]","door_history":"[0,0]","location_rts":"[6590,1507]","trial_type":"two-door-navigation","trial_index":14,"time_elapsed":1232884,"internal_node_id":"0.0-2.0-12.0"},{"group":"dicyclic group of order 12","room_assignment":["blue","ivory","pink","purple","brown","red","cyan","grey","green","orange","olive","yellow"],"door_color_assignment":["white","black"],"door_generator_assignment":[0,1],"goal":4,"start":8,"action_noise":0.15,"location_history":"[8,0,4]","action_history":"[1,1]","door_history":"[1,1]","location_rts":"[9770,1290]","trial_type":"two-door-navigation","trial_index":15,"time_elapsed":1249474,"internal_node_id":"0.0-2.0-13.0"},{"group":"dicyclic group of order 12","room_assignment":["blue","ivory","pink","purple","brown","red","cyan","grey","green","orange","olive","yellow"],"door_color_assignment":["white","black"],"door_generator_assignment":[0,1],"goal":0,"start":4,"action_noise":0.15,"location_history":"[4,8,0]","action_history":"[1,1]","door_history":"[1,1]","location_rts":"[10632,1033]","trial_type":"two-door-navigation","trial_index":16,"time_elapsed":1266680,"internal_node_id":"0.0-2.0-14.0"},{"group":"dicyclic group of order 12","room_assignment":["blue","ivory","pink","purple","brown","red","cyan","grey","green","orange","olive","yellow"],"door_color_assignment":["white","black"],"door_generator_assignment":[0,1],"goal":11,"start":0,"action_noise":0.15,"location_history":"[0,1,5,9,1,2,3,0,1,2,6,11]","action_history":"[0,1,1,0,0,0,0,0,0,0,0]","door_history":"[0,1,1,0,0,0,0,0,0,0,0]","location_rts":"[19507,13331,7392,5204,47812,2057,10775,1279,432,1363,1398]","trial_type":"two-door-navigation","trial_index":17,"time_elapsed":1392034,"internal_node_id":"0.0-2.0-15.0"},{"group":"dicyclic group of order 12","room_assignment":["blue","ivory","pink","purple","brown","red","cyan","grey","green","orange","olive","yellow"],"door_color_assignment":["white","black"],"door_generator_assignment":[0,1],"goal":2,"start":11,"action_noise":0.15,"location_history":"[11,4,8,0,1,2]","action_history":"[1,1,0,0,0]","door_history":"[1,1,0,0,0]","location_rts":"[37358,5577,2575,1564,376]","trial_type":"two-door-navigation","trial_index":18,"time_elapsed":1448216,"internal_node_id":"0.0-2.0-16.0"},{"group":"dicyclic group of order 12","room_assignment":["blue","ivory","pink","purple","brown","red","cyan","grey","green","orange","olive","yellow"],"door_color_assignment":["white","black"],"door_generator_assignment":[0,1],"goal":7,"start":2,"action_noise":0.15,"location_history":"[2,6,11,4,9,6,10,7]","action_history":"[1,1,0,0,1,1,0]","door_history":"[1,1,0,0,1,1,0]","location_rts":"[4346,3331,33373,10233,3122,3332,381]","trial_type":"two-door-navigation","trial_index":19,"time_elapsed":1517035,"internal_node_id":"0.0-2.0-17.0"},{"group":"dicyclic group of order 12","room_assignment":["blue","ivory","pink","purple","brown","red","cyan","grey","green","orange","olive","yellow"],"door_color_assignment":["white","black"],"door_generator_assignment":[0,1],"goal":5,"start":7,"action_noise":0.15,"location_history":"[7,8,5]","action_history":"[0,0]","door_history":"[0,0]","location_rts":"[111984,2061]","trial_type":"two-door-navigation","trial_index":20,"time_elapsed":1636610,"internal_node_id":"0.0-2.0-18.0"},{"group":"dicyclic group of order 12","room_assignment":["blue","ivory","pink","purple","brown","red","cyan","grey","green","orange","olive","yellow"],"door_color_assignment":["white","black"],"door_generator_assignment":[0,1],"goal":6,"start":5,"action_noise":0.15,"location_history":"[5,10,7,8,0,4,9,6]","action_history":"[0,0,0,0,1,0,0]","door_history":"[0,0,0,0,1,0,0]","location_rts":"[7246,1745,22248,1542,10984,3120,503]","trial_type":"two-door-navigation","trial_index":21,"time_elapsed":1694638,"internal_node_id":"0.0-2.0-19.0"},{"group":"dicyclic group of order 12","room_assignment":["blue","ivory","pink","purple","brown","red","cyan","grey","green","orange","olive","yellow"],"door_color_assignment":["white","black"],"door_generator_assignment":[0,1],"goal":3,"start":6,"action_noise":0.15,"location_history":"[6,11,4,8,0,1,5,9,6,11,3]","action_history":"[0,0,1,1,0,1,1,1,0,1]","door_history":"[0,0,1,1,0,1,1,1,0,1]","location_rts":"[9162,684,4097,1526,1124,1104,2494,5126,2909,577]","trial_type":"two-door-navigation","trial_index":22,"time_elapsed":1737256,"internal_node_id":"0.0-2.0-20.0"},{"group":"dicyclic group of order 12","room_assignment":["blue","ivory","pink","purple","brown","red","cyan","grey","green","orange","olive","yellow"],"door_color_assignment":["white","black"],"door_generator_assignment":[0,1],"goal":1,"start":3,"action_noise":0.15,"location_history":"[3,7,8,0,1]","action_history":"[1,0,1,0]","door_history":"[1,0,1,0]","location_rts":"[45770,5821,2552,354]","trial_type":"two-door-navigation","trial_index":23,"time_elapsed":1799339,"internal_node_id":"0.0-2.0-21.0"},{"group":"dicyclic group of order 12","room_assignment":["blue","ivory","pink","purple","brown","red","cyan","grey","green","orange","olive","yellow"],"door_color_assignment":["white","black"],"door_generator_assignment":[0,1],"goal":9,"start":1,"action_noise":0.15,"location_history":"[1,5,9]","action_history":"[1,1]","door_history":"[1,1]","location_rts":"[12497,389]","trial_type":"two-door-navigation","trial_index":24,"time_elapsed":1817818,"internal_node_id":"0.0-2.0-22.0"},{"group":"dicyclic group of order 12","room_assignment":["blue","ivory","pink","purple","brown","red","cyan","grey","green","orange","olive","yellow"],"door_color_assignment":["white","black"],"door_generator_assignment":[0,1],"goal":3,"start":9,"action_noise":0.15,"location_history":"[9,1,2,6,11,3]","action_history":"[0,0,1,0,1]","door_history":"[0,0,1,0,1]","location_rts":"[3815,5977,1188,2240,613]","trial_type":"two-door-navigation","trial_index":25,"time_elapsed":1840246,"internal_node_id":"0.0-2.0-23.0"},{"group":"dicyclic group of order 12","room_assignment":["blue","ivory","pink","purple","brown","red","cyan","grey","green","orange","olive","yellow"],"door_color_assignment":["white","black"],"door_generator_assignment":[0,1],"goal":4,"start":3,"action_noise":0.15,"location_history":"[3,7,8,0,4]","action_history":"[0,0,1,1]","door_history":"[0,0,1,1]","location_rts":"[4578,4992,11046,8477]","trial_type":"two-door-navigation","trial_index":26,"time_elapsed":1876948,"internal_node_id":"0.0-2.0-24.0"},{"group":"dicyclic group of order 12","room_assignment":["blue","ivory","pink","purple","brown","red","cyan","grey","green","orange","olive","yellow"],"door_color_assignment":["white","black"],"door_generator_assignment":[0,1],"goal":2,"start":4,"action_noise":0.15,"location_history":"[4,9,6,10,2]","action_history":"[1,0,1,1]","door_history":"[1,0,1,1]","location_rts":"[40686,28502,3619,11547]","trial_type":"two-door-navigation","trial_index":27,"time_elapsed":1968859,"internal_node_id":"0.0-2.0-25.0"},{"group":"dicyclic group of order 12","room_assignment":["blue","ivory","pink","purple","brown","red","cyan","grey","green","orange","olive","yellow"],"door_color_assignment":["white","black"],"door_generator_assignment":[0,1],"goal":1,"start":2,"action_noise":0.15,"location_history":"[2,3,0,1]","action_history":"[0,0,0]","door_history":"[0,0,0]","location_rts":"[4581,2603,870]","trial_type":"two-door-navigation","trial_index":28,"time_elapsed":1983458,"internal_node_id":"0.0-2.0-26.0"},{"group":"dicyclic group of order 12","room_assignment":["blue","ivory","pink","purple","brown","red","cyan","grey","green","orange","olive","yellow"],"door_color_assignment":["white","black"],"door_generator_assignment":[0,1],"goal":8,"start":1,"action_noise":0.15,"location_history":"[1,5,9,6,11,4,8]","action_history":"[1,1,1,0,0,1]","door_history":"[1,1,1,0,0,1]","location_rts":"[8466,841,1639,2531,362,3633]","trial_type":"two-door-navigation","trial_index":29,"time_elapsed":2010531,"internal_node_id":"0.0-2.0-27.0"},{"group":"dicyclic group of order 12","room_assignment":["blue","ivory","pink","purple","brown","red","cyan","grey","green","orange","olive","yellow"],"door_color_assignment":["white","black"],"door_generator_assignment":[0,1],"goal":10,"start":8,"action_noise":0.15,"location_history":"[8,5,10]","action_history":"[0,0]","door_history":"[0,0]","location_rts":"[6217,9511]","trial_type":"two-door-navigation","trial_index":30,"time_elapsed":2031793,"internal_node_id":"0.0-2.0-28.0"},{"group":"dicyclic group of order 12","room_assignment":["blue","ivory","pink","purple","brown","red","cyan","grey","green","orange","olive","yellow"],"door_color_assignment":["white","black"],"door_generator_assignment":[0,1],"goal":7,"start":10,"action_noise":0.15,"location_history":"[10,7]","action_history":"[0]","door_history":"[0]","location_rts":"[37735]","trial_type":"two-door-navigation","trial_index":31,"time_elapsed":2074038,"internal_node_id":"0.0-2.0-29.0"},{"group":"dicyclic group of order 12","room_assignment":["blue","ivory","pink","purple","brown","red","cyan","grey","green","orange","olive","yellow"],"door_color_assignment":["white","black"],"door_generator_assignment":[0,1],"goal":6,"start":7,"action_noise":0.15,"location_history":"[7,11,3,7,8,5,10,2,3,0,1,2,6]","action_history":"[1,1,1,0,0,0,1,0,0,1,0,0]","door_history":"[1,1,1,0,0,0,1,0,0,1,0,0]","location_rts":"[6363,1843,3602,2684,4224,1521,3218,1739,2651,35518,5495,3750]","trial_type":"two-door-navigation","trial_index":32,"time_elapsed":2162403,"internal_node_id":"0.0-2.0-30.0"},{"group":"dicyclic group of order 12","room_assignment":["blue","ivory","pink","purple","brown","red","cyan","grey","green","orange","olive","yellow"],"door_color_assignment":["white","black"],"door_generator_assignment":[0,1],"goal":0,"start":6,"action_noise":0.15,"location_history":"[6,10,2,6,11,3,0]","action_history":"[1,1,1,1,1,0]","door_history":"[1,1,1,1,1,0]","location_rts":"[10229,18786,3407,8961,2630,2569]","trial_type":"two-door-navigation","trial_index":33,"time_elapsed":2218573,"internal_node_id":"0.0-2.0-31.0"},{"group":"dicyclic group of order 12","room_assignment":["blue","ivory","pink","purple","brown","red","cyan","grey","green","orange","olive","yellow"],"door_color_assignment":["white","black"],"door_generator_assignment":[0,1],"goal":11,"start":0,"action_noise":0.15,"location_history":"[0,1,5,9,6,11]","action_history":"[1,1,1,0,0]","door_history":"[1,1,1,0,0]","location_rts":"[6109,3393,850,2471,1546]","trial_type":"two-door-navigation","trial_index":34,"time_elapsed":2241577,"internal_node_id":"0.0-2.0-32.0"},{"group":"dicyclic group of order 12","room_assignment":["blue","ivory","pink","purple","brown","red","cyan","grey","green","orange","olive","yellow"],"door_color_assignment":["white","black"],"door_generator_assignment":[0,1],"goal":9,"start":11,"action_noise":0.15,"location_history":"[11,4,9]","action_history":"[0,0]","door_history":"[0,0]","location_rts":"[33121,1422]","trial_type":"two-door-navigation","trial_index":35,"time_elapsed":2281671,"internal_node_id":"0.0-2.0-33.0"},{"group":"dicyclic group of order 12","room_assignment":["blue","ivory","pink","purple","brown","red","cyan","grey","green","orange","olive","yellow"],"door_color_assignment":["white","black"],"door_generator_assignment":[0,1],"goal":5,"start":9,"action_noise":0.15,"location_history":"[9,6,10,7,8,5]","action_history":"[0,1,0,0,0]","door_history":"[0,1,0,0,0]","location_rts":"[102783,7699,372,3882,432]","trial_type":"two-door-navigation","trial_index":36,"time_elapsed":2405437,"internal_node_id":"0.0-2.0-34.0"},{"view_history":"[{\"page_index\":0,\"viewing_time\":1751}]","rt":1751,"trial_type":"instructions","trial_index":37,"time_elapsed":2408189,"internal_node_id":"0.0-3.0"},{"view_history":"[{\"page_index\":0,\"viewing_time\":1999},{\"page_index\":1,\"viewing_time\":2387}]","rt":4386,"trial_type":"instructions","trial_index":38,"time_elapsed":2413576,"internal_node_id":"0.0-4.0"},{"group":"dicyclic group of order 12","fractal_assignment":["../images/org_blu.png","../images/blu_wht.png","../images/gry_blk.png","../images/ylw_slt.png","../images/grn_red.png","../images/wht_red.png","../images/grn_blu.png","../images/red_prp.png","../images/pnk_blu.png","../images/cyn_red.png","../images/ylw_pnk.png","../images/grn_prp.png"],"mutagen_generator_assignment":[0,1],"goal":7,"start":11,"action_noise":0.15,"location_history":"[11,3,0,4,9,6,10,7]","action_history":"[1,0,0,0,0,1,1]","mutagen_history":"[1,0,0,0,0,1,1]","location_rts":"[3141,384,1040,332,406,406,376]","trial_type":"fractal-mutation","trial_index":39,"time_elapsed":2430496,"internal_node_id":"0.0-5.0-0.0"},{"group":"dicyclic group of order 12","fractal_assignment":["../images/org_blu.png","../images/blu_wht.png","../images/gry_blk.png","../images/ylw_slt.png","../images/grn_red.png","../images/wht_red.png","../images/grn_blu.png","../images/red_prp.png","../images/pnk_blu.png","../images/cyn_red.png","../images/ylw_pnk.png","../images/grn_prp.png"],"mutagen_generator_assignment":[0,1],"goal":8,"start":7,"action_noise":0.15,"location_history":"[7,8]","action_history":"[0]","mutagen_history":"[0]","location_rts":"[1036]","trial_type":"fractal-mutation","trial_index":40,"time_elapsed":2436064,"internal_node_id":"0.0-5.0-1.0"},{"group":"dicyclic group of order 12","fractal_assignment":["../images/org_blu.png","../images/blu_wht.png","../images/gry_blk.png","../images/ylw_slt.png","../images/grn_red.png","../images/wht_red.png","../images/grn_blu.png","../images/red_prp.png","../images/pnk_blu.png","../images/cyn_red.png","../images/ylw_pnk.png","../images/grn_prp.png"],"mutagen_generator_assignment":[0,1],"goal":4,"start":8,"action_noise":0.15,"location_history":"[8,5,10,2,3,7,8,5,10,2,3,0,1,2,3,7,11,4]","action_history":"[0,0,1,0,1,0,0,0,1,0,0,0,1,0,1,1,0]","mutagen_history":"[0,0,1,0,1,0,0,0,1,0,0,0,1,0,1,1,0]","location_rts":"[338,349,215,271,279,29,319,329,259,307,459,405,363,346,236,453,300]","trial_type":"fractal-mutation","trial_index":41,"time_elapsed":2462501,"internal_node_id":"0.0-5.0-2.0"},{"group":"dicyclic group of order 12","fractal_assignment":["../images/org_blu.png","../images/blu_wht.png","../images/gry_blk.png","../images/ylw_slt.png","../images/grn_red.png","../images/wht_red.png","../images/grn_blu.png","../images/red_prp.png","../images/pnk_blu.png","../images/cyn_red.png","../images/ylw_pnk.png","../images/grn_prp.png"],"mutagen_generator_assignment":[0,1],"goal":5,"start":4,"action_noise":0.15,"location_history":"[4,8,5]","action_history":"[1,0]","mutagen_history":"[1,0]","location_rts":"[37510,464]","trial_type":"fractal-mutation","trial_index":42,"time_elapsed":2506108,"internal_node_id":"0.0-5.0-3.0"},{"group":"dicyclic group of order 12","fractal_assignment":["../images/org_blu.png","../images/blu_wht.png","../images/gry_blk.png","../images/ylw_slt.png","../images/grn_red.png","../images/wht_red.png","../images/grn_blu.png","../images/red_prp.png","../images/pnk_blu.png","../images/cyn_red.png","../images/ylw_pnk.png","../images/grn_prp.png"],"mutagen_generator_assignment":[0,1],"goal":10,"start":5,"action_noise":0.15,"location_history":"[5,9,6,11,3,0,4,9,1,2,3,7,11,3,0,1,2,6,11,4,8,5,10]","action_history":"[1,0,0,1,0,1,0,1,1,0,1,1,1,0,0,0,1,0,0,0,1,0]","mutagen_history":"[1,0,0,1,0,1,0,1,1,0,1,1,1,0,0,0,1,0,0,0,1,0]","location_rts":"[1771,363,365,407,699,423,462,335,348,363,423,289,492,324,335,340,356,375,571,750,377,581]","trial_type":"fractal-mutation","trial_index":43,"time_elapsed":2543143,"internal_node_id":"0.0-5.0-4.0"},{"group":"dicyclic group of order 12","fractal_assignment":["../images/org_blu.png","../images/blu_wht.png","../images/gry_blk.png","../images/ylw_slt.png","../images/grn_red.png","../images/wht_red.png","../images/grn_blu.png","../images/red_prp.png","../images/pnk_blu.png","../images/cyn_red.png","../images/ylw_pnk.png","../images/grn_prp.png"],"mutagen_generator_assignment":[0,1],"goal":1,"start":10,"action_noise":0.15,"location_history":"[10,7,8,5,9,6,11,3,0,1]","action_history":"[0,0,0,1,0,0,1,0,0]","mutagen_history":"[0,0,0,1,0,0,1,0,0]","location_rts":"[1500,564,797,463,289,328,507,390,338]","trial_type":"fractal-mutation","trial_index":44,"time_elapsed":2561147,"internal_node_id":"0.0-5.0-5.0"},{"group":"dicyclic group of order 12","fractal_assignment":["../images/org_blu.png","../images/blu_wht.png","../images/gry_blk.png","../images/ylw_slt.png","../images/grn_red.png","../images/wht_red.png","../images/grn_blu.png","../images/red_prp.png","../images/pnk_blu.png","../images/cyn_red.png","../images/ylw_pnk.png","../images/grn_prp.png"],"mutagen_generator_assignment":[0,1],"goal":6,"start":1,"action_noise":0.15,"location_history":"[1,5,9,6]","action_history":"[1,0,0]","mutagen_history":"[1,0,0]","location_rts":"[2195,310,539]","trial_type":"fractal-mutation","trial_index":45,"time_elapsed":2570873,"internal_node_id":"0.0-5.0-6.0"},{"group":"dicyclic group of order 12","fractal_assignment":["../images/org_blu.png","../images/blu_wht.png","../images/gry_blk.png","../images/ylw_slt.png","../images/grn_red.png","../images/wht_red.png","../images/grn_blu.png","../images/red_prp.png","../images/pnk_blu.png","../images/cyn_red.png","../images/ylw_pnk.png","../images/grn_prp.png"],"mutagen_generator_assignment":[0,1],"goal":9,"start":6,"action_noise":0.15,"location_history":"[6,10,7,11,4,9]","action_history":"[1,0,1,0,0]","mutagen_history":"[1,0,1,0,0]","location_rts":"[810,434,641,488,409]","trial_type":"fractal-mutation","trial_index":46,"time_elapsed":2582346,"internal_node_id":"0.0-5.0-7.0"},{"group":"dicyclic group of order 12","fractal_assignment":["../images/org_blu.png","../images/blu_wht.png","../images/gry_blk.png","../images/ylw_slt.png","../images/grn_red.png","../images/wht_red.png","../images/grn_blu.png","../images/red_prp.png","../images/pnk_blu.png","../images/cyn_red.png","../images/ylw_pnk.png","../images/grn_prp.png"],"mutagen_generator_assignment":[0,1],"goal":2,"start":9,"action_noise":0.15,"location_history":"[9,1,5,9,1,2]","action_history":"[1,0,1,0,0]","mutagen_history":"[1,0,1,0,0]","location_rts":"[899,335,415,287,505]","trial_type":"fractal-mutation","trial_index":47,"time_elapsed":2593442,"internal_node_id":"0.0-5.0-8.0"},{"group":"dicyclic group of order 12","fractal_assignment":["../images/org_blu.png","../images/blu_wht.png","../images/gry_blk.png","../images/ylw_slt.png","../images/grn_red.png","../images/wht_red.png","../images/grn_blu.png","../images/red_prp.png","../images/pnk_blu.png","../images/cyn_red.png","../images/ylw_pnk.png","../images/grn_prp.png"],"mutagen_generator_assignment":[0,1],"goal":0,"start":2,"action_noise":0.15,"location_history":"[2,6,11,4,9,1,5,9,6,10,7,11,4,9,6,10,2,6,10,2,6,10,7,11,4,9,1,5,9,6,10,7,8,5,9,6,10,7,8,0]","action_history":"[1,0,0,0,1,1,1,0,1,0,1,0,0,0,1,1,0,1,1,1,1,0,1,1,0,1,1,1,0,1,0,0,0,1,0,1,0,0,1]","mutagen_history":"[1,0,0,0,1,1,1,0,1,0,1,0,0,0,1,1,0,1,1,1,1,0,1,1,0,1,1,1,0,1,0,0,0,1,0,1,0,0,1]","location_rts":"[762,425,305,295,389,503,760,262,260,580,456,342,316,344,337,427,632,501,421,840,525,355,344,654,601,623,592,762,388,406,581,422,835,420,441,513,534,424,367]","trial_type":"fractal-mutation","trial_index":48,"time_elapsed":2656014,"internal_node_id":"0.0-5.0-9.0"},{"group":"dicyclic group of order 12","fractal_assignment":["../images/org_blu.png","../images/blu_wht.png","../images/gry_blk.png","../images/ylw_slt.png","../images/grn_red.png","../images/wht_red.png","../images/grn_blu.png","../images/red_prp.png","../images/pnk_blu.png","../images/cyn_red.png","../images/ylw_pnk.png","../images/grn_prp.png"],"mutagen_generator_assignment":[0,1],"goal":3,"start":0,"action_noise":0.15,"location_history":"[0,4,8,5,9,6,10,2,6,11,4,9,1,2,3]","action_history":"[0,1,0,1,0,1,1,1,0,0,1,0,0,0]","mutagen_history":"[0,1,0,1,0,1,1,1,0,0,1,0,0,0]","location_rts":"[1290,418,548,497,327,529,564,801,449,719,363,384,523,1427]","trial_type":"fractal-mutation","trial_index":49,"time_elapsed":2682797,"internal_node_id":"0.0-5.0-10.0"},{"group":"dicyclic group of order 12","fractal_assignment":["../images/org_blu.png","../images/blu_wht.png","../images/gry_blk.png","../images/ylw_slt.png","../images/grn_red.png","../images/wht_red.png","../images/grn_blu.png","../images/red_prp.png","../images/pnk_blu.png","../images/cyn_red.png","../images/ylw_pnk.png","../images/grn_prp.png"],"mutagen_generator_assignment":[0,1],"goal":10,"start":3,"action_noise":0.15,"location_history":"[3,7,8,5,9,6,10]","action_history":"[1,0,0,1,0,1]","mutagen_history":"[1,0,0,1,0,1]","location_rts":"[652,346,445,511,338,469]","trial_type":"fractal-mutation","trial_index":50,"time_elapsed":2695272,"internal_node_id":"0.0-5.0-11.0"},{"group":"dicyclic group of order 12","fractal_assignment":["../images/org_blu.png","../images/blu_wht.png","../images/gry_blk.png","../images/ylw_slt.png","../images/grn_red.png","../images/wht_red.png","../images/grn_blu.png","../images/red_prp.png","../images/pnk_blu.png","../images/cyn_red.png","../images/ylw_pnk.png","../images/grn_prp.png"],"mutagen_generator_assignment":[0,1],"goal":8,"start":10,"action_noise":0.15,"location_history":"[10,2,3,0,1,5,10,2,3,7,11,3,0,4,9,6,10,7,8]","action_history":"[0,0,1,0,1,0,1,0,1,0,1,0,1,0,0,1,0,0]","mutagen_history":"[0,0,1,0,1,0,1,0,1,0,1,0,1,0,0,1,0,0]","location_rts":"[1446,438,383,424,846,407,438,412,612,665,559,2878,1179,537,574,472,381,533]","trial_type":"fractal-mutation","trial_index":51,"time_elapsed":2730666,"internal_node_id":"0.0-5.0-12.0"},{"group":"dicyclic group of order 12","fractal_assignment":["../images/org_blu.png","../images/blu_wht.png","../images/gry_blk.png","../images/ylw_slt.png","../images/grn_red.png","../images/wht_red.png","../images/grn_blu.png","../images/red_prp.png","../images/pnk_blu.png","../images/cyn_red.png","../images/ylw_pnk.png","../images/grn_prp.png"],"mutagen_generator_assignment":[0,1],"goal":4,"start":8,"action_noise":0.15,"location_history":"[8,5,9,1,2,3,0,1,5,10,7,8,0,1,5,10,2,6,10,7,8,0,1,5,10,2,3,0,4]","action_history":"[0,1,0,0,0,0,0,1,0,0,0,1,0,1,0,1,1,1,0,1,0,0,1,1,1,0,0,0]","mutagen_history":"[0,1,0,0,0,0,0,1,0,0,0,1,0,1,0,1,1,1,0,1,0,0,1,1,1,0,0,0]","location_rts":"[1301,319,576,414,345,545,500,609,420,537,579,416,507,398,359,547,641,553,507,307,521,386,434,504,426,800,340,372]","trial_type":"fractal-mutation","trial_index":52,"time_elapsed":2777218,"internal_node_id":"0.0-5.0-13.0"},{"group":"dicyclic group of order 12","fractal_assignment":["../images/org_blu.png","../images/blu_wht.png","../images/gry_blk.png","../images/ylw_slt.png","../images/grn_red.png","../images/wht_red.png","../images/grn_blu.png","../images/red_prp.png","../images/pnk_blu.png","../images/cyn_red.png","../images/ylw_pnk.png","../images/grn_prp.png"],"mutagen_generator_assignment":[0,1],"goal":0,"start":4,"action_noise":0.15,"location_history":"[4,9,1,5,9,6,10,7,11,4,9,6,11,3,7,8,0]","action_history":"[1,0,1,0,0,1,0,1,0,0,0,1,1,1,0,1]","mutagen_history":"[1,0,1,0,0,1,0,1,0,0,0,1,1,1,0,1]","location_rts":"[609,319,508,465,377,453,841,641,562,641,692,600,639,548,783,686]","trial_type":"fractal-mutation","trial_index":53,"time_elapsed":2806678,"internal_node_id":"0.0-5.0-14.0"},{"group":"dicyclic group of order 12","fractal_assignment":["../images/org_blu.png","../images/blu_wht.png","../images/gry_blk.png","../images/ylw_slt.png","../images/grn_red.png","../images/wht_red.png","../images/grn_blu.png","../images/red_prp.png","../images/pnk_blu.png","../images/cyn_red.png","../images/ylw_pnk.png","../images/grn_prp.png"],"mutagen_generator_assignment":[0,1],"goal":11,"start":0,"action_noise":0.15,"location_history":"[0,4,8,5,9,6,10,7,11]","action_history":"[1,0,0,1,0,1,0,1]","mutagen_history":"[1,0,0,1,0,1,0,1]","location_rts":"[12247,656,470,673,428,388,426,383]","trial_type":"fractal-mutation","trial_index":54,"time_elapsed":2834070,"internal_node_id":"0.0-5.0-15.0"},{"group":"dicyclic group of order 12","fractal_assignment":["../images/org_blu.png","../images/blu_wht.png","../images/gry_blk.png","../images/ylw_slt.png","../images/grn_red.png","../images/wht_red.png","../images/grn_blu.png","../images/red_prp.png","../images/pnk_blu.png","../images/cyn_red.png","../images/ylw_pnk.png","../images/grn_prp.png"],"mutagen_generator_assignment":[0,1],"goal":2,"start":11,"action_noise":0.15,"location_history":"[11,4,9,6,10,7,11,3,0,4,8,5,10,7,8,0,1,2]","action_history":"[1,0,0,1,0,1,0,0,0,1,0,0,0,0,1,0,0]","mutagen_history":"[1,0,0,1,0,1,0,0,0,1,0,0,0,0,1,0,0]","location_rts":"[23860,370,405,419,382,632,351,372,602,360,575,454,315,434,717,326,487]","trial_type":"fractal-mutation","trial_index":55,"time_elapsed":2886231,"internal_node_id":"0.0-5.0-16.0"},{"group":"dicyclic group of order 12","fractal_assignment":["../images/org_blu.png","../images/blu_wht.png","../images/gry_blk.png","../images/ylw_slt.png","../images/grn_red.png","../images/wht_red.png","../images/grn_blu.png","../images/red_prp.png","../images/pnk_blu.png","../images/cyn_red.png","../images/ylw_pnk.png","../images/grn_prp.png"],"mutagen_generator_assignment":[0,1],"goal":7,"start":2,"action_noise":0.15,"location_history":"[2,3,7]","action_history":"[0,1]","mutagen_history":"[0,1]","location_rts":"[412,358]","trial_type":"fractal-mutation","trial_index":56,"time_elapsed":2892650,"internal_node_id":"0.0-5.0-17.0"},{"group":"dicyclic group of order 12","fractal_assignment":["../images/org_blu.png","../images/blu_wht.png","../images/gry_blk.png","../images/ylw_slt.png","../images/grn_red.png","../images/wht_red.png","../images/grn_blu.png","../images/red_prp.png","../images/pnk_blu.png","../images/cyn_red.png","../images/ylw_pnk.png","../images/grn_prp.png"],"mutagen_generator_assignment":[0,1],"goal":5,"start":7,"action_noise":0.15,"location_history":"[7,11,4,8,0,1,2,3,0,1,5]","action_history":"[1,0,1,1,0,0,0,0,0,1]","mutagen_history":"[1,0,1,1,0,0,0,0,0,1]","location_rts":"[458,472,336,368,466,307,300,421,407,414]","trial_type":"fractal-mutation","trial_index":57,"time_elapsed":2910389,"internal_node_id":"0.0-5.0-18.0"},{"group":"dicyclic group of order 12","fractal_assignment":["../images/org_blu.png","../images/blu_wht.png","../images/gry_blk.png","../images/ylw_slt.png","../images/grn_red.png","../images/wht_red.png","../images/grn_blu.png","../images/red_prp.png","../images/pnk_blu.png","../images/cyn_red.png","../images/ylw_pnk.png","../images/grn_prp.png"],"mutagen_generator_assignment":[0,1],"goal":6,"start":5,"action_noise":0.15,"location_history":"[5,9,6]","action_history":"[1,0]","mutagen_history":"[1,0]","location_rts":"[1133,425]","trial_type":"fractal-mutation","trial_index":58,"time_elapsed":2917505,"internal_node_id":"0.0-5.0-19.0"},{"group":"dicyclic group of order 12","fractal_assignment":["../images/org_blu.png","../images/blu_wht.png","../images/gry_blk.png","../images/ylw_slt.png","../images/grn_red.png","../images/wht_red.png","../images/grn_blu.png","../images/red_prp.png","../images/pnk_blu.png","../images/cyn_red.png","../images/ylw_pnk.png","../images/grn_prp.png"],"mutagen_generator_assignment":[0,1],"goal":3,"start":6,"action_noise":0.15,"location_history":"[6,11,4,9,1,2,6,11,4,8,0,4,9,6,10,2,6,11,4,8,0,1,5,10,7,11,3]","action_history":"[0,0,0,1,0,1,0,0,1,0,1,0,0,1,1,1,0,0,1,1,0,0,0,0,1,1]","mutagen_history":"[0,0,0,1,0,1,0,0,1,0,1,0,0,1,1,1,0,0,1,1,0,0,0,0,1,1]","location_rts":"[1841,797,688,402,499,799,4288,318,457,4459,737,643,534,557,515,13064,882,684,304,1036,297,314,419,315,359,617]","trial_type":"fractal-mutation","trial_index":59,"time_elapsed":2983624,"internal_node_id":"0.0-5.0-20.0"},{"group":"dicyclic group of order 12","fractal_assignment":["../images/org_blu.png","../images/blu_wht.png","../images/gry_blk.png","../images/ylw_slt.png","../images/grn_red.png","../images/wht_red.png","../images/grn_blu.png","../images/red_prp.png","../images/pnk_blu.png","../images/cyn_red.png","../images/ylw_pnk.png","../images/grn_prp.png"],"mutagen_generator_assignment":[0,1],"goal":1,"start":3,"action_noise":0.15,"location_history":"[3,7,8,0,4,9,6,10,2,6,10,7,8,0,4,9,6,10,2,3,0,1]","action_history":"[0,0,1,1,0,0,1,1,1,1,0,1,1,1,0,0,1,1,0,0,0]","mutagen_history":"[0,0,1,1,0,0,1,1,1,1,0,1,1,1,0,0,1,1,0,0,0]","location_rts":"[5684,522,716,1927,434,567,785,401,494,513,460,525,779,508,389,508,527,578,860,718,410]","trial_type":"fractal-mutation","trial_index":60,"time_elapsed":3027030,"internal_node_id":"0.0-5.0-21.0"},{"group":"dicyclic group of order 12","fractal_assignment":["../images/org_blu.png","../images/blu_wht.png","../images/gry_blk.png","../images/ylw_slt.png","../images/grn_red.png","../images/wht_red.png","../images/grn_blu.png","../images/red_prp.png","../images/pnk_blu.png","../images/cyn_red.png","../images/ylw_pnk.png","../images/grn_prp.png"],"mutagen_generator_assignment":[0,1],"goal":9,"start":1,"action_noise":0.15,"location_history":"[1,5,10,7,8,0,1,2,3,7,11,4,8,0,4,9]","action_history":"[1,0,0,0,1,0,0,0,1,0,0,0,1,1,0]","mutagen_history":"[1,0,0,0,1,0,0,0,1,0,0,0,1,1,0]","location_rts":"[2419,1758,434,613,442,5331,478,373,436,1014,2857,602,1463,8314,398]","trial_type":"fractal-mutation","trial_index":61,"time_elapsed":3072917,"internal_node_id":"0.0-5.0-22.0"},{"group":"dicyclic group of order 12","fractal_assignment":["../images/org_blu.png","../images/blu_wht.png","../images/gry_blk.png","../images/ylw_slt.png","../images/grn_red.png","../images/wht_red.png","../images/grn_blu.png","../images/red_prp.png","../images/pnk_blu.png","../images/cyn_red.png","../images/ylw_pnk.png","../images/grn_prp.png"],"mutagen_generator_assignment":[0,1],"goal":3,"start":9,"action_noise":0.15,"location_history":"[9,6,10,7,8,0,4,9,6,10,2,6,11,3]","action_history":"[0,1,1,0,1,1,1,0,1,0,0,1,1]","mutagen_history":"[0,1,1,0,1,1,1,0,1,0,0,1,1]","location_rts":"[1405,704,500,4330,972,3630,5040,383,465,474,445,1117,429]","trial_type":"fractal-mutation","trial_index":62,"time_elapsed":3109655,"internal_node_id":"0.0-5.0-23.0"},{"group":"dicyclic group of order 12","fractal_assignment":["../images/org_blu.png","../images/blu_wht.png","../images/gry_blk.png","../images/ylw_slt.png","../images/grn_red.png","../images/wht_red.png","../images/grn_blu.png","../images/red_prp.png","../images/pnk_blu.png","../images/cyn_red.png","../images/ylw_pnk.png","../images/grn_prp.png"],"mutagen_generator_assignment":[0,1],"goal":4,"start":3,"action_noise":0.15,"location_history":"[3,0,1,5,10,2,6,10,2,6,11,3,7,11,4]","action_history":"[0,0,1,0,1,0,1,1,1,0,1,1,1,0]","mutagen_history":"[0,0,1,0,1,0,1,1,1,0,1,1,1,0]","location_rts":"[80023,765,284,351,202,113,516,315,392,364,365,368,464,325]","trial_type":"fractal-mutation","trial_index":63,"time_elapsed":3212605,"internal_node_id":"0.0-5.0-24.0"},{"group":"dicyclic group of order 12","fractal_assignment":["../images/org_blu.png","../images/blu_wht.png","../images/gry_blk.png","../images/ylw_slt.png","../images/grn_red.png","../images/wht_red.png","../images/grn_blu.png","../images/red_prp.png","../images/pnk_blu.png","../images/cyn_red.png","../images/ylw_pnk.png","../images/grn_prp.png"],"mutagen_generator_assignment":[0,1],"goal":2,"start":4,"action_noise":0.15,"location_history":"[4,8,0,4,9,1,2]","action_history":"[1,0,1,1,1,0]","mutagen_history":"[1,0,1,1,1,0]","location_rts":"[788,394,279,390,667,674]","trial_type":"fractal-mutation","trial_index":64,"time_elapsed":3225544,"internal_node_id":"0.0-5.0-25.0"},{"group":"dicyclic group of order 12","fractal_assignment":["../images/org_blu.png","../images/blu_wht.png","../images/gry_blk.png","../images/ylw_slt.png","../images/grn_red.png","../images/wht_red.png","../images/grn_blu.png","../images/red_prp.png","../images/pnk_blu.png","../images/cyn_red.png","../images/ylw_pnk.png","../images/grn_prp.png"],"mutagen_generator_assignment":[0,1],"goal":1,"start":2,"action_noise":0.15,"location_history":"[2,3,7,8,5,10,2,3,0,4,9,6,10,2,3,0,4,9,6,11,4,8,0,1]","action_history":"[1,1,0,0,0,1,0,1,1,1,0,1,1,1,0,1,0,0,1,0,0,1,0]","mutagen_history":"[1,1,0,0,0,1,0,1,1,1,0,1,1,1,0,1,0,0,1,0,0,1,0]","location_rts":"[418,424,322,267,334,391,448,338,385,589,295,339,393,661,412,763,570,303,487,384,413,518,1361]","trial_type":"fractal-mutation","trial_index":65,"time_elapsed":3263740,"internal_node_id":"0.0-5.0-26.0"},{"group":"dicyclic group of order 12","fractal_assignment":["../images/org_blu.png","../images/blu_wht.png","../images/gry_blk.png","../images/ylw_slt.png","../images/grn_red.png","../images/wht_red.png","../images/grn_blu.png","../images/red_prp.png","../images/pnk_blu.png","../images/cyn_red.png","../images/ylw_pnk.png","../images/grn_prp.png"],"mutagen_generator_assignment":[0,1],"goal":8,"start":1,"action_noise":0.15,"location_history":"[1,5,10,2,3,0,4,9,1,5,10,2,6,10,7,8]","action_history":"[1,0,1,0,0,1,1,0,1,0,1,1,1,0,1]","mutagen_history":"[1,0,1,0,0,1,1,0,1,0,1,1,1,0,1]","location_rts":"[94123,241,180,247,249,349,365,288,433,338,368,444,361,432,471]","trial_type":"fractal-mutation","trial_index":66,"time_elapsed":3381645,"internal_node_id":"0.0-5.0-27.0"},{"group":"dicyclic group of order 12","fractal_assignment":["../images/org_blu.png","../images/blu_wht.png","../images/gry_blk.png","../images/ylw_slt.png","../images/grn_red.png","../images/wht_red.png","../images/grn_blu.png","../images/red_prp.png","../images/pnk_blu.png","../images/cyn_red.png","../images/ylw_pnk.png","../images/grn_prp.png"],"mutagen_generator_assignment":[0,1],"goal":10,"start":8,"action_noise":0.15,"location_history":"[8,5,10]","action_history":"[1,0]","mutagen_history":"[1,0]","location_rts":"[990,346]","trial_type":"fractal-mutation","trial_index":67,"time_elapsed":3388596,"internal_node_id":"0.0-5.0-28.0"},{"group":"dicyclic group of order 12","fractal_assignment":["../images/org_blu.png","../images/blu_wht.png","../images/gry_blk.png","../images/ylw_slt.png","../images/grn_red.png","../images/wht_red.png","../images/grn_blu.png","../images/red_prp.png","../images/pnk_blu.png","../images/cyn_red.png","../images/ylw_pnk.png","../images/grn_prp.png"],"mutagen_generator_assignment":[0,1],"goal":7,"start":10,"action_noise":0.15,"location_history":"[10,2,6,11,4,8,5,10,7]","action_history":"[1,0,1,0,1,0,0,0]","mutagen_history":"[1,0,1,0,1,0,0,0]","location_rts":"[2000,387,497,445,702,460,498,907]","trial_type":"fractal-mutation","trial_index":68,"time_elapsed":3406241,"internal_node_id":"0.0-5.0-29.0"},{"group":"dicyclic group of order 12","fractal_assignment":["../images/org_blu.png","../images/blu_wht.png","../images/gry_blk.png","../images/ylw_slt.png","../images/grn_red.png","../images/wht_red.png","../images/grn_blu.png","../images/red_prp.png","../images/pnk_blu.png","../images/cyn_red.png","../images/ylw_pnk.png","../images/grn_prp.png"],"mutagen_generator_assignment":[0,1],"goal":6,"start":7,"action_noise":0.15,"location_history":"[7,11,4,9,6]","action_history":"[1,0,0,0]","mutagen_history":"[1,0,0,0]","location_rts":"[7541,420,336,313]","trial_type":"fractal-mutation","trial_index":69,"time_elapsed":3422469,"internal_node_id":"0.0-5.0-30.0"},{"group":"dicyclic group of order 12","fractal_assignment":["../images/org_blu.png","../images/blu_wht.png","../images/gry_blk.png","../images/ylw_slt.png","../images/grn_red.png","../images/wht_red.png","../images/grn_blu.png","../images/red_prp.png","../images/pnk_blu.png","../images/cyn_red.png","../images/ylw_pnk.png","../images/grn_prp.png"],"mutagen_generator_assignment":[0,1],"goal":0,"start":6,"action_noise":0.15,"location_history":"[6,10,7,8,0]","action_history":"[1,0,0,1]","mutagen_history":"[1,0,0,1]","location_rts":"[2952,477,415,287]","trial_type":"fractal-mutation","trial_index":70,"time_elapsed":3434267,"internal_node_id":"0.0-5.0-31.0"},{"group":"dicyclic group of order 12","fractal_assignment":["../images/org_blu.png","../images/blu_wht.png","../images/gry_blk.png","../images/ylw_slt.png","../images/grn_red.png","../images/wht_red.png","../images/grn_blu.png","../images/red_prp.png","../images/pnk_blu.png","../images/cyn_red.png","../images/ylw_pnk.png","../images/grn_prp.png"],"mutagen_generator_assignment":[0,1],"goal":11,"start":0,"action_noise":0.15,"location_history":"[0,4,9,1,5,10,2,6,11]","action_history":"[1,0,1,1,0,1,1,0]","mutagen_history":"[1,0,1,1,0,1,1,0]","location_rts":"[673,427,298,10639,297,460,460,600]","trial_type":"fractal-mutation","trial_index":71,"time_elapsed":3459950,"internal_node_id":"0.0-5.0-32.0"},{"group":"dicyclic group of order 12","fractal_assignment":["../images/org_blu.png","../images/blu_wht.png","../images/gry_blk.png","../images/ylw_slt.png","../images/grn_red.png","../images/wht_red.png","../images/grn_blu.png","../images/red_prp.png","../images/pnk_blu.png","../images/cyn_red.png","../images/ylw_pnk.png","../images/grn_prp.png"],"mutagen_generator_assignment":[0,1],"goal":9,"start":11,"action_noise":0.15,"location_history":"[11,3,0,4,8,5,10,7,8,0,1,5,10,7,11,3,0,1,2,3,0,4,8,5,10,7,11,4,9]","action_history":"[1,1,1,0,0,0,0,0,1,0,0,0,1,0,1,0,0,0,0,0,1,0,0,0,0,1,0,0]","mutagen_history":"[1,1,1,0,0,0,0,0,1,0,0,0,1,0,1,0,0,0,0,0,1,0,0,0,0,1,0,0]","location_rts":"[412,481,657,404,335,335,386,443,344,2787,363,439,8570,614,646,347,396,332,325,384,406,298,2847,339,412,459,619,518]","trial_type":"fractal-mutation","trial_index":72,"time_elapsed":3517273,"internal_node_id":"0.0-5.0-33.0"},{"group":"dicyclic group of order 12","fractal_assignment":["../images/org_blu.png","../images/blu_wht.png","../images/gry_blk.png","../images/ylw_slt.png","../images/grn_red.png","../images/wht_red.png","../images/grn_blu.png","../images/red_prp.png","../images/pnk_blu.png","../images/cyn_red.png","../images/ylw_pnk.png","../images/grn_prp.png"],"mutagen_generator_assignment":[0,1],"goal":5,"start":9,"action_noise":0.15,"location_history":"[9,1,2,3,7,8,0,1,5]","action_history":"[1,0,0,1,0,1,0,1]","mutagen_history":"[1,0,0,1,0,1,0,1]","location_rts":"[632,303,123,71,345,344,368,228]","trial_type":"fractal-mutation","trial_index":73,"time_elapsed":3531417,"internal_node_id":"0.0-5.0-34.0"},{"view_history":"[{\"page_index\":0,\"viewing_time\":3960}]","rt":3960,"trial_type":"instructions","trial_index":74,"time_elapsed":3536378,"internal_node_id":"0.0-6.0"},{"rt":1200,"responses":"{\"Q0\":\"\"}","trial_type":"survey-text","trial_index":75,"time_elapsed":3538585,"internal_node_id":"0.0-7.0"}]