[{"view_history":"[{\"page_index\":0,\"viewing_time\":21657},{\"page_index\":1,\"viewing_time\":10597}]","rt":32256,"trial_type":"instructions","trial_index":0,"time_elapsed":32259,"internal_node_id":"0.0-0.0"},{"view_history":"[{\"page_index\":0,\"viewing_time\":7959},{\"page_index\":1,\"viewing_time\":34276}]","rt":42236,"trial_type":"instructions","trial_index":1,"time_elapsed":75498,"internal_node_id":"0.0-1.0"},{"group":"dicyclic group of order 12","room_assignment":["red","grey","blue","ivory","orange","cyan","brown","yellow","olive","green","purple","pink"],"door_color_assignment":["white","black"],"door_generator_assignment":[0,1],"goal":7,"start":11,"action_noise":0.15,"location_history":"[11,4,9,1,5,10,7]","action_history":"[0,0,1,1,1,0]","door_history":"[0,0,1,1,1,0]","location_rts":"[4966,2368,886,614,796,339]","trial_type":"two-door-navigation","trial_index":2,"time_elapsed":95201,"internal_node_id":"0.0-2.0-0.0"},{"group":"dicyclic group of order 12","room_assignment":["red","grey","blue","ivory","orange","cyan","brown","yellow","olive","green","purple","pink"],"door_color_assignment":["white","black"],"door_generator_assignment":[0,1],"goal":8,"start":7,"action_noise":0.15,"location_history":"[7,11,3,7,11,4,9,6,11,4,8]","action_history":"[1,1,1,1,0,0,0,0,0,1]","door_history":"[1,1,1,1,0,0,0,0,0,1]","location_rts":"[2791,866,485,305,508,433,513,388,380,499]","trial_type":"two-door-navigation","trial_index":3,"time_elapsed":116171,"internal_node_id":"0.0-2.0-1.0"},{"group":"dicyclic group of order 12","room_assignment":["red","grey","blue","ivory","orange","cyan","brown","yellow","olive","green","purple","pink"],"door_color_assignment":["white","black"],"door_generator_assignment":[0,1],"goal":4,"start":8,"action_noise":0.15,"location_history":"[8,5,9,1,2,3,7,11,3,7,8,5,10,7,8,5,9,1,5,9,1,5,9,1,5,9,6,10,7,11,4]","action_history":"[0,1,1,0,0,0,1,1,1,0,0,0,0,0,0,1,1,1,1,1,1,1,0,0,1,0,1,0,1,0]","door_history":"[0,1,1,0,0,0,1,1,1,0,0,0,0,0,0,1,1,1,1,1,1,1,0,0,1,0,1,0,1,0]","location_rts":"[917,394,451,350,311,397,389,352,332,434,372,293,325,301,548,516,362,322,323,318,337,346,125,343,281,532,423,347,490,326]","trial_type":"two-door-navigation","trial_index":4,"time_elapsed":162108,"internal_node_id":"0.0-2.0-2.0"},{"group":"dicyclic group of order 12","room_assignment":["red","grey","blue","ivory","orange","cyan","brown","yellow","olive","green","purple","pink"],"door_color_assignment":["white","black"],"door_generator_assignment":[0,1],"goal":5,"start":4,"action_noise":0.15,"location_history":"[4,9,1,5]","action_history":"[0,1,1]","door_history":"[0,1,1]","location_rts":"[1269,424,260]","trial_type":"two-door-navigation","trial_index":5,"time_elapsed":170663,"internal_node_id":"0.0-2.0-3.0"},{"group":"dicyclic group of order 12","room_assignment":["red","grey","blue","ivory","orange","cyan","brown","yellow","olive","green","purple","pink"],"door_color_assignment":["white","black"],"door_generator_assignment":[0,1],"goal":10,"start":5,"action_noise":0.15,"location_history":"[5,10]","action_history":"[0]","door_history":"[0]","location_rts":"[2014]","trial_type":"two-door-navigation","trial_index":6,"time_elapsed":177214,"internal_node_id":"0.0-2.0-4.0"},{"group":"dicyclic group of order 12","room_assignment":["red","grey","blue","ivory","orange","cyan","brown","yellow","olive","green","purple","pink"],"door_color_assignment":["white","black"],"door_generator_assignment":[0,1],"goal":1,"start":10,"action_noise":0.15,"location_history":"[10,2,6,10,2,6,11,4,8,5,10,7,11,4,8,0,1]","action_history":"[1,1,1,1,1,0,0,0,0,0,1,1,0,1,1,0]","door_history":"[1,1,1,1,1,0,0,0,0,0,1,1,0,1,1,0]","location_rts":"[4443,373,404,362,368,367,338,397,350,345,332,302,198,452,213,771]","trial_type":"two-door-navigation","trial_index":7,"time_elapsed":207219,"internal_node_id":"0.0-2.0-5.0"},{"group":"dicyclic group of order 12","room_assignment":["red","grey","blue","ivory","orange","cyan","brown","yellow","olive","green","purple","pink"],"door_color_assignment":["white","black"],"door_generator_assignment":[0,1],"goal":6,"start":1,"action_noise":0.15,"location_history":"[1,5,10,7,8,5,9,1,2,6]","action_history":"[1,0,0,0,0,1,1,0,1]","door_history":"[1,0,0,0,0,1,1,0,1]","location_rts":"[446,763,338,300,562,364,536,293,1282]","trial_type":"two-door-navigation","trial_index":8,"time_elapsed":224874,"internal_node_id":"0.0-2.0-6.0"},{"group":"dicyclic group of order 12","room_assignment":["red","grey","blue","ivory","orange","cyan","brown","yellow","olive","green","purple","pink"],"door_color_assignment":["white","black"],"door_generator_assignment":[0,1],"goal":9,"start":6,"action_noise":0.15,"location_history":"[6,11,3,7,8,0,4,8,0,1,5,9]","action_history":"[0,1,1,0,1,1,1,1,1,1,1]","door_history":"[0,1,1,0,1,1,1,1,1,1,1]","location_rts":"[381,406,448,368,1781,705,998,1841,623,685,758]","trial_type":"two-door-navigation","trial_index":9,"time_elapsed":248690,"internal_node_id":"0.0-2.0-7.0"},{"group":"dicyclic group of order 12","room_assignment":["red","grey","blue","ivory","orange","cyan","brown","yellow","olive","green","purple","pink"],"door_color_assignment":["white","black"],"door_generator_assignment":[0,1],"goal":2,"start":9,"action_noise":0.15,"location_history":"[9,6,11,4,9,6,11,4,8,0,4,8,0,1,5,10,2]","action_history":"[0,0,0,0,0,0,0,1,1,1,1,1,0,1,0,1]","door_history":"[0,0,0,0,0,0,0,1,1,1,1,1,0,1,0,1]","location_rts":"[1965,329,273,308,382,358,441,1073,1011,802,414,355,1005,547,807,875]","trial_type":"two-door-navigation","trial_index":10,"time_elapsed":279610,"internal_node_id":"0.0-2.0-8.0"},{"group":"dicyclic group of order 12","room_assignment":["red","grey","blue","ivory","orange","cyan","brown","yellow","olive","green","purple","pink"],"door_color_assignment":["white","black"],"door_generator_assignment":[0,1],"goal":0,"start":2,"action_noise":0.15,"location_history":"[2,6,11,3,7,8,0]","action_history":"[1,0,1,1,0,1]","door_history":"[1,0,1,1,0,1]","location_rts":"[2979,611,581,541,405,801]","trial_type":"two-door-navigation","trial_index":11,"time_elapsed":295201,"internal_node_id":"0.0-2.0-9.0"},{"group":"dicyclic group of order 12","room_assignment":["red","grey","blue","ivory","orange","cyan","brown","yellow","olive","green","purple","pink"],"door_color_assignment":["white","black"],"door_generator_assignment":[0,1],"goal":3,"start":0,"action_noise":0.15,"location_history":"[0,4,8,0,1,2,6,11,4,9,6,11,3]","action_history":"[1,1,1,1,0,1,0,0,0,0,0,1]","door_history":"[1,1,1,1,0,1,0,0,0,0,0,1]","location_rts":"[598,1438,305,361,120,791,701,353,330,305,297,286]","trial_type":"two-door-navigation","trial_index":12,"time_elapsed":316957,"internal_node_id":"0.0-2.0-10.0"},{"group":"dicyclic group of order 12","room_assignment":["red","grey","blue","ivory","orange","cyan","brown","yellow","olive","green","purple","pink"],"door_color_assignment":["white","black"],"door_generator_assignment":[0,1],"goal":10,"start":3,"action_noise":0.15,"location_history":"[3,0,4,9,1,2,6,11,3,0,4,8,0,1,2,6,11,4,9,6,10]","action_history":"[0,1,0,1,0,1,0,1,0,1,1,1,0,0,1,0,1,0,1,1]","door_history":"[0,1,0,1,0,1,0,1,0,1,1,1,0,0,1,0,1,0,1,1]","location_rts":"[1444,850,787,429,731,373,778,620,747,320,380,474,268,500,296,675,632,409,569,433]","trial_type":"two-door-navigation","trial_index":13,"time_elapsed":352759,"internal_node_id":"0.0-2.0-11.0"},{"group":"dicyclic group of order 12","room_assignment":["red","grey","blue","ivory","orange","cyan","brown","yellow","olive","green","purple","pink"],"door_color_assignment":["white","black"],"door_generator_assignment":[0,1],"goal":8,"start":10,"action_noise":0.15,"location_history":"[10,2,3,0,1,2,3,0,4,8]","action_history":"[0,0,0,0,0,0,0,1,1]","door_history":"[0,0,0,0,0,0,0,1,1]","location_rts":"[1738,418,309,205,228,302,399,181,177]","trial_type":"two-door-navigation","trial_index":14,"time_elapsed":369481,"internal_node_id":"0.0-2.0-12.0"},{"group":"dicyclic group of order 12","room_assignment":["red","grey","blue","ivory","orange","cyan","brown","yellow","olive","green","purple","pink"],"door_color_assignment":["white","black"],"door_generator_assignment":[0,1],"goal":4,"start":8,"action_noise":0.15,"location_history":"[8,0,4]","action_history":"[1,1]","door_history":"[1,1]","location_rts":"[789,243]","trial_type":"two-door-navigation","trial_index":15,"time_elapsed":376081,"internal_node_id":"0.0-2.0-13.0"},{"group":"dicyclic group of order 12","room_assignment":["red","grey","blue","ivory","orange","cyan","brown","yellow","olive","green","purple","pink"],"door_color_assignment":["white","black"],"door_generator_assignment":[0,1],"goal":0,"start":4,"action_noise":0.15,"location_history":"[4,8,0]","action_history":"[1,1]","door_history":"[1,1]","location_rts":"[843,320]","trial_type":"two-door-navigation","trial_index":16,"time_elapsed":382811,"internal_node_id":"0.0-2.0-14.0"},{"group":"dicyclic group of order 12","room_assignment":["red","grey","blue","ivory","orange","cyan","brown","yellow","olive","green","purple","pink"],"door_color_assignment":["white","black"],"door_generator_assignment":[0,1],"goal":11,"start":0,"action_noise":0.15,"location_history":"[0,4,9,6,11]","action_history":"[0,0,0,0]","door_history":"[0,0,0,0]","location_rts":"[2051,457,331,309]","trial_type":"two-door-navigation","trial_index":17,"time_elapsed":393583,"internal_node_id":"0.0-2.0-15.0"},{"group":"dicyclic group of order 12","room_assignment":["red","grey","blue","ivory","orange","cyan","brown","yellow","olive","green","purple","pink"],"door_color_assignment":["white","black"],"door_generator_assignment":[0,1],"goal":2,"start":11,"action_noise":0.15,"location_history":"[11,4,8,0,1,2]","action_history":"[1,1,1,1,1]","door_history":"[1,1,1,1,1]","location_rts":"[1612,380,442,284,438]","trial_type":"two-door-navigation","trial_index":18,"time_elapsed":405394,"internal_node_id":"0.0-2.0-16.0"},{"group":"dicyclic group of order 12","room_assignment":["red","grey","blue","ivory","orange","cyan","brown","yellow","olive","green","purple","pink"],"door_color_assignment":["white","black"],"door_generator_assignment":[0,1],"goal":7,"start":2,"action_noise":0.15,"location_history":"[2,3,0,1,2,6,11,3,0,4,8,0,4,8,0,1,2,3,0,1,2,3,7]","action_history":"[0,0,0,0,0,0,0,0,0,1,1,1,1,1,0,0,0,0,0,0,0,1]","door_history":"[0,0,0,0,0,0,0,0,0,1,1,1,1,1,0,0,0,0,0,0,0,1]","location_rts":"[2302,387,366,385,359,1036,694,425,562,17181,310,282,334,311,270,301,294,272,270,285,272,354]","trial_type":"two-door-navigation","trial_index":19,"time_elapsed":458638,"internal_node_id":"0.0-2.0-17.0"},{"group":"dicyclic group of order 12","room_assignment":["red","grey","blue","ivory","orange","cyan","brown","yellow","olive","green","purple","pink"],"door_color_assignment":["white","black"],"door_generator_assignment":[0,1],"goal":5,"start":7,"action_noise":0.15,"location_history":"[7,11,3,7,11,4,8,0,1,2,3,0,1,5]","action_history":"[1,1,1,1,1,1,1,0,0,0,0,0,1]","door_history":"[1,1,1,1,1,1,1,0,0,0,0,0,1]","location_rts":"[1692,364,330,366,296,369,294,180,228,168,308,494,101]","trial_type":"two-door-navigation","trial_index":20,"time_elapsed":480642,"internal_node_id":"0.0-2.0-18.0"},{"group":"dicyclic group of order 12","room_assignment":["red","grey","blue","ivory","orange","cyan","brown","yellow","olive","green","purple","pink"],"door_color_assignment":["white","black"],"door_generator_assignment":[0,1],"goal":6,"start":5,"action_noise":0.15,"location_history":"[5,9,6]","action_history":"[1,0]","door_history":"[1,0]","location_rts":"[1080,1252]","trial_type":"two-door-navigation","trial_index":21,"time_elapsed":488531,"internal_node_id":"0.0-2.0-19.0"},{"group":"dicyclic group of order 12","room_assignment":["red","grey","blue","ivory","orange","cyan","brown","yellow","olive","green","purple","pink"],"door_color_assignment":["white","black"],"door_generator_assignment":[0,1],"goal":3,"start":6,"action_noise":0.15,"location_history":"[6,10,2,6,10,2,6,10,7,8,0,4,9,6,11,3]","action_history":"[0,0,0,0,1,1,1,0,1,1,1,0,0,0,1]","door_history":"[0,0,0,0,1,1,1,0,1,1,1,0,0,0,1]","location_rts":"[2816,368,304,288,240,576,357,205,674,566,453,529,446,345,292]","trial_type":"two-door-navigation","trial_index":22,"time_elapsed":515920,"internal_node_id":"0.0-2.0-20.0"},{"group":"dicyclic group of order 12","room_assignment":["red","grey","blue","ivory","orange","cyan","brown","yellow","olive","green","purple","pink"],"door_color_assignment":["white","black"],"door_generator_assignment":[0,1],"goal":1,"start":3,"action_noise":0.15,"location_history":"[3,0,4,9,6,11,4,8,0,4,8,0,1]","action_history":"[0,1,0,1,0,0,1,1,1,1,1,1]","door_history":"[0,1,0,1,0,0,1,1,1,1,1,1]","location_rts":"[601,1112,784,697,799,1542,199,218,149,221,204,295]","trial_type":"two-door-navigation","trial_index":23,"time_elapsed":538594,"internal_node_id":"0.0-2.0-21.0"},{"group":"dicyclic group of order 12","room_assignment":["red","grey","blue","ivory","orange","cyan","brown","yellow","olive","green","purple","pink"],"door_color_assignment":["white","black"],"door_generator_assignment":[0,1],"goal":9,"start":1,"action_noise":0.15,"location_history":"[1,5,9]","action_history":"[1,1]","door_history":"[1,1]","location_rts":"[2820,326]","trial_type":"two-door-navigation","trial_index":24,"time_elapsed":547304,"internal_node_id":"0.0-2.0-22.0"},{"group":"dicyclic group of order 12","room_assignment":["red","grey","blue","ivory","orange","cyan","brown","yellow","olive","green","purple","pink"],"door_color_assignment":["white","black"],"door_generator_assignment":[0,1],"goal":3,"start":9,"action_noise":0.15,"location_history":"[9,1,2,3]","action_history":"[0,0,0]","door_history":"[0,0,0]","location_rts":"[1399,254,292]","trial_type":"two-door-navigation","trial_index":25,"time_elapsed":555846,"internal_node_id":"0.0-2.0-23.0"},{"group":"dicyclic group of order 12","room_assignment":["red","grey","blue","ivory","orange","cyan","brown","yellow","olive","green","purple","pink"],"door_color_assignment":["white","black"],"door_generator_assignment":[0,1],"goal":4,"start":3,"action_noise":0.15,"location_history":"[3,0,1,2,3,7,11,4]","action_history":"[0,0,0,0,1,1,1]","door_history":"[0,0,0,0,1,1,1]","location_rts":"[626,255,388,416,809,519,352]","trial_type":"two-door-navigation","trial_index":26,"time_elapsed":569917,"internal_node_id":"0.0-2.0-24.0"},{"group":"dicyclic group of order 12","room_assignment":["red","grey","blue","ivory","orange","cyan","brown","yellow","olive","green","purple","pink"],"door_color_assignment":["white","black"],"door_generator_assignment":[0,1],"goal":2,"start":4,"action_noise":0.15,"location_history":"[4,9,1,5,9,1,5,9,6,11,4,9,6,11,3,0,1,2]","action_history":"[1,1,1,1,1,1,0,0,0,0,0,0,0,1,0,0,0]","door_history":"[1,1,1,1,1,1,0,0,0,0,0,0,0,1,0,0,0]","location_rts":"[484,448,499,556,1915,1871,687,297,378,367,354,406,364,274,684,559,488]","trial_type":"two-door-navigation","trial_index":27,"time_elapsed":601537,"internal_node_id":"0.0-2.0-25.0"},{"group":"dicyclic group of order 12","room_assignment":["red","grey","blue","ivory","orange","cyan","brown","yellow","olive","green","purple","pink"],"door_color_assignment":["white","black"],"door_generator_assignment":[0,1],"goal":1,"start":2,"action_noise":0.15,"location_history":"[2,3,7,11,4,9,6,11,4,9,6,11,4,9,6,10,2,6,10,2,6,11,3,0,4,8,5,9,6,10,7,8,0,4,8,0,1]","action_history":"[0,0,0,0,0,0,0,0,0,0,0,0,0,1,1,1,1,1,1,1,0,1,1,1,1,0,1,0,1,0,1,1,1,1,1,0]","door_history":"[0,0,0,0,0,0,0,0,0,0,0,0,0,1,1,1,1,1,1,1,0,1,1,1,1,0,1,0,1,0,1,1,1,1,1,0]","location_rts":"[1414,501,395,548,447,612,483,512,633,535,480,523,398,393,365,414,364,342,274,343,256,467,895,404,407,85,622,669,365,374,347,191,350,112,191,221]","trial_type":"two-door-navigation","trial_index":28,"time_elapsed":658004,"internal_node_id":"0.0-2.0-26.0"},{"group":"dicyclic group of order 12","room_assignment":["red","grey","blue","ivory","orange","cyan","brown","yellow","olive","green","purple","pink"],"door_color_assignment":["white","black"],"door_generator_assignment":[0,1],"goal":8,"start":1,"action_noise":0.15,"location_history":"[1,2,3,0,1,5,9,1,5,10,7,11,4,8]","action_history":"[0,0,0,0,1,1,1,1,0,0,1,0,1]","door_history":"[0,0,0,0,1,1,1,1,0,0,1,0,1]","location_rts":"[1289,1072,470,511,1056,659,944,480,985,801,364,758,587]","trial_type":"two-door-navigation","trial_index":29,"time_elapsed":684846,"internal_node_id":"0.0-2.0-27.0"},{"group":"dicyclic group of order 12","room_assignment":["red","grey","blue","ivory","orange","cyan","brown","yellow","olive","green","purple","pink"],"door_color_assignment":["white","black"],"door_generator_assignment":[0,1],"goal":10,"start":8,"action_noise":0.15,"location_history":"[8,0,4,8,0,1,2,3,7,11,4,9,1,5,10]","action_history":"[1,1,1,0,0,0,0,0,1,1,0,1,1,1]","door_history":"[1,1,1,0,0,0,0,0,1,1,0,1,1,1]","location_rts":"[1904,444,325,996,316,410,413,533,466,1039,362,671,417,302]","trial_type":"two-door-navigation","trial_index":30,"time_elapsed":711366,"internal_node_id":"0.0-2.0-28.0"},{"group":"dicyclic group of order 12","room_assignment":["red","grey","blue","ivory","orange","cyan","brown","yellow","olive","green","purple","pink"],"door_color_assignment":["white","black"],"door_generator_assignment":[0,1],"goal":7,"start":10,"action_noise":0.15,"location_history":"[10,7]","action_history":"[0]","door_history":"[0]","location_rts":"[535]","trial_type":"two-door-navigation","trial_index":31,"time_elapsed":716438,"internal_node_id":"0.0-2.0-29.0"},{"group":"dicyclic group of order 12","room_assignment":["red","grey","blue","ivory","orange","cyan","brown","yellow","olive","green","purple","pink"],"door_color_assignment":["white","black"],"door_generator_assignment":[0,1],"goal":6,"start":7,"action_noise":0.15,"location_history":"[7,11,4,9,6]","action_history":"[1,1,1,0]","door_history":"[1,1,1,0]","location_rts":"[635,415,907,181]","trial_type":"two-door-navigation","trial_index":32,"time_elapsed":726198,"internal_node_id":"0.0-2.0-30.0"},{"group":"dicyclic group of order 12","room_assignment":["red","grey","blue","ivory","orange","cyan","brown","yellow","olive","green","purple","pink"],"door_color_assignment":["white","black"],"door_generator_assignment":[0,1],"goal":0,"start":6,"action_noise":0.15,"location_history":"[6,10,2,6,11,4,9,6,11,4,8,0]","action_history":"[1,1,1,0,0,0,0,0,1,1,0]","door_history":"[1,1,1,0,0,0,0,0,1,1,0]","location_rts":"[904,394,437,1305,429,312,334,358,475,278,81]","trial_type":"two-door-navigation","trial_index":33,"time_elapsed":746317,"internal_node_id":"0.0-2.0-31.0"},{"group":"dicyclic group of order 12","room_assignment":["red","grey","blue","ivory","orange","cyan","brown","yellow","olive","green","purple","pink"],"door_color_assignment":["white","black"],"door_generator_assignment":[0,1],"goal":11,"start":0,"action_noise":0.15,"location_history":"[0,1,2,3,7,8,5,10,7,8,5,10,7,11]","action_history":"[0,0,0,0,0,0,0,0,0,0,0,0,1]","door_history":"[0,0,0,0,0,0,0,0,0,0,0,0,1]","location_rts":"[1506,293,349,294,391,466,459,441,403,569,472,452,268]","trial_type":"two-door-navigation","trial_index":34,"time_elapsed":769575,"internal_node_id":"0.0-2.0-32.0"},{"group":"dicyclic group of order 12","room_assignment":["red","grey","blue","ivory","orange","cyan","brown","yellow","olive","green","purple","pink"],"door_color_assignment":["white","black"],"door_generator_assignment":[0,1],"goal":9,"start":11,"action_noise":0.15,"location_history":"[11,4,8,0,1,5,9]","action_history":"[0,1,1,0,0,1]","door_history":"[0,1,1,0,0,1]","location_rts":"[602,547,317,369,322,283]","trial_type":"two-door-navigation","trial_index":35,"time_elapsed":781694,"internal_node_id":"0.0-2.0-33.0"},{"group":"dicyclic group of order 12","room_assignment":["red","grey","blue","ivory","orange","cyan","brown","yellow","olive","green","purple","pink"],"door_color_assignment":["white","black"],"door_generator_assignment":[0,1],"goal":5,"start":9,"action_noise":0.15,"location_history":"[9,1,5]","action_history":"[1,1]","door_history":"[1,1]","location_rts":"[470,255]","trial_type":"two-door-navigation","trial_index":36,"time_elapsed":787978,"internal_node_id":"0.0-2.0-34.0"},{"view_history":"[{\"page_index\":0,\"viewing_time\":5492}]","rt":5493,"trial_type":"instructions","trial_index":37,"time_elapsed":794473,"internal_node_id":"0.0-3.0"},{"view_history":"[{\"page_index\":0,\"viewing_time\":5952},{\"page_index\":1,\"viewing_time\":13101}]","rt":19053,"trial_type":"instructions","trial_index":38,"time_elapsed":814528,"internal_node_id":"0.0-4.0"},{"group":"dicyclic group of order 12","fractal_assignment":["../images/ylw_pnk.png","../images/org_blu.png","../images/wht_red.png","../images/pnk_blu.png","../images/gry_blk.png","../images/cyn_red.png","../images/red_prp.png","../images/grn_red.png","../images/grn_prp.png","../images/ylw_slt.png","../images/grn_blu.png","../images/blu_wht.png"],"mutagen_generator_assignment":[1,0],"goal":7,"start":11,"action_noise":0.15,"location_history":"[11,4,9,1,5,9,6,11,3,0,4,8,5,10,2,6,10,2,6,11,3,0,1,5,9,6,11,4,9,6,11,4,9,1,5,9,1,5,9,1,2,3,7]","action_history":"[0,0,1,1,1,0,0,1,0,1,0,0,0,0,1,1,1,1,0,1,0,0,1,1,0,0,1,0,1,0,0,0,0,1,1,1,1,0,1,0,0,1]","mutagen_history":"[1,1,0,0,0,1,1,0,1,0,1,1,1,1,0,0,0,0,1,0,1,1,0,0,1,1,0,1,0,1,1,1,1,0,0,0,0,1,0,1,1,0]","location_rts":"[16846,940,310,409,438,324,376,280,451,310,424,300,339,286,466,462,592,417,248,385,272,454,354,275,228,390,772,520,963,678,463,277,392,309,421,394,349,882,840,551,451,492]","trial_type":"fractal-mutation","trial_index":39,"time_elapsed":903042,"internal_node_id":"0.0-5.0-0.0"},{"group":"dicyclic group of order 12","fractal_assignment":["../images/ylw_pnk.png","../images/org_blu.png","../images/wht_red.png","../images/pnk_blu.png","../images/gry_blk.png","../images/cyn_red.png","../images/red_prp.png","../images/grn_red.png","../images/grn_prp.png","../images/ylw_slt.png","../images/grn_blu.png","../images/blu_wht.png"],"mutagen_generator_assignment":[1,0],"goal":8,"start":7,"action_noise":0.15,"location_history":"[7,11,3,7,8]","action_history":"[1,1,1,0]","mutagen_history":"[0,0,0,1]","location_rts":"[2525,1825,1603,2652]","trial_type":"fractal-mutation","trial_index":40,"time_elapsed":919788,"internal_node_id":"0.0-5.0-1.0"},{"group":"dicyclic group of order 12","fractal_assignment":["../images/ylw_pnk.png","../images/org_blu.png","../images/wht_red.png","../images/pnk_blu.png","../images/gry_blk.png","../images/cyn_red.png","../images/red_prp.png","../images/grn_red.png","../images/grn_prp.png","../images/ylw_slt.png","../images/grn_blu.png","../images/blu_wht.png"],"mutagen_generator_assignment":[1,0],"goal":4,"start":8,"action_noise":0.15,"location_history":"[8,0,4]","action_history":"[1,1]","mutagen_history":"[0,0]","location_rts":"[2958,485]","trial_type":"fractal-mutation","trial_index":41,"time_elapsed":929043,"internal_node_id":"0.0-5.0-2.0"},{"group":"dicyclic group of order 12","fractal_assignment":["../images/ylw_pnk.png","../images/org_blu.png","../images/wht_red.png","../images/pnk_blu.png","../images/gry_blk.png","../images/cyn_red.png","../images/red_prp.png","../images/grn_red.png","../images/grn_prp.png","../images/ylw_slt.png","../images/grn_blu.png","../images/blu_wht.png"],"mutagen_generator_assignment":[1,0],"goal":5,"start":4,"action_noise":0.15,"location_history":"[4,9,6,11,3,0,4,8,0,4,8,5]","action_history":"[0,0,0,0,0,0,1,1,1,1,0]","mutagen_history":"[1,1,1,1,1,1,0,0,0,0,1]","location_rts":"[2647,509,804,676,683,758,491,504,410,4980,256]","trial_type":"fractal-mutation","trial_index":42,"time_elapsed":958301,"internal_node_id":"0.0-5.0-3.0"},{"group":"dicyclic group of order 12","fractal_assignment":["../images/ylw_pnk.png","../images/org_blu.png","../images/wht_red.png","../images/pnk_blu.png","../images/gry_blk.png","../images/cyn_red.png","../images/red_prp.png","../images/grn_red.png","../images/grn_prp.png","../images/ylw_slt.png","../images/grn_blu.png","../images/blu_wht.png"],"mutagen_generator_assignment":[1,0],"goal":10,"start":5,"action_noise":0.15,"location_history":"[5,9,6,10]","action_history":"[1,0,1]","mutagen_history":"[0,1,0]","location_rts":"[551,414,995]","trial_type":"fractal-mutation","trial_index":43,"time_elapsed":967265,"internal_node_id":"0.0-5.0-4.0"},{"group":"dicyclic group of order 12","fractal_assignment":["../images/ylw_pnk.png","../images/org_blu.png","../images/wht_red.png","../images/pnk_blu.png","../images/gry_blk.png","../images/cyn_red.png","../images/red_prp.png","../images/grn_red.png","../images/grn_prp.png","../images/ylw_slt.png","../images/grn_blu.png","../images/blu_wht.png"],"mutagen_generator_assignment":[1,0],"goal":1,"start":10,"action_noise":0.15,"location_history":"[10,2,3,7,8,0,1]","action_history":"[1,0,1,0,1,0]","mutagen_history":"[0,1,0,1,0,1]","location_rts":"[805,289,362,365,508,457]","trial_type":"fractal-mutation","trial_index":44,"time_elapsed":980591,"internal_node_id":"0.0-5.0-5.0"},{"group":"dicyclic group of order 12","fractal_assignment":["../images/ylw_pnk.png","../images/org_blu.png","../images/wht_red.png","../images/pnk_blu.png","../images/gry_blk.png","../images/cyn_red.png","../images/red_prp.png","../images/grn_red.png","../images/grn_prp.png","../images/ylw_slt.png","../images/grn_blu.png","../images/blu_wht.png"],"mutagen_generator_assignment":[1,0],"goal":6,"start":1,"action_noise":0.15,"location_history":"[1,2,3,7,8,0,1,5,10,2,3,0,1,5,9,6]","action_history":"[1,0,1,0,1,0,1,0,1,0,1,0,1,1,1]","mutagen_history":"[0,1,0,1,0,1,0,1,0,1,0,1,0,0,0]","location_rts":"[416,393,422,322,419,577,1150,471,421,369,397,443,534,263,412]","trial_type":"fractal-mutation","trial_index":45,"time_elapsed":1008646,"internal_node_id":"0.0-5.0-6.0"},{"group":"dicyclic group of order 12","fractal_assignment":["../images/ylw_pnk.png","../images/org_blu.png","../images/wht_red.png","../images/pnk_blu.png","../images/gry_blk.png","../images/cyn_red.png","../images/red_prp.png","../images/grn_red.png","../images/grn_prp.png","../images/ylw_slt.png","../images/grn_blu.png","../images/blu_wht.png"],"mutagen_generator_assignment":[1,0],"goal":9,"start":6,"action_noise":0.15,"location_history":"[6,10,2,3,0,1,2,3,0,1,5,9]","action_history":"[1,1,0,1,0,0,0,0,0,1,1]","mutagen_history":"[0,0,1,0,1,1,1,1,1,0,0]","location_rts":"[362,454,259,804,468,182,410,437,365,250,521]","trial_type":"fractal-mutation","trial_index":46,"time_elapsed":1029737,"internal_node_id":"0.0-5.0-7.0"},{"group":"dicyclic group of order 12","fractal_assignment":["../images/ylw_pnk.png","../images/org_blu.png","../images/wht_red.png","../images/pnk_blu.png","../images/gry_blk.png","../images/cyn_red.png","../images/red_prp.png","../images/grn_red.png","../images/grn_prp.png","../images/ylw_slt.png","../images/grn_blu.png","../images/blu_wht.png"],"mutagen_generator_assignment":[1,0],"goal":2,"start":9,"action_noise":0.15,"location_history":"[9,6,11,4,9,6,10,7,11,3,7,11,3,0,1,5,10,2]","action_history":"[0,0,0,0,0,1,1,1,1,1,1,1,0,0,1,1,0]","mutagen_history":"[1,1,1,1,1,0,0,0,0,0,0,0,1,1,0,0,1]","location_rts":"[1457,526,409,373,633,328,402,446,477,511,320,492,475,1022,504,525,314]","trial_type":"fractal-mutation","trial_index":47,"time_elapsed":1062477,"internal_node_id":"0.0-5.0-8.0"},{"group":"dicyclic group of order 12","fractal_assignment":["../images/ylw_pnk.png","../images/org_blu.png","../images/wht_red.png","../images/pnk_blu.png","../images/gry_blk.png","../images/cyn_red.png","../images/red_prp.png","../images/grn_red.png","../images/grn_prp.png","../images/ylw_slt.png","../images/grn_blu.png","../images/blu_wht.png"],"mutagen_generator_assignment":[1,0],"goal":0,"start":2,"action_noise":0.15,"location_history":"[2,6,10,2,3,0]","action_history":"[1,0,0,0,0]","mutagen_history":"[0,1,1,1,1]","location_rts":"[353,958,300,601,335]","trial_type":"fractal-mutation","trial_index":48,"time_elapsed":1074550,"internal_node_id":"0.0-5.0-9.0"},{"group":"dicyclic group of order 12","fractal_assignment":["../images/ylw_pnk.png","../images/org_blu.png","../images/wht_red.png","../images/pnk_blu.png","../images/gry_blk.png","../images/cyn_red.png","../images/red_prp.png","../images/grn_red.png","../images/grn_prp.png","../images/ylw_slt.png","../images/grn_blu.png","../images/blu_wht.png"],"mutagen_generator_assignment":[1,0],"goal":3,"start":0,"action_noise":0.15,"location_history":"[0,4,8,0,4,8,0,4,9,1,5,9,6,11,4,8,5,9,6,11,4,9,6,10,2,6,10,7,11,4,8,5,10,2,3]","action_history":"[1,1,1,1,1,1,1,1,1,1,0,0,0,0,1,0,1,1,0,0,0,1,1,1,1,1,0,1,0,1,0,1,1,0]","mutagen_history":"[0,0,0,0,0,0,0,0,0,0,1,1,1,1,0,1,0,0,1,1,1,0,0,0,0,0,1,0,1,0,1,0,0,1]","location_rts":"[2387,248,263,268,545,502,925,265,430,1267,196,372,544,573,422,202,548,1039,709,496,447,443,258,749,800,458,1324,717,504,405,200,224,397,90]","trial_type":"fractal-mutation","trial_index":49,"time_elapsed":1137345,"internal_node_id":"0.0-5.0-10.0"},{"group":"dicyclic group of order 12","fractal_assignment":["../images/ylw_pnk.png","../images/org_blu.png","../images/wht_red.png","../images/pnk_blu.png","../images/gry_blk.png","../images/cyn_red.png","../images/red_prp.png","../images/grn_red.png","../images/grn_prp.png","../images/ylw_slt.png","../images/grn_blu.png","../images/blu_wht.png"],"mutagen_generator_assignment":[1,0],"goal":10,"start":3,"action_noise":0.15,"location_history":"[3,7,11,3,7,11,3,0,4,8,5,10]","action_history":"[1,1,1,1,1,0,0,0,1,0,1]","mutagen_history":"[0,0,0,0,0,1,1,1,0,1,0]","location_rts":"[1024,249,514,323,577,127,319,379,458,432,322]","trial_type":"fractal-mutation","trial_index":50,"time_elapsed":1158394,"internal_node_id":"0.0-5.0-11.0"},{"group":"dicyclic group of order 12","fractal_assignment":["../images/ylw_pnk.png","../images/org_blu.png","../images/wht_red.png","../images/pnk_blu.png","../images/gry_blk.png","../images/cyn_red.png","../images/red_prp.png","../images/grn_red.png","../images/grn_prp.png","../images/ylw_slt.png","../images/grn_blu.png","../images/blu_wht.png"],"mutagen_generator_assignment":[1,0],"goal":8,"start":10,"action_noise":0.15,"location_history":"[10,2,3,7,8]","action_history":"[1,0,1,0]","mutagen_history":"[0,1,0,1]","location_rts":"[226,161,233,245]","trial_type":"fractal-mutation","trial_index":51,"time_elapsed":1167530,"internal_node_id":"0.0-5.0-12.0"},{"group":"dicyclic group of order 12","fractal_assignment":["../images/ylw_pnk.png","../images/org_blu.png","../images/wht_red.png","../images/pnk_blu.png","../images/gry_blk.png","../images/cyn_red.png","../images/red_prp.png","../images/grn_red.png","../images/grn_prp.png","../images/ylw_slt.png","../images/grn_blu.png","../images/blu_wht.png"],"mutagen_generator_assignment":[1,0],"goal":4,"start":8,"action_noise":0.15,"location_history":"[8,0,1,5,9,6,11,4]","action_history":"[1,0,1,1,0,0,0]","mutagen_history":"[0,1,0,0,1,1,1]","location_rts":"[270,265,952,219,124,268,437]","trial_type":"fractal-mutation","trial_index":52,"time_elapsed":1181984,"internal_node_id":"0.0-5.0-13.0"},{"group":"dicyclic group of order 12","fractal_assignment":["../images/ylw_pnk.png","../images/org_blu.png","../images/wht_red.png","../images/pnk_blu.png","../images/gry_blk.png","../images/cyn_red.png","../images/red_prp.png","../images/grn_red.png","../images/grn_prp.png","../images/ylw_slt.png","../images/grn_blu.png","../images/blu_wht.png"],"mutagen_generator_assignment":[1,0],"goal":0,"start":4,"action_noise":0.15,"location_history":"[4,8,5,10,7,8,0]","action_history":"[1,0,0,0,0,1]","mutagen_history":"[0,1,1,1,1,0]","location_rts":"[1402,1272,272,1074,345,391]","trial_type":"fractal-mutation","trial_index":53,"time_elapsed":1197455,"internal_node_id":"0.0-5.0-14.0"},{"group":"dicyclic group of order 12","fractal_assignment":["../images/ylw_pnk.png","../images/org_blu.png","../images/wht_red.png","../images/pnk_blu.png","../images/gry_blk.png","../images/cyn_red.png","../images/red_prp.png","../images/grn_red.png","../images/grn_prp.png","../images/ylw_slt.png","../images/grn_blu.png","../images/blu_wht.png"],"mutagen_generator_assignment":[1,0],"goal":11,"start":0,"action_noise":0.15,"location_history":"[0,4,8,0,4,8,5,10,7,11]","action_history":"[1,1,1,1,1,0,0,0,0]","mutagen_history":"[0,0,0,0,0,1,1,1,1]","location_rts":"[2630,431,368,435,740,444,353,351,461]","trial_type":"fractal-mutation","trial_index":54,"time_elapsed":1217761,"internal_node_id":"0.0-5.0-15.0"},{"group":"dicyclic group of order 12","fractal_assignment":["../images/ylw_pnk.png","../images/org_blu.png","../images/wht_red.png","../images/pnk_blu.png","../images/gry_blk.png","../images/cyn_red.png","../images/red_prp.png","../images/grn_red.png","../images/grn_prp.png","../images/ylw_slt.png","../images/grn_blu.png","../images/blu_wht.png"],"mutagen_generator_assignment":[1,0],"goal":2,"start":11,"action_noise":0.15,"location_history":"[11,3,0,4,8,5,10,2]","action_history":"[1,0,0,0,0,0,1]","mutagen_history":"[0,1,1,1,1,1,0]","location_rts":"[373,70,246,316,216,406,439]","trial_type":"fractal-mutation","trial_index":55,"time_elapsed":1231784,"internal_node_id":"0.0-5.0-16.0"},{"group":"dicyclic group of order 12","fractal_assignment":["../images/ylw_pnk.png","../images/org_blu.png","../images/wht_red.png","../images/pnk_blu.png","../images/gry_blk.png","../images/cyn_red.png","../images/red_prp.png","../images/grn_red.png","../images/grn_prp.png","../images/ylw_slt.png","../images/grn_blu.png","../images/blu_wht.png"],"mutagen_generator_assignment":[1,0],"goal":7,"start":2,"action_noise":0.15,"location_history":"[2,6,10,2,6,11,3,0,4,8,0,4,9,6,11,4,9,6,10,2,3,7]","action_history":"[1,1,1,1,0,0,0,1,1,1,1,0,0,0,0,0,0,1,1,0,1]","mutagen_history":"[0,0,0,0,1,1,1,0,0,0,0,1,1,1,1,1,1,0,0,1,0]","location_rts":"[1096,472,276,231,534,438,326,80,315,301,373,41,232,288,448,488,587,465,272,419,310]","trial_type":"fractal-mutation","trial_index":56,"time_elapsed":1268092,"internal_node_id":"0.0-5.0-17.0"},{"group":"dicyclic group of order 12","fractal_assignment":["../images/ylw_pnk.png","../images/org_blu.png","../images/wht_red.png","../images/pnk_blu.png","../images/gry_blk.png","../images/cyn_red.png","../images/red_prp.png","../images/grn_red.png","../images/grn_prp.png","../images/ylw_slt.png","../images/grn_blu.png","../images/blu_wht.png"],"mutagen_generator_assignment":[1,0],"goal":5,"start":7,"action_noise":0.15,"location_history":"[7,11,3,7,11,3,7,11,4,9,6,11,3,7,8,5]","action_history":"[1,1,1,1,1,1,1,0,0,0,0,1,1,0,1]","mutagen_history":"[0,0,0,0,0,0,0,1,1,1,1,0,0,1,0]","location_rts":"[1150,314,292,486,201,802,334,466,900,1273,1165,790,1180,236,221]","trial_type":"fractal-mutation","trial_index":57,"time_elapsed":1298996,"internal_node_id":"0.0-5.0-18.0"},{"group":"dicyclic group of order 12","fractal_assignment":["../images/ylw_pnk.png","../images/org_blu.png","../images/wht_red.png","../images/pnk_blu.png","../images/gry_blk.png","../images/cyn_red.png","../images/red_prp.png","../images/grn_red.png","../images/grn_prp.png","../images/ylw_slt.png","../images/grn_blu.png","../images/blu_wht.png"],"mutagen_generator_assignment":[1,0],"goal":6,"start":5,"action_noise":0.15,"location_history":"[5,10,2,6]","action_history":"[1,1,1]","mutagen_history":"[0,0,0]","location_rts":"[1166,269,232]","trial_type":"fractal-mutation","trial_index":58,"time_elapsed":1307611,"internal_node_id":"0.0-5.0-19.0"},{"group":"dicyclic group of order 12","fractal_assignment":["../images/ylw_pnk.png","../images/org_blu.png","../images/wht_red.png","../images/pnk_blu.png","../images/gry_blk.png","../images/cyn_red.png","../images/red_prp.png","../images/grn_red.png","../images/grn_prp.png","../images/ylw_slt.png","../images/grn_blu.png","../images/blu_wht.png"],"mutagen_generator_assignment":[1,0],"goal":3,"start":6,"action_noise":0.15,"location_history":"[6,11,4,8,0,4,8,5,9,6,11,4,8,5,10,2,6,10,2,3]","action_history":"[0,1,1,1,1,1,0,0,0,0,0,1,0,0,1,1,1,1,0]","mutagen_history":"[1,0,0,0,0,0,1,1,1,1,1,0,1,1,0,0,0,0,1]","location_rts":"[183,343,210,236,211,331,266,279,484,435,862,234,203,247,0,255,264,394,247]","trial_type":"fractal-mutation","trial_index":59,"time_elapsed":1339107,"internal_node_id":"0.0-5.0-20.0"},{"group":"dicyclic group of order 12","fractal_assignment":["../images/ylw_pnk.png","../images/org_blu.png","../images/wht_red.png","../images/pnk_blu.png","../images/gry_blk.png","../images/cyn_red.png","../images/red_prp.png","../images/grn_red.png","../images/grn_prp.png","../images/ylw_slt.png","../images/grn_blu.png","../images/blu_wht.png"],"mutagen_generator_assignment":[1,0],"goal":1,"start":3,"action_noise":0.15,"location_history":"[3,0,1]","action_history":"[0,0]","mutagen_history":"[1,1]","location_rts":"[3531,472]","trial_type":"fractal-mutation","trial_index":60,"time_elapsed":1349017,"internal_node_id":"0.0-5.0-21.0"},{"group":"dicyclic group of order 12","fractal_assignment":["../images/ylw_pnk.png","../images/org_blu.png","../images/wht_red.png","../images/pnk_blu.png","../images/gry_blk.png","../images/cyn_red.png","../images/red_prp.png","../images/grn_red.png","../images/grn_prp.png","../images/ylw_slt.png","../images/grn_blu.png","../images/blu_wht.png"],"mutagen_generator_assignment":[1,0],"goal":9,"start":1,"action_noise":0.15,"location_history":"[1,5,9]","action_history":"[1,1]","mutagen_history":"[0,0]","location_rts":"[2532,698]","trial_type":"fractal-mutation","trial_index":61,"time_elapsed":1358047,"internal_node_id":"0.0-5.0-22.0"},{"group":"dicyclic group of order 12","fractal_assignment":["../images/ylw_pnk.png","../images/org_blu.png","../images/wht_red.png","../images/pnk_blu.png","../images/gry_blk.png","../images/cyn_red.png","../images/red_prp.png","../images/grn_red.png","../images/grn_prp.png","../images/ylw_slt.png","../images/grn_blu.png","../images/blu_wht.png"],"mutagen_generator_assignment":[1,0],"goal":3,"start":9,"action_noise":0.15,"location_history":"[9,1,2,3]","action_history":"[0,0,0]","mutagen_history":"[1,1,1]","location_rts":"[3316,337,809]","trial_type":"fractal-mutation","trial_index":62,"time_elapsed":1369670,"internal_node_id":"0.0-5.0-23.0"},{"group":"dicyclic group of order 12","fractal_assignment":["../images/ylw_pnk.png","../images/org_blu.png","../images/wht_red.png","../images/pnk_blu.png","../images/gry_blk.png","../images/cyn_red.png","../images/red_prp.png","../images/grn_red.png","../images/grn_prp.png","../images/ylw_slt.png","../images/grn_blu.png","../images/blu_wht.png"],"mutagen_generator_assignment":[1,0],"goal":4,"start":3,"action_noise":0.15,"location_history":"[3,0,4]","action_history":"[1,1]","mutagen_history":"[0,0]","location_rts":"[2674,257]","trial_type":"fractal-mutation","trial_index":63,"time_elapsed":1378425,"internal_node_id":"0.0-5.0-24.0"},{"group":"dicyclic group of order 12","fractal_assignment":["../images/ylw_pnk.png","../images/org_blu.png","../images/wht_red.png","../images/pnk_blu.png","../images/gry_blk.png","../images/cyn_red.png","../images/red_prp.png","../images/grn_red.png","../images/grn_prp.png","../images/ylw_slt.png","../images/grn_blu.png","../images/blu_wht.png"],"mutagen_generator_assignment":[1,0],"goal":2,"start":4,"action_noise":0.15,"location_history":"[4,9,1,5,9,1,2]","action_history":"[1,1,1,1,1,0]","mutagen_history":"[0,0,0,0,0,1]","location_rts":"[3050,475,879,918,556,204]","trial_type":"fractal-mutation","trial_index":64,"time_elapsed":1395014,"internal_node_id":"0.0-5.0-25.0"},{"group":"dicyclic group of order 12","fractal_assignment":["../images/ylw_pnk.png","../images/org_blu.png","../images/wht_red.png","../images/pnk_blu.png","../images/gry_blk.png","../images/cyn_red.png","../images/red_prp.png","../images/grn_red.png","../images/grn_prp.png","../images/ylw_slt.png","../images/grn_blu.png","../images/blu_wht.png"],"mutagen_generator_assignment":[1,0],"goal":1,"start":2,"action_noise":0.15,"location_history":"[2,6,10,2,3,0,4,8,0,1]","action_history":"[0,1,1,0,0,1,1,1,0]","mutagen_history":"[1,0,0,1,1,0,0,0,1]","location_rts":"[1451,1595,947,364,706,406,948,441,106]","trial_type":"fractal-mutation","trial_index":65,"time_elapsed":1416087,"internal_node_id":"0.0-5.0-26.0"},{"group":"dicyclic group of order 12","fractal_assignment":["../images/ylw_pnk.png","../images/org_blu.png","../images/wht_red.png","../images/pnk_blu.png","../images/gry_blk.png","../images/cyn_red.png","../images/red_prp.png","../images/grn_red.png","../images/grn_prp.png","../images/ylw_slt.png","../images/grn_blu.png","../images/blu_wht.png"],"mutagen_generator_assignment":[1,0],"goal":8,"start":1,"action_noise":0.15,"location_history":"[1,2,6,11,3,7,11,3,7,8]","action_history":"[1,1,1,1,1,1,0,0,0]","mutagen_history":"[0,0,0,0,0,0,1,1,1]","location_rts":"[1089,345,260,273,405,293,60,441,513]","trial_type":"fractal-mutation","trial_index":66,"time_elapsed":1433754,"internal_node_id":"0.0-5.0-27.0"},{"group":"dicyclic group of order 12","fractal_assignment":["../images/ylw_pnk.png","../images/org_blu.png","../images/wht_red.png","../images/pnk_blu.png","../images/gry_blk.png","../images/cyn_red.png","../images/red_prp.png","../images/grn_red.png","../images/grn_prp.png","../images/ylw_slt.png","../images/grn_blu.png","../images/blu_wht.png"],"mutagen_generator_assignment":[1,0],"goal":10,"start":8,"action_noise":0.15,"location_history":"[8,0,4,8,0,4,9,6,11,3,7,8,0,4,8,5,9,1,2,3,0,4,9,1,5,9,6,10]","action_history":"[1,1,1,1,1,0,0,0,0,1,0,1,1,1,0,0,0,0,0,0,1,1,1,1,1,0,1]","mutagen_history":"[0,0,0,0,0,1,1,1,1,0,1,0,0,0,1,1,1,1,1,1,0,0,0,0,0,1,0]","location_rts":"[1348,399,330,253,256,132,370,358,412,7,227,958,201,194,138,104,410,309,705,446,395,262,417,347,371,3065,735]","trial_type":"fractal-mutation","trial_index":67,"time_elapsed":1482299,"internal_node_id":"0.0-5.0-28.0"},{"group":"dicyclic group of order 12","fractal_assignment":["../images/ylw_pnk.png","../images/org_blu.png","../images/wht_red.png","../images/pnk_blu.png","../images/gry_blk.png","../images/cyn_red.png","../images/red_prp.png","../images/grn_red.png","../images/grn_prp.png","../images/ylw_slt.png","../images/grn_blu.png","../images/blu_wht.png"],"mutagen_generator_assignment":[1,0],"goal":7,"start":10,"action_noise":0.15,"location_history":"[10,2,3,0,4,8,0,4,8,0,1,5,10,7]","action_history":"[0,0,0,1,1,1,1,1,0,0,0,0,0]","mutagen_history":"[1,1,1,0,0,0,0,0,1,1,1,1,1]","location_rts":"[1456,223,388,473,331,243,395,546,75,411,90,89,382]","trial_type":"fractal-mutation","trial_index":68,"time_elapsed":1506423,"internal_node_id":"0.0-5.0-29.0"},{"group":"dicyclic group of order 12","fractal_assignment":["../images/ylw_pnk.png","../images/org_blu.png","../images/wht_red.png","../images/pnk_blu.png","../images/gry_blk.png","../images/cyn_red.png","../images/red_prp.png","../images/grn_red.png","../images/grn_prp.png","../images/ylw_slt.png","../images/grn_blu.png","../images/blu_wht.png"],"mutagen_generator_assignment":[1,0],"goal":6,"start":7,"action_noise":0.15,"location_history":"[7,8,5,9,6]","action_history":"[1,0,1,0]","mutagen_history":"[0,1,0,1]","location_rts":"[800,189,443,273]","trial_type":"fractal-mutation","trial_index":69,"time_elapsed":1516412,"internal_node_id":"0.0-5.0-30.0"},{"group":"dicyclic group of order 12","fractal_assignment":["../images/ylw_pnk.png","../images/org_blu.png","../images/wht_red.png","../images/pnk_blu.png","../images/gry_blk.png","../images/cyn_red.png","../images/red_prp.png","../images/grn_red.png","../images/grn_prp.png","../images/ylw_slt.png","../images/grn_blu.png","../images/blu_wht.png"],"mutagen_generator_assignment":[1,0],"goal":0,"start":6,"action_noise":0.15,"location_history":"[6,10,2,6,10,2,6,10,2,6,10,7,8,5,10,2,3,7,8,5,9,1,5,9,6,10,7,11,4,8,5,10,7,11,4,8,0]","action_history":"[1,1,1,1,1,1,1,1,1,1,0,0,0,0,0,0,1,0,1,1,1,1,1,0,1,0,1,0,0,0,0,0,1,0,1,1]","mutagen_history":"[0,0,0,0,0,0,0,0,0,0,1,1,1,1,1,1,0,1,0,0,0,0,0,1,0,1,0,1,1,1,1,1,0,1,0,0]","location_rts":"[3132,372,399,392,358,380,360,364,306,425,147,313,361,383,398,449,636,441,416,218,310,262,395,239,379,242,481,400,312,365,387,701,314,221,119,607]","trial_type":"fractal-mutation","trial_index":70,"time_elapsed":1578221,"internal_node_id":"0.0-5.0-31.0"},{"group":"dicyclic group of order 12","fractal_assignment":["../images/ylw_pnk.png","../images/org_blu.png","../images/wht_red.png","../images/pnk_blu.png","../images/gry_blk.png","../images/cyn_red.png","../images/red_prp.png","../images/grn_red.png","../images/grn_prp.png","../images/ylw_slt.png","../images/grn_blu.png","../images/blu_wht.png"],"mutagen_generator_assignment":[1,0],"goal":11,"start":0,"action_noise":0.15,"location_history":"[0,1,5,9,6,10,2,6,10,2,6,10,7,11]","action_history":"[1,1,1,0,1,1,1,1,1,1,1,0,1]","mutagen_history":"[0,0,0,1,0,0,0,0,0,0,0,1,0]","location_rts":"[1310,370,271,249,392,308,299,342,447,536,741,936,413]","trial_type":"fractal-mutation","trial_index":71,"time_elapsed":1603400,"internal_node_id":"0.0-5.0-32.0"},{"group":"dicyclic group of order 12","fractal_assignment":["../images/ylw_pnk.png","../images/org_blu.png","../images/wht_red.png","../images/pnk_blu.png","../images/gry_blk.png","../images/cyn_red.png","../images/red_prp.png","../images/grn_red.png","../images/grn_prp.png","../images/ylw_slt.png","../images/grn_blu.png","../images/blu_wht.png"],"mutagen_generator_assignment":[1,0],"goal":9,"start":11,"action_noise":0.15,"location_history":"[11,4,8,0,4,8,5,10,7,11,4,9]","action_history":"[0,1,1,1,1,0,0,0,1,0,1]","mutagen_history":"[1,0,0,0,0,1,1,1,0,1,0]","location_rts":"[3358,1014,934,1080,372,109,605,407,242,253,294]","trial_type":"fractal-mutation","trial_index":72,"time_elapsed":1628591,"internal_node_id":"0.0-5.0-33.0"},{"group":"dicyclic group of order 12","fractal_assignment":["../images/ylw_pnk.png","../images/org_blu.png","../images/wht_red.png","../images/pnk_blu.png","../images/gry_blk.png","../images/cyn_red.png","../images/red_prp.png","../images/grn_red.png","../images/grn_prp.png","../images/ylw_slt.png","../images/grn_blu.png","../images/blu_wht.png"],"mutagen_generator_assignment":[1,0],"goal":5,"start":9,"action_noise":0.15,"location_history":"[9,1,2,6,11,4,8,0,4,8,0,4,8,5]","action_history":"[0,1,0,0,0,0,1,1,1,1,1,1,0]","mutagen_history":"[1,0,1,1,1,1,0,0,0,0,0,0,1]","location_rts":"[367,260,272,271,356,535,246,209,250,437,533,502,1506]","trial_type":"fractal-mutation","trial_index":73,"time_elapsed":1653170,"internal_node_id":"0.0-5.0-34.0"},{"view_history":"[{\"page_index\":0,\"viewing_time\":9933}]","rt":9933,"trial_type":"instructions","trial_index":74,"time_elapsed":1664105,"internal_node_id":"0.0-6.0"},{"rt":53550,"responses":"{\"Q0\":\"Trying to figure out the right steps -- sometimes I think I am on to something then the method no longer works.\"}","trial_type":"survey-text","trial_index":75,"time_elapsed":1718671,"internal_node_id":"0.0-7.0"}]