[{"view_history":"[{\"page_index\":0,\"viewing_time\":366160},{\"page_index\":1,\"viewing_time\":7575}]","rt":373735,"trial_type":"instructions","trial_index":0,"time_elapsed":373736,"internal_node_id":"0.0-0.0"},{"view_history":"[{\"page_index\":0,\"viewing_time\":6613},{\"page_index\":1,\"viewing_time\":16407}]","rt":23020,"trial_type":"instructions","trial_index":1,"time_elapsed":397757,"internal_node_id":"0.0-1.0"},{"group":"dicyclic group of order 12","room_assignment":["ivory","grey","green","olive","purple","pink","orange","red","cyan","yellow","brown","blue"],"door_color_assignment":["white","black"],"door_generator_assignment":[0,1],"goal":7,"start":11,"action_noise":0.15,"location_history":"[11,3,7]","action_history":"[1,1]","door_history":"[1,1]","location_rts":"[7429,4963]","trial_type":"two-door-navigation","trial_index":2,"time_elapsed":415696,"internal_node_id":"0.0-2.0-0.0"},{"group":"dicyclic group of order 12","room_assignment":["ivory","grey","green","olive","purple","pink","orange","red","cyan","yellow","brown","blue"],"door_color_assignment":["white","black"],"door_generator_assignment":[0,1],"goal":8,"start":7,"action_noise":0.15,"location_history":"[7,11,4,9,6,11,3,7,11,4,9,6,10,2,6,10,7,8]","action_history":"[1,0,0,0,0,1,1,0,0,0,1,1,1,1,1,0,0]","door_history":"[1,0,0,0,0,1,1,0,0,0,1,1,1,1,1,0,0]","location_rts":"[3219,11132,5226,4587,8026,5523,2890,1523,7859,1035,1674,1459,611,1979,587,612,578]","trial_type":"two-door-navigation","trial_index":3,"time_elapsed":495075,"internal_node_id":"0.0-2.0-1.0"},{"group":"dicyclic group of order 12","room_assignment":["ivory","grey","green","olive","purple","pink","orange","red","cyan","yellow","brown","blue"],"door_color_assignment":["white","black"],"door_generator_assignment":[0,1],"goal":4,"start":8,"action_noise":0.15,"location_history":"[8,0,4]","action_history":"[1,1]","door_history":"[1,1]","location_rts":"[6012,9803]","trial_type":"two-door-navigation","trial_index":4,"time_elapsed":516434,"internal_node_id":"0.0-2.0-2.0"},{"group":"dicyclic group of order 12","room_assignment":["ivory","grey","green","olive","purple","pink","orange","red","cyan","yellow","brown","blue"],"door_color_assignment":["white","black"],"door_generator_assignment":[0,1],"goal":5,"start":4,"action_noise":0.15,"location_history":"[4,9,6,10,2,6,11,4,9,1,5]","action_history":"[0,0,1,1,1,1,0,1,1,1]","door_history":"[0,0,1,1,1,1,0,1,1,1]","location_rts":"[7283,1050,1020,892,1908,556,618,3907,5011,5282]","trial_type":"two-door-navigation","trial_index":5,"time_elapsed":557670,"internal_node_id":"0.0-2.0-3.0"},{"group":"dicyclic group of order 12","room_assignment":["ivory","grey","green","olive","purple","pink","orange","red","cyan","yellow","brown","blue"],"door_color_assignment":["white","black"],"door_generator_assignment":[0,1],"goal":10,"start":5,"action_noise":0.15,"location_history":"[5,9,1,2,6,11,4,8,5,10]","action_history":"[1,1,1,1,0,0,1,0,0]","door_history":"[1,1,1,1,0,0,1,0,0]","location_rts":"[8036,5299,5771,3874,1245,827,6804,2347,3675]","trial_type":"two-door-navigation","trial_index":6,"time_elapsed":608236,"internal_node_id":"0.0-2.0-4.0"},{"group":"dicyclic group of order 12","room_assignment":["ivory","grey","green","olive","purple","pink","orange","red","cyan","yellow","brown","blue"],"door_color_assignment":["white","black"],"door_generator_assignment":[0,1],"goal":1,"start":10,"action_noise":0.15,"location_history":"[10,7,11,3,7,8,5,10,2,3,0,1]","action_history":"[0,1,1,1,0,0,0,1,0,0,0]","door_history":"[0,1,1,1,0,0,0,1,0,0,0]","location_rts":"[9244,3946,843,5587,1267,1490,555,3805,466,315,347]","trial_type":"two-door-navigation","trial_index":7,"time_elapsed":650834,"internal_node_id":"0.0-2.0-5.0"},{"group":"dicyclic group of order 12","room_assignment":["ivory","grey","green","olive","purple","pink","orange","red","cyan","yellow","brown","blue"],"door_color_assignment":["white","black"],"door_generator_assignment":[0,1],"goal":6,"start":1,"action_noise":0.15,"location_history":"[1,5,9,6]","action_history":"[1,1,0]","door_history":"[1,1,0]","location_rts":"[9084,1595,971]","trial_type":"two-door-navigation","trial_index":8,"time_elapsed":669049,"internal_node_id":"0.0-2.0-6.0"},{"group":"dicyclic group of order 12","room_assignment":["ivory","grey","green","olive","purple","pink","orange","red","cyan","yellow","brown","blue"],"door_color_assignment":["white","black"],"door_generator_assignment":[0,1],"goal":9,"start":6,"action_noise":0.15,"location_history":"[6,10,2,3,0,4,8,0,1,2,3,0,1,5,10,2,6,11,4,9]","action_history":"[1,1,0,0,0,1,1,1,1,1,0,0,0,0,1,0,0,0,0]","door_history":"[1,1,0,0,0,1,1,1,1,1,0,0,0,0,1,0,0,0,0]","location_rts":"[6228,1234,1355,996,1060,1091,2235,9612,2315,3522,827,612,354,723,899,747,467,475,523]","trial_type":"two-door-navigation","trial_index":9,"time_elapsed":727222,"internal_node_id":"0.0-2.0-7.0"},{"group":"dicyclic group of order 12","room_assignment":["ivory","grey","green","olive","purple","pink","orange","red","cyan","yellow","brown","blue"],"door_color_assignment":["white","black"],"door_generator_assignment":[0,1],"goal":2,"start":9,"action_noise":0.15,"location_history":"[9,1,5,10,7,11,3,7,11,4,9,1,5,9,1,2]","action_history":"[1,1,0,0,1,1,1,1,0,0,1,1,1,1,1]","door_history":"[1,1,0,0,1,1,1,1,0,0,1,1,1,1,1]","location_rts":"[19843,555,48826,363,931,844,963,851,651,716,483,363,395,3915,420]","trial_type":"two-door-navigation","trial_index":10,"time_elapsed":826152,"internal_node_id":"0.0-2.0-8.0"},{"group":"dicyclic group of order 12","room_assignment":["ivory","grey","green","olive","purple","pink","orange","red","cyan","yellow","brown","blue"],"door_color_assignment":["white","black"],"door_generator_assignment":[0,1],"goal":0,"start":2,"action_noise":0.15,"location_history":"[2,3,0]","action_history":"[1,1]","door_history":"[1,1]","location_rts":"[2748,5307]","trial_type":"two-door-navigation","trial_index":11,"time_elapsed":839752,"internal_node_id":"0.0-2.0-9.0"},{"group":"dicyclic group of order 12","room_assignment":["ivory","grey","green","olive","purple","pink","orange","red","cyan","yellow","brown","blue"],"door_color_assignment":["white","black"],"door_generator_assignment":[0,1],"goal":3,"start":0,"action_noise":0.15,"location_history":"[0,1,2,6,10,7,8,0,4,8,5,9,1,2,6,11,4,8,5,10,7,8,5,9,6,10,2,3]","action_history":"[0,0,1,1,0,1,1,1,1,0,1,1,1,1,0,0,0,0,0,0,1,1,0,0,1,1,0]","door_history":"[0,0,1,1,0,1,1,1,1,0,1,1,1,1,0,0,0,0,0,0,1,1,0,0,1,1,0]","location_rts":"[4147,5588,7746,5603,1690,723,1404,8995,10050,1060,7172,667,507,852,5531,803,443,635,2099,1524,682,1675,1403,427,7003,643,6556]","trial_type":"two-door-navigation","trial_index":12,"time_elapsed":956439,"internal_node_id":"0.0-2.0-10.0"},{"group":"dicyclic group of order 12","room_assignment":["ivory","grey","green","olive","purple","pink","orange","red","cyan","yellow","brown","blue"],"door_color_assignment":["white","black"],"door_generator_assignment":[0,1],"goal":10,"start":3,"action_noise":0.15,"location_history":"[3,7,8,5,10]","action_history":"[1,1,0,1]","door_history":"[1,1,0,1]","location_rts":"[3542,659,396,531]","trial_type":"two-door-navigation","trial_index":13,"time_elapsed":969150,"internal_node_id":"0.0-2.0-11.0"},{"group":"dicyclic group of order 12","room_assignment":["ivory","grey","green","olive","purple","pink","orange","red","cyan","yellow","brown","blue"],"door_color_assignment":["white","black"],"door_generator_assignment":[0,1],"goal":8,"start":10,"action_noise":0.15,"location_history":"[10,7,8]","action_history":"[0,1]","door_history":"[0,1]","location_rts":"[8518,7498]","trial_type":"two-door-navigation","trial_index":14,"time_elapsed":990710,"internal_node_id":"0.0-2.0-12.0"},{"group":"dicyclic group of order 12","room_assignment":["ivory","grey","green","olive","purple","pink","orange","red","cyan","yellow","brown","blue"],"door_color_assignment":["white","black"],"door_generator_assignment":[0,1],"goal":4,"start":8,"action_noise":0.15,"location_history":"[8,0,4]","action_history":"[1,1]","door_history":"[1,1]","location_rts":"[4077,890]","trial_type":"two-door-navigation","trial_index":15,"time_elapsed":1001222,"internal_node_id":"0.0-2.0-13.0"},{"group":"dicyclic group of order 12","room_assignment":["ivory","grey","green","olive","purple","pink","orange","red","cyan","yellow","brown","blue"],"door_color_assignment":["white","black"],"door_generator_assignment":[0,1],"goal":0,"start":4,"action_noise":0.15,"location_history":"[4,9,6,11,4,8,5,9,1,2,3,7,11,4,8,0]","action_history":"[0,0,0,1,1,0,1,1,0,0,1,1,0,1,1]","door_history":"[0,0,0,1,1,0,1,1,0,0,1,1,0,1,1]","location_rts":"[7212,5794,5700,5458,3796,10468,1346,468,1267,1211,491,907,4868,3852,2899]","trial_type":"two-door-navigation","trial_index":16,"time_elapsed":1075770,"internal_node_id":"0.0-2.0-14.0"},{"group":"dicyclic group of order 12","room_assignment":["ivory","grey","green","olive","purple","pink","orange","red","cyan","yellow","brown","blue"],"door_color_assignment":["white","black"],"door_generator_assignment":[0,1],"goal":11,"start":0,"action_noise":0.15,"location_history":"[0,4,9,6,11]","action_history":"[1,0,0,0]","door_history":"[1,0,0,0]","location_rts":"[12468,9019,4666,819]","trial_type":"two-door-navigation","trial_index":17,"time_elapsed":1110328,"internal_node_id":"0.0-2.0-15.0"},{"group":"dicyclic group of order 12","room_assignment":["ivory","grey","green","olive","purple","pink","orange","red","cyan","yellow","brown","blue"],"door_color_assignment":["white","black"],"door_generator_assignment":[0,1],"goal":2,"start":11,"action_noise":0.15,"location_history":"[11,3,0,4,8,0,1,5,9,1,5,9,6,11,3,7,11,4,8,0,1,2]","action_history":"[1,0,1,1,1,0,1,1,1,1,1,0,1,1,1,1,0,1,1,0,0]","door_history":"[1,0,1,1,1,0,1,1,1,1,1,0,1,1,1,1,0,1,1,0,0]","location_rts":"[4204,2275,2547,2099,3651,1627,1932,1347,395,427,835,3659,829,719,586,875,1611,459,387,2483,339]","trial_type":"two-door-navigation","trial_index":18,"time_elapsed":1168549,"internal_node_id":"0.0-2.0-16.0"},{"group":"dicyclic group of order 12","room_assignment":["ivory","grey","green","olive","purple","pink","orange","red","cyan","yellow","brown","blue"],"door_color_assignment":["white","black"],"door_generator_assignment":[0,1],"goal":7,"start":2,"action_noise":0.15,"location_history":"[2,3,7]","action_history":"[0,0]","door_history":"[0,0]","location_rts":"[4059,5995]","trial_type":"two-door-navigation","trial_index":19,"time_elapsed":1184148,"internal_node_id":"0.0-2.0-17.0"},{"group":"dicyclic group of order 12","room_assignment":["ivory","grey","green","olive","purple","pink","orange","red","cyan","yellow","brown","blue"],"door_color_assignment":["white","black"],"door_generator_assignment":[0,1],"goal":5,"start":7,"action_noise":0.15,"location_history":"[7,8,5]","action_history":"[0,0]","door_history":"[0,0]","location_rts":"[6220,4410]","trial_type":"two-door-navigation","trial_index":20,"time_elapsed":1200323,"internal_node_id":"0.0-2.0-18.0"},{"group":"dicyclic group of order 12","room_assignment":["ivory","grey","green","olive","purple","pink","orange","red","cyan","yellow","brown","blue"],"door_color_assignment":["white","black"],"door_generator_assignment":[0,1],"goal":6,"start":5,"action_noise":0.15,"location_history":"[5,10,7,8,5,9,6]","action_history":"[0,0,0,1,1,0]","door_history":"[0,0,0,1,1,0]","location_rts":"[15163,4770,5028,1131,6715,1556]","trial_type":"two-door-navigation","trial_index":21,"time_elapsed":1244313,"internal_node_id":"0.0-2.0-19.0"},{"group":"dicyclic group of order 12","room_assignment":["ivory","grey","green","olive","purple","pink","orange","red","cyan","yellow","brown","blue"],"door_color_assignment":["white","black"],"door_generator_assignment":[0,1],"goal":3,"start":6,"action_noise":0.15,"location_history":"[6,11,4,8,0,1,2,3]","action_history":"[0,0,0,0,0,0,0]","door_history":"[0,0,0,0,0,0,0]","location_rts":"[14595,8514,10355,555,555,387,411]","trial_type":"two-door-navigation","trial_index":22,"time_elapsed":1290334,"internal_node_id":"0.0-2.0-20.0"},{"group":"dicyclic group of order 12","room_assignment":["ivory","grey","green","olive","purple","pink","orange","red","cyan","yellow","brown","blue"],"door_color_assignment":["white","black"],"door_generator_assignment":[0,1],"goal":1,"start":3,"action_noise":0.15,"location_history":"[3,0,1]","action_history":"[1,0]","door_history":"[1,0]","location_rts":"[10283,714]","trial_type":"two-door-navigation","trial_index":23,"time_elapsed":1306877,"internal_node_id":"0.0-2.0-21.0"},{"group":"dicyclic group of order 12","room_assignment":["ivory","grey","green","olive","purple","pink","orange","red","cyan","yellow","brown","blue"],"door_color_assignment":["white","black"],"door_generator_assignment":[0,1],"goal":9,"start":1,"action_noise":0.15,"location_history":"[1,2,3,0,4,8,0,4,9]","action_history":"[0,0,0,1,1,1,1,0]","door_history":"[0,0,0,1,1,1,1,0]","location_rts":"[3996,4218,4387,10723,5891,3579,6130,4811]","trial_type":"two-door-navigation","trial_index":24,"time_elapsed":1362282,"internal_node_id":"0.0-2.0-22.0"},{"group":"dicyclic group of order 12","room_assignment":["ivory","grey","green","olive","purple","pink","orange","red","cyan","yellow","brown","blue"],"door_color_assignment":["white","black"],"door_generator_assignment":[0,1],"goal":3,"start":9,"action_noise":0.15,"location_history":"[9,6,11,3]","action_history":"[0,0,1]","door_history":"[0,0,1]","location_rts":"[6020,810,6155]","trial_type":"two-door-navigation","trial_index":25,"time_elapsed":1381832,"internal_node_id":"0.0-2.0-23.0"},{"group":"dicyclic group of order 12","room_assignment":["ivory","grey","green","olive","purple","pink","orange","red","cyan","yellow","brown","blue"],"door_color_assignment":["white","black"],"door_generator_assignment":[0,1],"goal":4,"start":3,"action_noise":0.15,"location_history":"[3,7,11,3,7,8,5,9,1,5,10,2,6,10,7,8,0,4]","action_history":"[1,1,1,1,0,0,1,1,0,0,1,1,1,1,0,1,1]","door_history":"[1,1,1,1,0,0,1,1,0,0,1,1,1,1,0,1,1]","location_rts":"[5397,3763,1100,764,572,666,8379,868,788,1346,1739,2148,1066,924,732,2219,363]","trial_type":"two-door-navigation","trial_index":26,"time_elapsed":1435518,"internal_node_id":"0.0-2.0-24.0"},{"group":"dicyclic group of order 12","room_assignment":["ivory","grey","green","olive","purple","pink","orange","red","cyan","yellow","brown","blue"],"door_color_assignment":["white","black"],"door_generator_assignment":[0,1],"goal":2,"start":4,"action_noise":0.15,"location_history":"[4,8,5,10,7,11,3,7,11,3,0,1,2]","action_history":"[1,1,0,0,1,1,1,1,1,0,0,0]","door_history":"[1,1,0,0,1,1,1,1,1,0,0,0]","location_rts":"[4515,1844,4202,595,875,7244,772,331,6195,435,5235,355]","trial_type":"two-door-navigation","trial_index":27,"time_elapsed":1483867,"internal_node_id":"0.0-2.0-25.0"},{"group":"dicyclic group of order 12","room_assignment":["ivory","grey","green","olive","purple","pink","orange","red","cyan","yellow","brown","blue"],"door_color_assignment":["white","black"],"door_generator_assignment":[0,1],"goal":1,"start":2,"action_noise":0.15,"location_history":"[2,6,10,7,8,0,1]","action_history":"[1,1,0,0,1,0]","door_history":"[1,1,0,0,1,0]","location_rts":"[19411,690,851,499,6155,963]","trial_type":"two-door-navigation","trial_index":28,"time_elapsed":1522065,"internal_node_id":"0.0-2.0-26.0"},{"group":"dicyclic group of order 12","room_assignment":["ivory","grey","green","olive","purple","pink","orange","red","cyan","yellow","brown","blue"],"door_color_assignment":["white","black"],"door_generator_assignment":[0,1],"goal":8,"start":1,"action_noise":0.15,"location_history":"[1,2,6,10,2,6,11,4,9,1,5,9,1,2,6,11,3,0,1,5,10,2,6,10,7,8]","action_history":"[1,1,1,1,1,0,0,0,1,1,1,1,0,1,0,1,0,1,1,0,1,1,0,0,0]","door_history":"[1,1,1,1,1,0,0,0,1,1,1,1,0,1,0,1,0,1,1,0,1,1,0,0,0]","location_rts":"[7796,5050,4156,2403,3547,9051,4066,7203,1994,1987,1403,1147,6707,5891,554,819,516,14355,4419,2419,692,386,365,451,419]","trial_type":"two-door-navigation","trial_index":29,"time_elapsed":1638882,"internal_node_id":"0.0-2.0-27.0"},{"group":"dicyclic group of order 12","room_assignment":["ivory","grey","green","olive","purple","pink","orange","red","cyan","yellow","brown","blue"],"door_color_assignment":["white","black"],"door_generator_assignment":[0,1],"goal":10,"start":8,"action_noise":0.15,"location_history":"[8,0,1,5,9,1,2,6,11,4,9,1,2,3,0,4,9,6,11,4,8,5,10]","action_history":"[1,0,1,1,1,0,1,0,0,0,1,0,0,0,1,1,0,0,0,1,0,0]","door_history":"[1,0,1,1,1,0,1,0,0,0,1,0,0,0,1,1,0,0,0,1,0,0]","location_rts":"[4092,8380,483,83,443,1067,6682,435,411,347,299,1300,371,1123,668,398,188,587,699,707,388,363]","trial_type":"two-door-navigation","trial_index":30,"time_elapsed":1694351,"internal_node_id":"0.0-2.0-28.0"},{"group":"dicyclic group of order 12","room_assignment":["ivory","grey","green","olive","purple","pink","orange","red","cyan","yellow","brown","blue"],"door_color_assignment":["white","black"],"door_generator_assignment":[0,1],"goal":7,"start":10,"action_noise":0.15,"location_history":"[10,7]","action_history":"[0]","door_history":"[0]","location_rts":"[1012]","trial_type":"two-door-navigation","trial_index":31,"time_elapsed":1699885,"internal_node_id":"0.0-2.0-29.0"},{"group":"dicyclic group of order 12","room_assignment":["ivory","grey","green","olive","purple","pink","orange","red","cyan","yellow","brown","blue"],"door_color_assignment":["white","black"],"door_generator_assignment":[0,1],"goal":6,"start":7,"action_noise":0.15,"location_history":"[7,8,0,4,8,0,1,2,3,7,8,5,10,2,6]","action_history":"[0,1,1,1,0,0,0,0,1,0,0,0,1,1]","door_history":"[0,1,1,1,0,0,0,0,1,0,0,0,1,1]","location_rts":"[9629,340,491,483,212,810,971,501,427,635,332,291,531,267]","trial_type":"two-door-navigation","trial_index":32,"time_elapsed":1733596,"internal_node_id":"0.0-2.0-30.0"},{"group":"dicyclic group of order 12","room_assignment":["ivory","grey","green","olive","purple","pink","orange","red","cyan","yellow","brown","blue"],"door_color_assignment":["white","black"],"door_generator_assignment":[0,1],"goal":0,"start":6,"action_noise":0.15,"location_history":"[6,10,7,8,5,10,7,8,0]","action_history":"[1,0,0,1,0,0,0,1]","door_history":"[1,0,0,1,0,0,0,1]","location_rts":"[1237,427,363,3275,1668,364,299,188]","trial_type":"two-door-navigation","trial_index":33,"time_elapsed":1753084,"internal_node_id":"0.0-2.0-31.0"},{"group":"dicyclic group of order 12","room_assignment":["ivory","grey","green","olive","purple","pink","orange","red","cyan","yellow","brown","blue"],"door_color_assignment":["white","black"],"door_generator_assignment":[0,1],"goal":11,"start":0,"action_noise":0.15,"location_history":"[0,4,8,5,10,2,6,10,7,11]","action_history":"[1,1,0,0,1,1,0,0,1]","door_history":"[1,1,0,0,1,1,0,0,1]","location_rts":"[1411,363,3644,98,219,379,355,691,1203]","trial_type":"two-door-navigation","trial_index":34,"time_elapsed":1774138,"internal_node_id":"0.0-2.0-32.0"},{"group":"dicyclic group of order 12","room_assignment":["ivory","grey","green","olive","purple","pink","orange","red","cyan","yellow","brown","blue"],"door_color_assignment":["white","black"],"door_generator_assignment":[0,1],"goal":9,"start":11,"action_noise":0.15,"location_history":"[11,4,9]","action_history":"[0,0]","door_history":"[0,0]","location_rts":"[5604,747]","trial_type":"two-door-navigation","trial_index":35,"time_elapsed":1786034,"internal_node_id":"0.0-2.0-33.0"},{"group":"dicyclic group of order 12","room_assignment":["ivory","grey","green","olive","purple","pink","orange","red","cyan","yellow","brown","blue"],"door_color_assignment":["white","black"],"door_generator_assignment":[0,1],"goal":5,"start":9,"action_noise":0.15,"location_history":"[9,1,5]","action_history":"[0,1]","door_history":"[0,1]","location_rts":"[3916,482]","trial_type":"two-door-navigation","trial_index":36,"time_elapsed":1795978,"internal_node_id":"0.0-2.0-34.0"},{"view_history":"[{\"page_index\":0,\"viewing_time\":4355}]","rt":4355,"trial_type":"instructions","trial_index":37,"time_elapsed":1801334,"internal_node_id":"0.0-3.0"},{"view_history":"[{\"page_index\":0,\"viewing_time\":3847},{\"page_index\":1,\"viewing_time\":27886}]","rt":31733,"trial_type":"instructions","trial_index":38,"time_elapsed":1834068,"internal_node_id":"0.0-4.0"},{"group":"dicyclic group of order 12","fractal_assignment":["../images/ylw_slt.png","../images/grn_prp.png","../images/gry_blk.png","../images/pnk_blu.png","../images/wht_red.png","../images/cyn_red.png","../images/grn_red.png","../images/ylw_pnk.png","../images/org_blu.png","../images/grn_blu.png","../images/red_prp.png","../images/blu_wht.png"],"mutagen_generator_assignment":[0,1],"goal":7,"start":11,"action_noise":0.15,"location_history":"[11,4,9,1,5,9,1,2,6,10,7]","action_history":"[0,0,1,1,1,1,0,1,1,0]","mutagen_history":"[0,0,1,1,1,1,0,1,1,0]","location_rts":"[6358,3626,937,1170,566,508,384,778,714,498]","trial_type":"fractal-mutation","trial_index":39,"time_elapsed":1863765,"internal_node_id":"0.0-5.0-0.0"},{"group":"dicyclic group of order 12","fractal_assignment":["../images/ylw_slt.png","../images/grn_prp.png","../images/gry_blk.png","../images/pnk_blu.png","../images/wht_red.png","../images/cyn_red.png","../images/grn_red.png","../images/ylw_pnk.png","../images/org_blu.png","../images/grn_blu.png","../images/red_prp.png","../images/blu_wht.png"],"mutagen_generator_assignment":[0,1],"goal":8,"start":7,"action_noise":0.15,"location_history":"[7,8]","action_history":"[0]","mutagen_history":"[0]","location_rts":"[1635]","trial_type":"fractal-mutation","trial_index":40,"time_elapsed":1869925,"internal_node_id":"0.0-5.0-1.0"},{"group":"dicyclic group of order 12","fractal_assignment":["../images/ylw_slt.png","../images/grn_prp.png","../images/gry_blk.png","../images/pnk_blu.png","../images/wht_red.png","../images/cyn_red.png","../images/grn_red.png","../images/ylw_pnk.png","../images/org_blu.png","../images/grn_blu.png","../images/red_prp.png","../images/blu_wht.png"],"mutagen_generator_assignment":[0,1],"goal":4,"start":8,"action_noise":0.15,"location_history":"[8,0,1,2,3,0,4]","action_history":"[1,0,1,0,1,1]","mutagen_history":"[1,0,1,0,1,1]","location_rts":"[1788,2065,686,686,1337,979]","trial_type":"fractal-mutation","trial_index":41,"time_elapsed":1887421,"internal_node_id":"0.0-5.0-2.0"},{"group":"dicyclic group of order 12","fractal_assignment":["../images/ylw_slt.png","../images/grn_prp.png","../images/gry_blk.png","../images/pnk_blu.png","../images/wht_red.png","../images/cyn_red.png","../images/grn_red.png","../images/ylw_pnk.png","../images/org_blu.png","../images/grn_blu.png","../images/red_prp.png","../images/blu_wht.png"],"mutagen_generator_assignment":[0,1],"goal":5,"start":4,"action_noise":0.15,"location_history":"[4,8,0,1,5]","action_history":"[0,1,1,1]","mutagen_history":"[0,1,1,1]","location_rts":"[3107,962,756,802]","trial_type":"fractal-mutation","trial_index":42,"time_elapsed":1900826,"internal_node_id":"0.0-5.0-3.0"},{"group":"dicyclic group of order 12","fractal_assignment":["../images/ylw_slt.png","../images/grn_prp.png","../images/gry_blk.png","../images/pnk_blu.png","../images/wht_red.png","../images/cyn_red.png","../images/grn_red.png","../images/ylw_pnk.png","../images/org_blu.png","../images/grn_blu.png","../images/red_prp.png","../images/blu_wht.png"],"mutagen_generator_assignment":[0,1],"goal":10,"start":5,"action_noise":0.15,"location_history":"[5,9,6,11,4,9,1,2,3,7,8,0,1,2,6,11,4,9,6,10]","action_history":"[1,0,0,0,0,1,0,0,1,0,0,1,0,0,0,0,0,0,1]","mutagen_history":"[1,0,0,0,0,1,0,0,1,0,0,1,0,0,0,0,0,0,1]","location_rts":"[2013,954,753,640,702,794,731,697,786,1035,969,594,475,475,729,706,542,1392,947]","trial_type":"fractal-mutation","trial_index":43,"time_elapsed":1940343,"internal_node_id":"0.0-5.0-4.0"},{"group":"dicyclic group of order 12","fractal_assignment":["../images/ylw_slt.png","../images/grn_prp.png","../images/gry_blk.png","../images/pnk_blu.png","../images/wht_red.png","../images/cyn_red.png","../images/grn_red.png","../images/ylw_pnk.png","../images/org_blu.png","../images/grn_blu.png","../images/red_prp.png","../images/blu_wht.png"],"mutagen_generator_assignment":[0,1],"goal":1,"start":10,"action_noise":0.15,"location_history":"[10,7,11,3,0,4,9,6,11,3,7,8,0,1]","action_history":"[0,1,1,0,1,0,0,0,1,1,1,1,0]","mutagen_history":"[0,1,1,0,1,0,0,0,1,1,1,1,0]","location_rts":"[23708,5891,586,722,834,592,483,42352,1211,692,963,531,459]","trial_type":"fractal-mutation","trial_index":44,"time_elapsed":2036718,"internal_node_id":"0.0-5.0-5.0"},{"group":"dicyclic group of order 12","fractal_assignment":["../images/ylw_slt.png","../images/grn_prp.png","../images/gry_blk.png","../images/pnk_blu.png","../images/wht_red.png","../images/cyn_red.png","../images/grn_red.png","../images/ylw_pnk.png","../images/org_blu.png","../images/grn_blu.png","../images/red_prp.png","../images/blu_wht.png"],"mutagen_generator_assignment":[0,1],"goal":6,"start":1,"action_noise":0.15,"location_history":"[1,5,9,6]","action_history":"[1,1,0]","mutagen_history":"[1,1,0]","location_rts":"[7452,752,818]","trial_type":"fractal-mutation","trial_index":45,"time_elapsed":2052463,"internal_node_id":"0.0-5.0-6.0"},{"group":"dicyclic group of order 12","fractal_assignment":["../images/ylw_slt.png","../images/grn_prp.png","../images/gry_blk.png","../images/pnk_blu.png","../images/wht_red.png","../images/cyn_red.png","../images/grn_red.png","../images/ylw_pnk.png","../images/org_blu.png","../images/grn_blu.png","../images/red_prp.png","../images/blu_wht.png"],"mutagen_generator_assignment":[0,1],"goal":9,"start":6,"action_noise":0.15,"location_history":"[6,10,7,8,5,9]","action_history":"[1,0,0,0,1]","mutagen_history":"[1,0,0,0,1]","location_rts":"[37462,1138,449,490,888]","trial_type":"fractal-mutation","trial_index":46,"time_elapsed":2101704,"internal_node_id":"0.0-5.0-7.0"},{"group":"dicyclic group of order 12","fractal_assignment":["../images/ylw_slt.png","../images/grn_prp.png","../images/gry_blk.png","../images/pnk_blu.png","../images/wht_red.png","../images/cyn_red.png","../images/grn_red.png","../images/ylw_pnk.png","../images/org_blu.png","../images/grn_blu.png","../images/red_prp.png","../images/blu_wht.png"],"mutagen_generator_assignment":[0,1],"goal":2,"start":9,"action_noise":0.15,"location_history":"[9,1,2]","action_history":"[1,1]","mutagen_history":"[1,1]","location_rts":"[18092,1049]","trial_type":"fractal-mutation","trial_index":47,"time_elapsed":2126518,"internal_node_id":"0.0-5.0-8.0"},{"group":"dicyclic group of order 12","fractal_assignment":["../images/ylw_slt.png","../images/grn_prp.png","../images/gry_blk.png","../images/pnk_blu.png","../images/wht_red.png","../images/cyn_red.png","../images/grn_red.png","../images/ylw_pnk.png","../images/org_blu.png","../images/grn_blu.png","../images/red_prp.png","../images/blu_wht.png"],"mutagen_generator_assignment":[0,1],"goal":0,"start":2,"action_noise":0.15,"location_history":"[2,6,11,4,9,1,2,3,0]","action_history":"[1,0,0,0,1,0,0,0]","mutagen_history":"[1,0,0,0,1,0,0,0]","location_rts":"[1765,732,385,593,666,860,548,817]","trial_type":"fractal-mutation","trial_index":48,"time_elapsed":2144830,"internal_node_id":"0.0-5.0-9.0"},{"group":"dicyclic group of order 12","fractal_assignment":["../images/ylw_slt.png","../images/grn_prp.png","../images/gry_blk.png","../images/pnk_blu.png","../images/wht_red.png","../images/cyn_red.png","../images/grn_red.png","../images/ylw_pnk.png","../images/org_blu.png","../images/grn_blu.png","../images/red_prp.png","../images/blu_wht.png"],"mutagen_generator_assignment":[0,1],"goal":3,"start":0,"action_noise":0.15,"location_history":"[0,4,8,0,1,5,9,6,11,4,8,5,10,2,3]","action_history":"[1,1,1,0,1,1,0,0,0,1,0,0,1,0]","mutagen_history":"[1,1,1,0,1,1,0,0,0,1,0,0,1,0]","location_rts":"[5001,597,745,1019,1331,1290,654,872,1267,768,955,1241,935,826]","trial_type":"fractal-mutation","trial_index":49,"time_elapsed":2180771,"internal_node_id":"0.0-5.0-10.0"},{"group":"dicyclic group of order 12","fractal_assignment":["../images/ylw_slt.png","../images/grn_prp.png","../images/gry_blk.png","../images/pnk_blu.png","../images/wht_red.png","../images/cyn_red.png","../images/grn_red.png","../images/ylw_pnk.png","../images/org_blu.png","../images/grn_blu.png","../images/red_prp.png","../images/blu_wht.png"],"mutagen_generator_assignment":[0,1],"goal":10,"start":3,"action_noise":0.15,"location_history":"[3,7,11,4,9,1,5,9,1,2,3,0,1,2,6,10]","action_history":"[1,1,0,0,1,1,1,0,0,0,0,0,0,1,1]","mutagen_history":"[1,1,0,0,1,1,1,0,0,0,0,0,0,1,1]","location_rts":"[2571,4634,915,928,736,619,859,1141,665,942,809,856,1682,881,1147]","trial_type":"fractal-mutation","trial_index":50,"time_elapsed":2219628,"internal_node_id":"0.0-5.0-11.0"},{"group":"dicyclic group of order 12","fractal_assignment":["../images/ylw_slt.png","../images/grn_prp.png","../images/gry_blk.png","../images/pnk_blu.png","../images/wht_red.png","../images/cyn_red.png","../images/grn_red.png","../images/ylw_pnk.png","../images/org_blu.png","../images/grn_blu.png","../images/red_prp.png","../images/blu_wht.png"],"mutagen_generator_assignment":[0,1],"goal":8,"start":10,"action_noise":0.15,"location_history":"[10,7,8]","action_history":"[0,0]","mutagen_history":"[0,0]","location_rts":"[2214,801]","trial_type":"fractal-mutation","trial_index":51,"time_elapsed":2228190,"internal_node_id":"0.0-5.0-12.0"},{"group":"dicyclic group of order 12","fractal_assignment":["../images/ylw_slt.png","../images/grn_prp.png","../images/gry_blk.png","../images/pnk_blu.png","../images/wht_red.png","../images/cyn_red.png","../images/grn_red.png","../images/ylw_pnk.png","../images/org_blu.png","../images/grn_blu.png","../images/red_prp.png","../images/blu_wht.png"],"mutagen_generator_assignment":[0,1],"goal":4,"start":8,"action_noise":0.15,"location_history":"[8,5,10,7,8,5,9,6,10,7,11,4]","action_history":"[1,0,0,0,0,1,0,0,0,1,0]","mutagen_history":"[1,0,0,0,0,1,0,0,0,1,0]","location_rts":"[2739,802,724,787,675,1026,1099,522,1058,643,1146]","trial_type":"fractal-mutation","trial_index":52,"time_elapsed":2254532,"internal_node_id":"0.0-5.0-13.0"},{"group":"dicyclic group of order 12","fractal_assignment":["../images/ylw_slt.png","../images/grn_prp.png","../images/gry_blk.png","../images/pnk_blu.png","../images/wht_red.png","../images/cyn_red.png","../images/grn_red.png","../images/ylw_pnk.png","../images/org_blu.png","../images/grn_blu.png","../images/red_prp.png","../images/blu_wht.png"],"mutagen_generator_assignment":[0,1],"goal":0,"start":4,"action_noise":0.15,"location_history":"[4,8,0]","action_history":"[1,1]","mutagen_history":"[1,1]","location_rts":"[1684,755]","trial_type":"fractal-mutation","trial_index":53,"time_elapsed":2262641,"internal_node_id":"0.0-5.0-14.0"},{"group":"dicyclic group of order 12","fractal_assignment":["../images/ylw_slt.png","../images/grn_prp.png","../images/gry_blk.png","../images/pnk_blu.png","../images/wht_red.png","../images/cyn_red.png","../images/grn_red.png","../images/ylw_pnk.png","../images/org_blu.png","../images/grn_blu.png","../images/red_prp.png","../images/blu_wht.png"],"mutagen_generator_assignment":[0,1],"goal":11,"start":0,"action_noise":0.15,"location_history":"[0,4,8,5,9,1,2,6,10,2,3,0,4,8,0,4,8,5,10,2,6,11]","action_history":"[1,1,1,1,0,0,1,1,1,0,0,1,1,1,1,1,0,0,1,1,0]","mutagen_history":"[1,1,1,1,0,0,1,1,1,0,0,1,1,1,1,1,0,0,1,1,0]","location_rts":"[1300,1884,1508,1347,547,695,4448,2050,883,804,2146,761,705,819,1100,1099,972,969,1355,787,723]","trial_type":"fractal-mutation","trial_index":54,"time_elapsed":2315566,"internal_node_id":"0.0-5.0-15.0"},{"group":"dicyclic group of order 12","fractal_assignment":["../images/ylw_slt.png","../images/grn_prp.png","../images/gry_blk.png","../images/pnk_blu.png","../images/wht_red.png","../images/cyn_red.png","../images/grn_red.png","../images/ylw_pnk.png","../images/org_blu.png","../images/grn_blu.png","../images/red_prp.png","../images/blu_wht.png"],"mutagen_generator_assignment":[0,1],"goal":2,"start":11,"action_noise":0.15,"location_history":"[11,3,7,8,0,1,5,9,1,2]","action_history":"[0,1,1,1,0,1,1,1,1]","mutagen_history":"[0,1,1,1,0,1,1,1,1]","location_rts":"[1460,1258,571,706,1913,691,523,426,396]","trial_type":"fractal-mutation","trial_index":55,"time_elapsed":2336682,"internal_node_id":"0.0-5.0-16.0"},{"group":"dicyclic group of order 12","fractal_assignment":["../images/ylw_slt.png","../images/grn_prp.png","../images/gry_blk.png","../images/pnk_blu.png","../images/wht_red.png","../images/cyn_red.png","../images/grn_red.png","../images/ylw_pnk.png","../images/org_blu.png","../images/grn_blu.png","../images/red_prp.png","../images/blu_wht.png"],"mutagen_generator_assignment":[0,1],"goal":7,"start":2,"action_noise":0.15,"location_history":"[2,3,0,4,8,0,1,5,9,1,2,3,0,4,9,6,10,7]","action_history":"[0,0,1,1,1,0,1,1,0,0,0,0,1,0,1,1,0]","mutagen_history":"[0,0,1,1,1,0,1,1,0,0,0,0,1,0,1,1,0]","location_rts":"[1805,787,1475,1003,659,708,425,523,962,491,599,799,915,1058,1050,1219,1227]","trial_type":"fractal-mutation","trial_index":56,"time_elapsed":2373941,"internal_node_id":"0.0-5.0-17.0"},{"group":"dicyclic group of order 12","fractal_assignment":["../images/ylw_slt.png","../images/grn_prp.png","../images/gry_blk.png","../images/pnk_blu.png","../images/wht_red.png","../images/cyn_red.png","../images/grn_red.png","../images/ylw_pnk.png","../images/org_blu.png","../images/grn_blu.png","../images/red_prp.png","../images/blu_wht.png"],"mutagen_generator_assignment":[0,1],"goal":5,"start":7,"action_noise":0.15,"location_history":"[7,8,0,4,8,5]","action_history":"[0,1,1,1,0]","mutagen_history":"[0,1,1,1,0]","location_rts":"[26956,1227,579,482,692]","trial_type":"fractal-mutation","trial_index":57,"time_elapsed":2412701,"internal_node_id":"0.0-5.0-18.0"},{"group":"dicyclic group of order 12","fractal_assignment":["../images/ylw_slt.png","../images/grn_prp.png","../images/gry_blk.png","../images/pnk_blu.png","../images/wht_red.png","../images/cyn_red.png","../images/grn_red.png","../images/ylw_pnk.png","../images/org_blu.png","../images/grn_blu.png","../images/red_prp.png","../images/blu_wht.png"],"mutagen_generator_assignment":[0,1],"goal":6,"start":5,"action_noise":0.15,"location_history":"[5,9,1,5,9,6]","action_history":"[1,0,1,1,0]","mutagen_history":"[1,0,1,1,0]","location_rts":"[1620,1818,8481,820,933]","trial_type":"fractal-mutation","trial_index":58,"time_elapsed":2435220,"internal_node_id":"0.0-5.0-19.0"},{"group":"dicyclic group of order 12","fractal_assignment":["../images/ylw_slt.png","../images/grn_prp.png","../images/gry_blk.png","../images/pnk_blu.png","../images/wht_red.png","../images/cyn_red.png","../images/grn_red.png","../images/ylw_pnk.png","../images/org_blu.png","../images/grn_blu.png","../images/red_prp.png","../images/blu_wht.png"],"mutagen_generator_assignment":[0,1],"goal":3,"start":6,"action_noise":0.15,"location_history":"[6,11,4,9,6,10,2,3]","action_history":"[0,0,0,0,0,0,0]","mutagen_history":"[0,0,0,0,0,0,0]","location_rts":"[1402,1459,1026,402,506,650,2801]","trial_type":"fractal-mutation","trial_index":59,"time_elapsed":2454122,"internal_node_id":"0.0-5.0-20.0"},{"group":"dicyclic group of order 12","fractal_assignment":["../images/ylw_slt.png","../images/grn_prp.png","../images/gry_blk.png","../images/pnk_blu.png","../images/wht_red.png","../images/cyn_red.png","../images/grn_red.png","../images/ylw_pnk.png","../images/org_blu.png","../images/grn_blu.png","../images/red_prp.png","../images/blu_wht.png"],"mutagen_generator_assignment":[0,1],"goal":1,"start":3,"action_noise":0.15,"location_history":"[3,7,11,3,7,11,4,9,1]","action_history":"[1,1,1,1,1,0,0,1]","mutagen_history":"[1,1,1,1,1,0,0,1]","location_rts":"[2346,619,803,876,1812,772,561,2418]","trial_type":"fractal-mutation","trial_index":60,"time_elapsed":2476432,"internal_node_id":"0.0-5.0-21.0"},{"group":"dicyclic group of order 12","fractal_assignment":["../images/ylw_slt.png","../images/grn_prp.png","../images/gry_blk.png","../images/pnk_blu.png","../images/wht_red.png","../images/cyn_red.png","../images/grn_red.png","../images/ylw_pnk.png","../images/org_blu.png","../images/grn_blu.png","../images/red_prp.png","../images/blu_wht.png"],"mutagen_generator_assignment":[0,1],"goal":9,"start":1,"action_noise":0.15,"location_history":"[1,2,6,10,7,11,4,9]","action_history":"[0,1,1,0,0,0,0]","mutagen_history":"[0,1,1,0,0,0,0]","location_rts":"[3091,722,683,618,475,528,848]","trial_type":"fractal-mutation","trial_index":61,"time_elapsed":2494277,"internal_node_id":"0.0-5.0-22.0"},{"group":"dicyclic group of order 12","fractal_assignment":["../images/ylw_slt.png","../images/grn_prp.png","../images/gry_blk.png","../images/pnk_blu.png","../images/wht_red.png","../images/cyn_red.png","../images/grn_red.png","../images/ylw_pnk.png","../images/org_blu.png","../images/grn_blu.png","../images/red_prp.png","../images/blu_wht.png"],"mutagen_generator_assignment":[0,1],"goal":3,"start":9,"action_noise":0.15,"location_history":"[9,1,5,9,1,2,3]","action_history":"[1,1,1,1,0,0]","mutagen_history":"[1,1,1,1,0,0]","location_rts":"[2805,722,548,836,492,832]","trial_type":"fractal-mutation","trial_index":62,"time_elapsed":2510451,"internal_node_id":"0.0-5.0-23.0"},{"group":"dicyclic group of order 12","fractal_assignment":["../images/ylw_slt.png","../images/grn_prp.png","../images/gry_blk.png","../images/pnk_blu.png","../images/wht_red.png","../images/cyn_red.png","../images/grn_red.png","../images/ylw_pnk.png","../images/org_blu.png","../images/grn_blu.png","../images/red_prp.png","../images/blu_wht.png"],"mutagen_generator_assignment":[0,1],"goal":4,"start":3,"action_noise":0.15,"location_history":"[3,0,1,2,6,10,2,6,11,4]","action_history":"[0,0,0,0,1,1,1,0,0]","mutagen_history":"[0,0,0,0,1,1,1,0,0]","location_rts":"[8101,778,771,1162,962,499,645,652,507]","trial_type":"fractal-mutation","trial_index":63,"time_elapsed":2537463,"internal_node_id":"0.0-5.0-24.0"},{"group":"dicyclic group of order 12","fractal_assignment":["../images/ylw_slt.png","../images/grn_prp.png","../images/gry_blk.png","../images/pnk_blu.png","../images/wht_red.png","../images/cyn_red.png","../images/grn_red.png","../images/ylw_pnk.png","../images/org_blu.png","../images/grn_blu.png","../images/red_prp.png","../images/blu_wht.png"],"mutagen_generator_assignment":[0,1],"goal":2,"start":4,"action_noise":0.15,"location_history":"[4,9,6,10,7,8,0,4,9,1,5,9,1,5,10,7,11,3,7,11,3,0,1,2]","action_history":"[1,0,0,0,0,0,1,1,1,1,0,1,1,0,0,1,1,1,1,0,0,1,0]","mutagen_history":"[1,0,0,0,0,0,1,1,1,1,0,1,1,0,0,1,1,1,1,0,0,1,0]","location_rts":"[2055,721,634,690,610,522,513,508,452,458,620,604,700,987,732,1145,1362,1106,844,861,804,634,746]","trial_type":"fractal-mutation","trial_index":64,"time_elapsed":2583797,"internal_node_id":"0.0-5.0-25.0"},{"group":"dicyclic group of order 12","fractal_assignment":["../images/ylw_slt.png","../images/grn_prp.png","../images/gry_blk.png","../images/pnk_blu.png","../images/wht_red.png","../images/cyn_red.png","../images/grn_red.png","../images/ylw_pnk.png","../images/org_blu.png","../images/grn_blu.png","../images/red_prp.png","../images/blu_wht.png"],"mutagen_generator_assignment":[0,1],"goal":1,"start":2,"action_noise":0.15,"location_history":"[2,6,10,2,6,10,7,8,5,10,7,8,5,9,6,11,4,9,1]","action_history":"[1,1,1,1,0,0,0,0,0,0,0,0,1,0,0,0,0,1]","mutagen_history":"[1,1,1,1,0,0,0,0,0,0,0,0,1,0,0,0,0,1]","location_rts":"[4308,804,604,508,309,528,416,503,1227,1004,475,420,427,1619,465,953,624,689]","trial_type":"fractal-mutation","trial_index":65,"time_elapsed":2622242,"internal_node_id":"0.0-5.0-26.0"},{"group":"dicyclic group of order 12","fractal_assignment":["../images/ylw_slt.png","../images/grn_prp.png","../images/gry_blk.png","../images/pnk_blu.png","../images/wht_red.png","../images/cyn_red.png","../images/grn_red.png","../images/ylw_pnk.png","../images/org_blu.png","../images/grn_blu.png","../images/red_prp.png","../images/blu_wht.png"],"mutagen_generator_assignment":[0,1],"goal":8,"start":1,"action_noise":0.15,"location_history":"[1,5,10,7,8]","action_history":"[0,0,0,0]","mutagen_history":"[0,0,0,0]","location_rts":"[1821,1339,555,650]","trial_type":"fractal-mutation","trial_index":66,"time_elapsed":2634201,"internal_node_id":"0.0-5.0-27.0"},{"group":"dicyclic group of order 12","fractal_assignment":["../images/ylw_slt.png","../images/grn_prp.png","../images/gry_blk.png","../images/pnk_blu.png","../images/wht_red.png","../images/cyn_red.png","../images/grn_red.png","../images/ylw_pnk.png","../images/org_blu.png","../images/grn_blu.png","../images/red_prp.png","../images/blu_wht.png"],"mutagen_generator_assignment":[0,1],"goal":10,"start":8,"action_noise":0.15,"location_history":"[8,5,10]","action_history":"[0,0]","mutagen_history":"[0,0]","location_rts":"[2675,475]","trial_type":"fractal-mutation","trial_index":67,"time_elapsed":2642897,"internal_node_id":"0.0-5.0-28.0"},{"group":"dicyclic group of order 12","fractal_assignment":["../images/ylw_slt.png","../images/grn_prp.png","../images/gry_blk.png","../images/pnk_blu.png","../images/wht_red.png","../images/cyn_red.png","../images/grn_red.png","../images/ylw_pnk.png","../images/org_blu.png","../images/grn_blu.png","../images/red_prp.png","../images/blu_wht.png"],"mutagen_generator_assignment":[0,1],"goal":7,"start":10,"action_noise":0.15,"location_history":"[10,7]","action_history":"[0]","mutagen_history":"[0]","location_rts":"[1003]","trial_type":"fractal-mutation","trial_index":68,"time_elapsed":2648424,"internal_node_id":"0.0-5.0-29.0"},{"group":"dicyclic group of order 12","fractal_assignment":["../images/ylw_slt.png","../images/grn_prp.png","../images/gry_blk.png","../images/pnk_blu.png","../images/wht_red.png","../images/cyn_red.png","../images/grn_red.png","../images/ylw_pnk.png","../images/org_blu.png","../images/grn_blu.png","../images/red_prp.png","../images/blu_wht.png"],"mutagen_generator_assignment":[0,1],"goal":6,"start":7,"action_noise":0.15,"location_history":"[7,8,5,10,2,3,0,4,8,5,9,1,5,9,1,2,6]","action_history":"[0,0,0,0,0,0,1,1,0,1,1,1,1,1,0,1]","mutagen_history":"[0,0,0,0,0,0,1,1,0,1,1,1,1,1,0,1]","location_rts":"[2412,674,442,490,522,610,955,571,1355,755,1313,1410,778,1916,375,1320]","trial_type":"fractal-mutation","trial_index":69,"time_elapsed":2684749,"internal_node_id":"0.0-5.0-30.0"},{"group":"dicyclic group of order 12","fractal_assignment":["../images/ylw_slt.png","../images/grn_prp.png","../images/gry_blk.png","../images/pnk_blu.png","../images/wht_red.png","../images/cyn_red.png","../images/grn_red.png","../images/ylw_pnk.png","../images/org_blu.png","../images/grn_blu.png","../images/red_prp.png","../images/blu_wht.png"],"mutagen_generator_assignment":[0,1],"goal":0,"start":6,"action_noise":0.15,"location_history":"[6,11,4,9,6,10,2,3,7,8,0]","action_history":"[0,0,1,1,1,0,0,1,1,1]","mutagen_history":"[0,0,1,1,1,0,0,1,1,1]","location_rts":"[2189,818,674,548,644,1170,1168,792,674,794]","trial_type":"fractal-mutation","trial_index":70,"time_elapsed":2708377,"internal_node_id":"0.0-5.0-31.0"},{"group":"dicyclic group of order 12","fractal_assignment":["../images/ylw_slt.png","../images/grn_prp.png","../images/gry_blk.png","../images/pnk_blu.png","../images/wht_red.png","../images/cyn_red.png","../images/grn_red.png","../images/ylw_pnk.png","../images/org_blu.png","../images/grn_blu.png","../images/red_prp.png","../images/blu_wht.png"],"mutagen_generator_assignment":[0,1],"goal":11,"start":0,"action_noise":0.15,"location_history":"[0,4,8,0,4,8,5,9,6,10,2,6,10,2,3,0,1,2,6,11]","action_history":"[1,1,1,0,1,1,1,0,1,1,1,1,0,0,1,0,0,0,0]","mutagen_history":"[1,1,1,0,1,1,1,0,1,1,1,1,0,0,1,0,0,0,0]","location_rts":"[1373,706,477,2348,875,501,1121,1113,635,747,1011,668,804,890,1298,954,459,811,619]","trial_type":"fractal-mutation","trial_index":71,"time_elapsed":2749583,"internal_node_id":"0.0-5.0-32.0"},{"group":"dicyclic group of order 12","fractal_assignment":["../images/ylw_slt.png","../images/grn_prp.png","../images/gry_blk.png","../images/pnk_blu.png","../images/wht_red.png","../images/cyn_red.png","../images/grn_red.png","../images/ylw_pnk.png","../images/org_blu.png","../images/grn_blu.png","../images/red_prp.png","../images/blu_wht.png"],"mutagen_generator_assignment":[0,1],"goal":9,"start":11,"action_noise":0.15,"location_history":"[11,3,7,11,3,0,1,5,10,2,3,0,4,8,0,1,2,6,10,2,3,0,1,2,3,0,4,8,5,10,7,8,0,4,8,0,4,9]","action_history":"[1,1,1,1,0,0,1,0,0,0,0,1,1,1,0,0,1,1,0,0,0,0,0,1,0,1,1,0,0,0,0,1,1,1,1,1,0]","mutagen_history":"[1,1,1,1,0,0,1,0,0,0,0,1,1,1,0,0,1,1,0,0,0,0,0,1,0,1,1,0,0,0,0,1,1,1,1,1,0]","location_rts":"[2901,820,772,899,571,850,840,843,650,751,538,547,611,715,580,856,602,1163,491,627,530,604,602,651,554,549,633,531,723,2466,867,2145,771,531,804,645,444]","trial_type":"fractal-mutation","trial_index":72,"time_elapsed":2823159,"internal_node_id":"0.0-5.0-33.0"},{"group":"dicyclic group of order 12","fractal_assignment":["../images/ylw_slt.png","../images/grn_prp.png","../images/gry_blk.png","../images/pnk_blu.png","../images/wht_red.png","../images/cyn_red.png","../images/grn_red.png","../images/ylw_pnk.png","../images/org_blu.png","../images/grn_blu.png","../images/red_prp.png","../images/blu_wht.png"],"mutagen_generator_assignment":[0,1],"goal":5,"start":9,"action_noise":0.15,"location_history":"[9,1,5]","action_history":"[1,1]","mutagen_history":"[1,1]","location_rts":"[11700,1088]","trial_type":"fractal-mutation","trial_index":73,"time_elapsed":2841622,"internal_node_id":"0.0-5.0-34.0"},{"view_history":"[{\"page_index\":0,\"viewing_time\":9237}]","rt":9238,"trial_type":"instructions","trial_index":74,"time_elapsed":2851860,"internal_node_id":"0.0-6.0"},{"rt":39538,"responses":"{\"Q0\":\"I still felt pretty lost on the first session, but thought I was able to pick up the second (acid gamma) a little quicker.  Still a difficult process for me.\"}","trial_type":"survey-text","trial_index":75,"time_elapsed":2892401,"internal_node_id":"0.0-7.0"}]