[{"view_history":"[{\"page_index\":0,\"viewing_time\":5997},{\"page_index\":1,\"viewing_time\":15432}]","rt":21430,"trial_type":"instructions","trial_index":0,"time_elapsed":21433,"internal_node_id":"0.0-0.0"},{"view_history":"[{\"page_index\":0,\"viewing_time\":2277},{\"page_index\":1,\"viewing_time\":27770}]","rt":30049,"trial_type":"instructions","trial_index":1,"time_elapsed":52482,"internal_node_id":"0.0-1.0"},{"group":"dihedral group of order 12","room_assignment":["brown","grey","yellow","olive","green","cyan","ivory","orange","red","pink","blue","purple"],"door_color_assignment":["white","black"],"door_generator_assignment":[1,0],"goal":7,"start":11,"action_noise":0.15,"location_history":"[11,5,0,1,2,8,2,3,9,8,7]","action_history":"[1,0,0,0,1,0,0,0,0,0]","door_history":"[0,1,1,1,0,1,1,1,1,1]","location_rts":"[2429,668,650,1748,951,1123,892,884,950,705]","trial_type":"two-door-navigation","trial_index":2,"time_elapsed":78955,"internal_node_id":"0.0-2.0-0.0"},{"group":"dihedral group of order 12","room_assignment":["brown","grey","yellow","olive","green","cyan","ivory","orange","red","pink","blue","purple"],"door_color_assignment":["white","black"],"door_generator_assignment":[1,0],"goal":8,"start":7,"action_noise":0.15,"location_history":"[7,1,7,1,2,3,4,5,0,1,7,6,0,6,11,10,4,5,0,6,11,10,9,8]","action_history":"[1,1,1,0,0,0,0,0,0,1,0,1,1,0,1,1,0,0,1,0,0,0,0]","door_history":"[0,0,0,1,1,1,1,1,1,0,1,0,0,1,0,0,1,1,0,1,1,1,1]","location_rts":"[1834,665,2286,517,848,1035,1039,441,684,1048,490,882,613,899,1440,1276,708,690,957,849,592,452,400]","trial_type":"two-door-navigation","trial_index":3,"time_elapsed":130178,"internal_node_id":"0.0-2.0-1.0"},{"group":"dihedral group of order 12","room_assignment":["brown","grey","yellow","olive","green","cyan","ivory","orange","red","pink","blue","purple"],"door_color_assignment":["white","black"],"door_generator_assignment":[1,0],"goal":4,"start":8,"action_noise":0.15,"location_history":"[8,7,1,2,3,4]","action_history":"[0,0,0,1,0]","door_history":"[1,1,1,0,1]","location_rts":"[1632,813,490,2178,1621]","trial_type":"two-door-navigation","trial_index":4,"time_elapsed":146130,"internal_node_id":"0.0-2.0-2.0"},{"group":"dihedral group of order 12","room_assignment":["brown","grey","yellow","olive","green","cyan","ivory","orange","red","pink","blue","purple"],"door_color_assignment":["white","black"],"door_generator_assignment":[1,0],"goal":5,"start":4,"action_noise":0.15,"location_history":"[4,10,4,10,9,8,2,8,7,6,11,5]","action_history":"[1,1,1,0,1,1,1,0,0,0,1]","door_history":"[0,0,0,1,0,0,0,1,1,1,0]","location_rts":"[15830,1251,985,848,877,842,720,820,531,1083,787]","trial_type":"two-door-navigation","trial_index":5,"time_elapsed":186745,"internal_node_id":"0.0-2.0-3.0"},{"group":"dihedral group of order 12","room_assignment":["brown","grey","yellow","olive","green","cyan","ivory","orange","red","pink","blue","purple"],"door_color_assignment":["white","black"],"door_generator_assignment":[1,0],"goal":10,"start":5,"action_noise":0.15,"location_history":"[5,0,1,7,1,7,1,7,1,2,3,4,5,0,1,2,3,4,5,0,1,2,8,7,1,2,8,7,1,2,8,2,8,7,6,11,10]","action_history":"[0,0,0,0,1,0,1,1,0,0,0,0,0,0,0,0,0,0,0,1,0,1,0,1,0,1,0,1,1,1,1,1,0,0,0,0]","door_history":"[1,1,1,1,0,1,0,0,1,1,1,1,1,1,1,1,1,1,1,0,1,0,1,0,1,0,1,0,0,0,0,0,1,1,1,1]","location_rts":"[1668,613,644,750,1179,476,797,298,1126,886,817,627,597,553,410,557,711,639,887,882,536,668,409,623,536,377,476,842,1196,857,1005,5253,726,1120,513,464]","trial_type":"two-door-navigation","trial_index":6,"time_elapsed":262438,"internal_node_id":"0.0-2.0-4.0"},{"group":"dihedral group of order 12","room_assignment":["brown","grey","yellow","olive","green","cyan","ivory","orange","red","pink","blue","purple"],"door_color_assignment":["white","black"],"door_generator_assignment":[1,0],"goal":1,"start":10,"action_noise":0.15,"location_history":"[10,4,10,9,3,9,3,9,8,7,1]","action_history":"[1,1,0,1,0,1,1,0,0,1]","door_history":"[0,0,1,0,1,0,0,1,1,0]","location_rts":"[10558,844,922,979,649,648,752,753,1090,1140]","trial_type":"two-door-navigation","trial_index":7,"time_elapsed":295497,"internal_node_id":"0.0-2.0-5.0"},{"group":"dihedral group of order 12","room_assignment":["brown","grey","yellow","olive","green","cyan","ivory","orange","red","pink","blue","purple"],"door_color_assignment":["white","black"],"door_generator_assignment":[1,0],"goal":6,"start":1,"action_noise":0.15,"location_history":"[1,2,8,2,3,9,8,2,3,4,10,4,10,4,5,11,10,9,3,9,8,7,1,2,8,7,6]","action_history":"[1,1,1,0,1,0,1,0,0,1,1,1,1,0,0,0,0,1,0,0,1,1,1,0,0,0]","door_history":"[0,0,0,1,0,1,0,1,1,0,0,0,0,1,1,1,1,0,1,1,0,0,0,1,1,1]","location_rts":"[1722,449,394,1036,701,766,758,732,672,1124,756,618,455,529,528,757,485,1123,963,1505,1267,1075,1060,740,444,492]","trial_type":"two-door-navigation","trial_index":8,"time_elapsed":350746,"internal_node_id":"0.0-2.0-6.0"},{"group":"dihedral group of order 12","room_assignment":["brown","grey","yellow","olive","green","cyan","ivory","orange","red","pink","blue","purple"],"door_color_assignment":["white","black"],"door_generator_assignment":[1,0],"goal":9,"start":6,"action_noise":0.15,"location_history":"[6,0,1,2,8,7,1,7,6,11,10,9]","action_history":"[1,0,0,1,0,1,1,0,0,0,0]","door_history":"[0,1,1,0,1,0,0,1,1,1,1]","location_rts":"[2278,499,766,705,868,1274,1401,429,287,522,664]","trial_type":"two-door-navigation","trial_index":9,"time_elapsed":377115,"internal_node_id":"0.0-2.0-7.0"},{"group":"dihedral group of order 12","room_assignment":["brown","grey","yellow","olive","green","cyan","ivory","orange","red","pink","blue","purple"],"door_color_assignment":["white","black"],"door_generator_assignment":[1,0],"goal":2,"start":9,"action_noise":0.15,"location_history":"[9,8,7,6,0,1,7,6,11,10,9,8,7,6,11,10,4,5,11,10,4,5,0,1,7,6,0,1,2]","action_history":"[0,0,0,1,0,1,0,0,0,0,0,0,0,0,0,1,1,1,0,1,0,1,0,1,0,1,0,0]","door_history":"[1,1,1,0,1,0,1,1,1,1,1,1,1,1,1,0,0,0,1,0,1,0,1,0,1,0,1,1]","location_rts":"[1803,782,699,865,966,916,842,572,436,346,576,717,473,427,723,719,536,904,975,301,404,401,378,1100,574,704,389,964]","trial_type":"two-door-navigation","trial_index":10,"time_elapsed":432870,"internal_node_id":"0.0-2.0-8.0"},{"group":"dihedral group of order 12","room_assignment":["brown","grey","yellow","olive","green","cyan","ivory","orange","red","pink","blue","purple"],"door_color_assignment":["white","black"],"door_generator_assignment":[1,0],"goal":0,"start":2,"action_noise":0.15,"location_history":"[2,3,9,8,7,6,0]","action_history":"[0,1,0,0,1,0]","door_history":"[1,0,1,1,0,1]","location_rts":"[1902,1471,1195,573,1338,1027]","trial_type":"two-door-navigation","trial_index":11,"time_elapsed":451162,"internal_node_id":"0.0-2.0-9.0"},{"group":"dihedral group of order 12","room_assignment":["brown","grey","yellow","olive","green","cyan","ivory","orange","red","pink","blue","purple"],"door_color_assignment":["white","black"],"door_generator_assignment":[1,0],"goal":3,"start":0,"action_noise":0.15,"location_history":"[0,6,0,1,7,6,0,6,11,10,4,10,9,3]","action_history":"[1,1,0,1,0,1,0,0,0,1,1,0,1]","door_history":"[0,0,1,0,1,0,1,1,1,0,0,1,0]","location_rts":"[2385,650,793,735,602,453,704,413,495,1047,1367,890,713]","trial_type":"two-door-navigation","trial_index":12,"time_elapsed":481911,"internal_node_id":"0.0-2.0-10.0"},{"group":"dihedral group of order 12","room_assignment":["brown","grey","yellow","olive","green","cyan","ivory","orange","red","pink","blue","purple"],"door_color_assignment":["white","black"],"door_generator_assignment":[1,0],"goal":10,"start":3,"action_noise":0.15,"location_history":"[3,9,8,7,6,0,1,2,3,4,5,0,6,11,10]","action_history":"[1,0,0,0,0,1,1,0,0,0,0,1,0,0]","door_history":"[0,1,1,1,1,0,0,1,1,1,1,0,1,1]","location_rts":"[2253,684,764,420,1202,997,708,610,559,843,731,1047,655,403]","trial_type":"two-door-navigation","trial_index":13,"time_elapsed":513735,"internal_node_id":"0.0-2.0-11.0"},{"group":"dihedral group of order 12","room_assignment":["brown","grey","yellow","olive","green","cyan","ivory","orange","red","pink","blue","purple"],"door_color_assignment":["white","black"],"door_generator_assignment":[1,0],"goal":8,"start":10,"action_noise":0.15,"location_history":"[10,9,3,4,5,0,1,2,3,4,5,0,6,0,1,2,3,4,10,4,10,9,8]","action_history":"[0,0,0,0,0,0,0,0,0,0,0,1,1,0,0,1,0,1,1,0,0,0]","door_history":"[1,1,1,1,1,1,1,1,1,1,1,0,0,1,1,0,1,0,0,1,1,1]","location_rts":"[1795,888,800,924,616,634,582,789,554,743,772,1093,1163,593,736,1127,507,983,1125,772,629,580]","trial_type":"two-door-navigation","trial_index":14,"time_elapsed":567530,"internal_node_id":"0.0-2.0-12.0"},{"group":"dihedral group of order 12","room_assignment":["brown","grey","yellow","olive","green","cyan","ivory","orange","red","pink","blue","purple"],"door_color_assignment":["white","black"],"door_generator_assignment":[1,0],"goal":4,"start":8,"action_noise":0.15,"location_history":"[8,7,1,7,6,11,5,11,10,4]","action_history":"[0,1,0,0,0,0,0,0,0]","door_history":"[1,0,1,1,1,1,1,1,1]","location_rts":"[1750,832,1007,1127,535,481,553,550,871]","trial_type":"two-door-navigation","trial_index":15,"time_elapsed":590848,"internal_node_id":"0.0-2.0-13.0"},{"group":"dihedral group of order 12","room_assignment":["brown","grey","yellow","olive","green","cyan","ivory","orange","red","pink","blue","purple"],"door_color_assignment":["white","black"],"door_generator_assignment":[1,0],"goal":0,"start":4,"action_noise":0.15,"location_history":"[4,10,9,3,9,3,9,8,7,6,0]","action_history":"[1,0,1,1,0,1,0,0,0,1]","door_history":"[0,1,0,0,1,0,1,1,1,0]","location_rts":"[1595,672,735,1024,378,795,799,294,906,1030]","trial_type":"two-door-navigation","trial_index":16,"time_elapsed":614528,"internal_node_id":"0.0-2.0-14.0"},{"group":"dihedral group of order 12","room_assignment":["brown","grey","yellow","olive","green","cyan","ivory","orange","red","pink","blue","purple"],"door_color_assignment":["white","black"],"door_generator_assignment":[1,0],"goal":11,"start":0,"action_noise":0.15,"location_history":"[0,1,2,8,2,3,4,5,11]","action_history":"[0,0,1,0,0,0,0,1]","door_history":"[1,1,0,1,1,1,1,0]","location_rts":"[1856,965,1166,559,547,505,1064,1488]","trial_type":"two-door-navigation","trial_index":17,"time_elapsed":635509,"internal_node_id":"0.0-2.0-15.0"},{"group":"dihedral group of order 12","room_assignment":["brown","grey","yellow","olive","green","cyan","ivory","orange","red","pink","blue","purple"],"door_color_assignment":["white","black"],"door_generator_assignment":[1,0],"goal":2,"start":11,"action_noise":0.15,"location_history":"[11,10,9,3,9,8,7,1,2]","action_history":"[1,0,0,1,0,0,1,0]","door_history":"[0,1,1,0,1,1,0,1]","location_rts":"[2064,645,1094,759,428,420,714,557]","trial_type":"two-door-navigation","trial_index":18,"time_elapsed":655200,"internal_node_id":"0.0-2.0-16.0"},{"group":"dihedral group of order 12","room_assignment":["brown","grey","yellow","olive","green","cyan","ivory","orange","red","pink","blue","purple"],"door_color_assignment":["white","black"],"door_generator_assignment":[1,0],"goal":7,"start":2,"action_noise":0.15,"location_history":"[2,8,7]","action_history":"[1,0]","door_history":"[0,1]","location_rts":"[2925,761]","trial_type":"two-door-navigation","trial_index":19,"time_elapsed":665358,"internal_node_id":"0.0-2.0-17.0"},{"group":"dihedral group of order 12","room_assignment":["brown","grey","yellow","olive","green","cyan","ivory","orange","red","pink","blue","purple"],"door_color_assignment":["white","black"],"door_generator_assignment":[1,0],"goal":5,"start":7,"action_noise":0.15,"location_history":"[7,6,0,1,2,3,9,8,7,6,0,1,7,1,2,8,7,1,7,1,7,6,11,10,9,3,4,5]","action_history":"[0,1,0,0,0,1,0,0,0,0,1,0,0,0,1,0,1,1,1,0,0,0,0,0,1,0,0]","door_history":"[1,0,1,1,1,0,1,1,1,1,0,1,1,1,0,1,0,0,0,1,1,1,1,1,0,1,1]","location_rts":"[1614,980,398,493,627,1047,522,1047,457,885,1427,597,413,4790,749,520,803,491,478,658,640,588,515,536,1374,539,552]","trial_type":"two-door-navigation","trial_index":20,"time_elapsed":725035,"internal_node_id":"0.0-2.0-18.0"},{"group":"dihedral group of order 12","room_assignment":["brown","grey","yellow","olive","green","cyan","ivory","orange","red","pink","blue","purple"],"door_color_assignment":["white","black"],"door_generator_assignment":[1,0],"goal":6,"start":5,"action_noise":0.15,"location_history":"[5,11,5,0,6]","action_history":"[1,1,0,1]","door_history":"[0,0,1,0]","location_rts":"[1506,387,839,587]","trial_type":"two-door-navigation","trial_index":21,"time_elapsed":736791,"internal_node_id":"0.0-2.0-19.0"},{"group":"dihedral group of order 12","room_assignment":["brown","grey","yellow","olive","green","cyan","ivory","orange","red","pink","blue","purple"],"door_color_assignment":["white","black"],"door_generator_assignment":[1,0],"goal":3,"start":6,"action_noise":0.15,"location_history":"[6,11,5,11,10,4,5,11,5,11,10,4,5,0,1,2,3]","action_history":"[0,1,1,0,1,0,1,1,1,0,1,0,0,0,0,0]","door_history":"[1,0,0,1,0,1,0,0,0,1,0,1,1,1,1,1]","location_rts":"[24511,824,734,748,535,1293,679,455,1084,292,522,1420,549,647,688,443]","trial_type":"two-door-navigation","trial_index":22,"time_elapsed":794306,"internal_node_id":"0.0-2.0-20.0"},{"group":"dihedral group of order 12","room_assignment":["brown","grey","yellow","olive","green","cyan","ivory","orange","red","pink","blue","purple"],"door_color_assignment":["white","black"],"door_generator_assignment":[1,0],"goal":1,"start":3,"action_noise":0.15,"location_history":"[3,4,5,11,10,9,3,4,5,0,1]","action_history":"[1,0,0,0,0,1,0,0,0,0]","door_history":"[0,1,1,1,1,0,1,1,1,1]","location_rts":"[1990,392,759,653,487,1289,592,441,396,418]","trial_type":"two-door-navigation","trial_index":23,"time_elapsed":817801,"internal_node_id":"0.0-2.0-21.0"},{"group":"dihedral group of order 12","room_assignment":["brown","grey","yellow","olive","green","cyan","ivory","orange","red","pink","blue","purple"],"door_color_assignment":["white","black"],"door_generator_assignment":[1,0],"goal":9,"start":1,"action_noise":0.15,"location_history":"[1,7,6,11,5,11,5,0,1,7,1,2,8,2,3,9]","action_history":"[1,0,0,1,1,1,0,0,1,0,0,1,1,0,1]","door_history":"[0,1,1,0,0,0,1,1,0,1,1,0,0,1,0]","location_rts":"[10030,1109,635,905,691,986,772,452,594,432,386,1069,651,661,615]","trial_type":"two-door-navigation","trial_index":24,"time_elapsed":860610,"internal_node_id":"0.0-2.0-22.0"},{"group":"dihedral group of order 12","room_assignment":["brown","grey","yellow","olive","green","cyan","ivory","orange","red","pink","blue","purple"],"door_color_assignment":["white","black"],"door_generator_assignment":[1,0],"goal":3,"start":9,"action_noise":0.15,"location_history":"[9,3]","action_history":"[1]","door_history":"[0]","location_rts":"[2037]","trial_type":"two-door-navigation","trial_index":25,"time_elapsed":867248,"internal_node_id":"0.0-2.0-23.0"},{"group":"dihedral group of order 12","room_assignment":["brown","grey","yellow","olive","green","cyan","ivory","orange","red","pink","blue","purple"],"door_color_assignment":["white","black"],"door_generator_assignment":[1,0],"goal":4,"start":3,"action_noise":0.15,"location_history":"[3,4]","action_history":"[0]","door_history":"[1]","location_rts":"[1337]","trial_type":"two-door-navigation","trial_index":26,"time_elapsed":873352,"internal_node_id":"0.0-2.0-24.0"},{"group":"dihedral group of order 12","room_assignment":["brown","grey","yellow","olive","green","cyan","ivory","orange","red","pink","blue","purple"],"door_color_assignment":["white","black"],"door_generator_assignment":[1,0],"goal":2,"start":4,"action_noise":0.15,"location_history":"[4,10,9,8,7,6,11,10,9,8,7,6,0,1,2]","action_history":"[1,0,0,0,1,0,0,0,1,0,0,0,0,0]","door_history":"[0,1,1,1,0,1,1,1,0,1,1,1,1,1]","location_rts":"[1512,594,890,623,1239,407,488,387,890,506,585,501,426,580]","trial_type":"two-door-navigation","trial_index":27,"time_elapsed":903017,"internal_node_id":"0.0-2.0-25.0"},{"group":"dihedral group of order 12","room_assignment":["brown","grey","yellow","olive","green","cyan","ivory","orange","red","pink","blue","purple"],"door_color_assignment":["white","black"],"door_generator_assignment":[1,0],"goal":1,"start":2,"action_noise":0.15,"location_history":"[2,8,2,3,9,8,2,3,4,10,9,3,4,5,11,10,9,8,7,6,11,5,11,10,9,8,2,3,9,8,2,8,7,6,0,1]","action_history":"[1,1,0,1,0,1,0,0,1,0,1,0,0,1,0,0,0,0,0,0,1,1,0,1,0,1,0,1,0,1,1,0,0,1,0]","door_history":"[0,0,1,0,1,0,1,1,0,1,0,1,1,0,1,1,1,1,1,1,0,0,1,0,1,0,1,0,1,0,0,1,1,0,1]","location_rts":"[1265,746,829,460,619,380,460,890,944,721,613,529,425,708,645,384,428,607,720,1670,1235,364,953,477,506,348,487,477,789,1133,1441,453,292,1758,429]","trial_type":"two-door-navigation","trial_index":28,"time_elapsed":974658,"internal_node_id":"0.0-2.0-26.0"},{"group":"dihedral group of order 12","room_assignment":["brown","grey","yellow","olive","green","cyan","ivory","orange","red","pink","blue","purple"],"door_color_assignment":["white","black"],"door_generator_assignment":[1,0],"goal":8,"start":1,"action_noise":0.15,"location_history":"[1,2,8]","action_history":"[0,1]","door_history":"[1,0]","location_rts":"[1731,1077]","trial_type":"two-door-navigation","trial_index":29,"time_elapsed":983330,"internal_node_id":"0.0-2.0-27.0"},{"group":"dihedral group of order 12","room_assignment":["brown","grey","yellow","olive","green","cyan","ivory","orange","red","pink","blue","purple"],"door_color_assignment":["white","black"],"door_generator_assignment":[1,0],"goal":10,"start":8,"action_noise":0.15,"location_history":"[8,7,6,11,5,0,1,2,3,4,5,11,5,11,5,0,1,2,8,7,6,11,10]","action_history":"[0,0,0,0,0,0,0,0,0,0,1,0,1,1,0,0,0,1,0,0,0,0]","door_history":"[1,1,1,1,1,1,1,1,1,1,0,1,0,0,1,1,1,0,1,1,1,1]","location_rts":"[2034,664,789,455,418,373,395,510,850,860,1244,443,924,258,408,474,477,923,556,502,512,413]","trial_type":"two-door-navigation","trial_index":30,"time_elapsed":1027875,"internal_node_id":"0.0-2.0-28.0"},{"group":"dihedral group of order 12","room_assignment":["brown","grey","yellow","olive","green","cyan","ivory","orange","red","pink","blue","purple"],"door_color_assignment":["white","black"],"door_generator_assignment":[1,0],"goal":7,"start":10,"action_noise":0.15,"location_history":"[10,4,5,0,1,7]","action_history":"[1,0,0,0,1]","door_history":"[0,1,1,1,0]","location_rts":"[2744,517,625,667,1005]","trial_type":"two-door-navigation","trial_index":31,"time_elapsed":1043097,"internal_node_id":"0.0-2.0-29.0"},{"group":"dihedral group of order 12","room_assignment":["brown","grey","yellow","olive","green","cyan","ivory","orange","red","pink","blue","purple"],"door_color_assignment":["white","black"],"door_generator_assignment":[1,0],"goal":6,"start":7,"action_noise":0.15,"location_history":"[7,6]","action_history":"[1]","door_history":"[0]","location_rts":"[1502]","trial_type":"two-door-navigation","trial_index":32,"time_elapsed":1049274,"internal_node_id":"0.0-2.0-30.0"},{"group":"dihedral group of order 12","room_assignment":["brown","grey","yellow","olive","green","cyan","ivory","orange","red","pink","blue","purple"],"door_color_assignment":["white","black"],"door_generator_assignment":[1,0],"goal":0,"start":6,"action_noise":0.15,"location_history":"[6,11,10,4,5,0]","action_history":"[0,0,1,0,1]","door_history":"[1,1,0,1,0]","location_rts":"[1186,424,420,486,632]","trial_type":"two-door-navigation","trial_index":33,"time_elapsed":1061691,"internal_node_id":"0.0-2.0-31.0"},{"group":"dihedral group of order 12","room_assignment":["brown","grey","yellow","olive","green","cyan","ivory","orange","red","pink","blue","purple"],"door_color_assignment":["white","black"],"door_generator_assignment":[1,0],"goal":11,"start":0,"action_noise":0.15,"location_history":"[0,6,11]","action_history":"[1,0]","door_history":"[0,1]","location_rts":"[1737,544]","trial_type":"two-door-navigation","trial_index":34,"time_elapsed":1069722,"internal_node_id":"0.0-2.0-32.0"},{"group":"dihedral group of order 12","room_assignment":["brown","grey","yellow","olive","green","cyan","ivory","orange","red","pink","blue","purple"],"door_color_assignment":["white","black"],"door_generator_assignment":[1,0],"goal":9,"start":11,"action_noise":0.15,"location_history":"[11,5,0,6,11,10,9]","action_history":"[1,0,1,0,0,0]","door_history":"[0,1,0,1,1,1]","location_rts":"[2753,398,1295,469,532,919]","trial_type":"two-door-navigation","trial_index":35,"time_elapsed":1087433,"internal_node_id":"0.0-2.0-33.0"},{"group":"dihedral group of order 12","room_assignment":["brown","grey","yellow","olive","green","cyan","ivory","orange","red","pink","blue","purple"],"door_color_assignment":["white","black"],"door_generator_assignment":[1,0],"goal":5,"start":9,"action_noise":0.15,"location_history":"[9,3,4,5]","action_history":"[1,0,0]","door_history":"[0,1,1]","location_rts":"[1390,424,476]","trial_type":"two-door-navigation","trial_index":36,"time_elapsed":1096797,"internal_node_id":"0.0-2.0-34.0"},{"view_history":"[{\"page_index\":0,\"viewing_time\":2149}]","rt":2150,"trial_type":"instructions","trial_index":37,"time_elapsed":1099948,"internal_node_id":"0.0-3.0"},{"view_history":"[{\"page_index\":0,\"viewing_time\":2492},{\"page_index\":1,\"viewing_time\":13530}]","rt":16023,"trial_type":"instructions","trial_index":38,"time_elapsed":1116973,"internal_node_id":"0.0-4.0"},{"group":"dihedral group of order 12","fractal_assignment":["../images/grn_red.png","../images/wht_red.png","../images/ylw_slt.png","../images/ylw_pnk.png","../images/cyn_red.png","../images/blu_wht.png","../images/grn_prp.png","../images/grn_blu.png","../images/gry_blk.png","../images/red_prp.png","../images/pnk_blu.png","../images/org_blu.png"],"mutagen_generator_assignment":[0,1],"goal":7,"start":11,"action_noise":0.15,"location_history":"[11,10,4,5,0,6,11,10,4,5,11,5,0,6,11,5,0,1,7]","action_history":"[0,1,0,0,1,0,0,0,0,1,1,0,1,0,1,1,0,1]","mutagen_history":"[0,1,0,0,1,0,0,0,0,1,1,0,1,0,1,1,0,1]","location_rts":"[3709,967,585,546,1150,671,494,500,768,1145,890,803,533,752,468,469,470,506]","trial_type":"fractal-mutation","trial_index":39,"time_elapsed":1172379,"internal_node_id":"0.0-5.0-0.0"},{"group":"dihedral group of order 12","fractal_assignment":["../images/grn_red.png","../images/wht_red.png","../images/ylw_slt.png","../images/ylw_pnk.png","../images/cyn_red.png","../images/blu_wht.png","../images/grn_prp.png","../images/grn_blu.png","../images/gry_blk.png","../images/red_prp.png","../images/pnk_blu.png","../images/org_blu.png"],"mutagen_generator_assignment":[0,1],"goal":8,"start":7,"action_noise":0.15,"location_history":"[7,1,7,6,0,1,7,1,2,8]","action_history":"[1,1,0,1,0,0,1,0,1]","mutagen_history":"[1,1,0,1,0,0,1,0,1]","location_rts":"[2587,782,622,614,1112,1192,435,484,1022]","trial_type":"fractal-mutation","trial_index":40,"time_elapsed":1202162,"internal_node_id":"0.0-5.0-1.0"},{"group":"dihedral group of order 12","fractal_assignment":["../images/grn_red.png","../images/wht_red.png","../images/ylw_slt.png","../images/ylw_pnk.png","../images/cyn_red.png","../images/blu_wht.png","../images/grn_prp.png","../images/grn_blu.png","../images/gry_blk.png","../images/red_prp.png","../images/pnk_blu.png","../images/org_blu.png"],"mutagen_generator_assignment":[0,1],"goal":4,"start":8,"action_noise":0.15,"location_history":"[8,7,6,11,5,0,6,0,1,2,3,9,8,7,1,7,1,7,6,0,1,2,3,4]","action_history":"[0,0,0,1,0,1,1,0,0,0,0,0,0,1,1,1,0,0,1,0,0,0,0]","mutagen_history":"[0,0,0,1,0,1,1,0,0,0,0,0,0,1,1,1,0,0,1,0,0,0,0]","location_rts":"[1344,553,550,741,454,529,758,395,511,508,463,757,602,694,720,908,440,485,1031,1192,510,384,426]","trial_type":"fractal-mutation","trial_index":41,"time_elapsed":1266787,"internal_node_id":"0.0-5.0-2.0"},{"group":"dihedral group of order 12","fractal_assignment":["../images/grn_red.png","../images/wht_red.png","../images/ylw_slt.png","../images/ylw_pnk.png","../images/cyn_red.png","../images/blu_wht.png","../images/grn_prp.png","../images/grn_blu.png","../images/gry_blk.png","../images/red_prp.png","../images/pnk_blu.png","../images/org_blu.png"],"mutagen_generator_assignment":[0,1],"goal":5,"start":4,"action_noise":0.15,"location_history":"[4,10,4,5]","action_history":"[1,1,0]","mutagen_history":"[1,1,0]","location_rts":"[2496,508,628]","trial_type":"fractal-mutation","trial_index":42,"time_elapsed":1280554,"internal_node_id":"0.0-5.0-3.0"},{"group":"dihedral group of order 12","fractal_assignment":["../images/grn_red.png","../images/wht_red.png","../images/ylw_slt.png","../images/ylw_pnk.png","../images/cyn_red.png","../images/blu_wht.png","../images/grn_prp.png","../images/grn_blu.png","../images/gry_blk.png","../images/red_prp.png","../images/pnk_blu.png","../images/org_blu.png"],"mutagen_generator_assignment":[0,1],"goal":10,"start":5,"action_noise":0.15,"location_history":"[5,0,6,0,1,7,6,0,1,7,6,11,10]","action_history":"[0,1,1,0,0,1,1,0,1,0,0,0]","mutagen_history":"[0,1,1,0,0,1,1,0,1,0,0,0]","location_rts":"[1755,19546,2397,1545,2193,3252,1870,532,1318,593,463,441]","trial_type":"fractal-mutation","trial_index":43,"time_elapsed":1354486,"internal_node_id":"0.0-5.0-4.0"},{"group":"dihedral group of order 12","fractal_assignment":["../images/grn_red.png","../images/wht_red.png","../images/ylw_slt.png","../images/ylw_pnk.png","../images/cyn_red.png","../images/blu_wht.png","../images/grn_prp.png","../images/grn_blu.png","../images/gry_blk.png","../images/red_prp.png","../images/pnk_blu.png","../images/org_blu.png"],"mutagen_generator_assignment":[0,1],"goal":1,"start":10,"action_noise":0.15,"location_history":"[10,9,3,4,5,0,1]","action_history":"[0,1,0,0,0,0]","mutagen_history":"[0,1,0,0,0,0]","location_rts":"[2283,1040,1090,654,430,585]","trial_type":"fractal-mutation","trial_index":44,"time_elapsed":1375806,"internal_node_id":"0.0-5.0-5.0"},{"group":"dihedral group of order 12","fractal_assignment":["../images/grn_red.png","../images/wht_red.png","../images/ylw_slt.png","../images/ylw_pnk.png","../images/cyn_red.png","../images/blu_wht.png","../images/grn_prp.png","../images/grn_blu.png","../images/gry_blk.png","../images/red_prp.png","../images/pnk_blu.png","../images/org_blu.png"],"mutagen_generator_assignment":[0,1],"goal":6,"start":1,"action_noise":0.15,"location_history":"[1,7,1,2,3,4,5,11,10,4,10,9,8,2,3,9,8,7,6]","action_history":"[1,1,0,0,0,0,1,0,1,0,0,1,1,0,1,0,0,0]","mutagen_history":"[1,1,0,0,0,0,1,0,1,0,0,1,1,0,1,0,0,0]","location_rts":"[1655,805,374,413,466,593,859,472,997,1007,1076,571,1620,500,871,551,504,636]","trial_type":"fractal-mutation","trial_index":45,"time_elapsed":1428622,"internal_node_id":"0.0-5.0-6.0"},{"group":"dihedral group of order 12","fractal_assignment":["../images/grn_red.png","../images/wht_red.png","../images/ylw_slt.png","../images/ylw_pnk.png","../images/cyn_red.png","../images/blu_wht.png","../images/grn_prp.png","../images/grn_blu.png","../images/gry_blk.png","../images/red_prp.png","../images/pnk_blu.png","../images/org_blu.png"],"mutagen_generator_assignment":[0,1],"goal":9,"start":6,"action_noise":0.15,"location_history":"[6,0,6,11,5,11,10,4,10,4,5,0,1,7,1,2,3,9]","action_history":"[1,1,0,1,1,0,1,1,1,0,0,0,0,1,0,0,1]","mutagen_history":"[1,1,0,1,1,0,1,1,1,0,0,0,0,1,0,0,1]","location_rts":"[2274,826,999,998,669,726,650,652,961,312,612,687,568,950,450,855,706]","trial_type":"fractal-mutation","trial_index":46,"time_elapsed":1478041,"internal_node_id":"0.0-5.0-7.0"},{"group":"dihedral group of order 12","fractal_assignment":["../images/grn_red.png","../images/wht_red.png","../images/ylw_slt.png","../images/ylw_pnk.png","../images/cyn_red.png","../images/blu_wht.png","../images/grn_prp.png","../images/grn_blu.png","../images/gry_blk.png","../images/red_prp.png","../images/pnk_blu.png","../images/org_blu.png"],"mutagen_generator_assignment":[0,1],"goal":2,"start":9,"action_noise":0.15,"location_history":"[9,8,2]","action_history":"[0,1]","mutagen_history":"[0,1]","location_rts":"[1128,745]","trial_type":"fractal-mutation","trial_index":47,"time_elapsed":1487385,"internal_node_id":"0.0-5.0-8.0"},{"group":"dihedral group of order 12","fractal_assignment":["../images/grn_red.png","../images/wht_red.png","../images/ylw_slt.png","../images/ylw_pnk.png","../images/cyn_red.png","../images/blu_wht.png","../images/grn_prp.png","../images/grn_blu.png","../images/gry_blk.png","../images/red_prp.png","../images/pnk_blu.png","../images/org_blu.png"],"mutagen_generator_assignment":[0,1],"goal":0,"start":2,"action_noise":0.15,"location_history":"[2,8,7,6,11,5,11,10,4,5,0]","action_history":"[0,0,0,0,0,1,0,1,0,0]","mutagen_history":"[0,0,0,0,0,1,0,1,0,0]","location_rts":"[850,555,409,644,501,767,436,557,363,505]","trial_type":"fractal-mutation","trial_index":48,"time_elapsed":1513789,"internal_node_id":"0.0-5.0-9.0"},{"group":"dihedral group of order 12","fractal_assignment":["../images/grn_red.png","../images/wht_red.png","../images/ylw_slt.png","../images/ylw_pnk.png","../images/cyn_red.png","../images/blu_wht.png","../images/grn_prp.png","../images/grn_blu.png","../images/gry_blk.png","../images/red_prp.png","../images/pnk_blu.png","../images/org_blu.png"],"mutagen_generator_assignment":[0,1],"goal":3,"start":0,"action_noise":0.15,"location_history":"[0,1,7,6,11,5,0,1,2,3]","action_history":"[0,1,0,0,1,0,0,0,0]","mutagen_history":"[0,1,0,0,1,0,0,0,0]","location_rts":"[1819,630,541,579,536,667,515,407,392]","trial_type":"fractal-mutation","trial_index":49,"time_elapsed":1540515,"internal_node_id":"0.0-5.0-10.0"},{"group":"dihedral group of order 12","fractal_assignment":["../images/grn_red.png","../images/wht_red.png","../images/ylw_slt.png","../images/ylw_pnk.png","../images/cyn_red.png","../images/blu_wht.png","../images/grn_prp.png","../images/grn_blu.png","../images/gry_blk.png","../images/red_prp.png","../images/pnk_blu.png","../images/org_blu.png"],"mutagen_generator_assignment":[0,1],"goal":10,"start":3,"action_noise":0.15,"location_history":"[3,9,3,4,10]","action_history":"[1,1,0,1]","mutagen_history":"[1,1,0,1]","location_rts":"[2632,492,404,514]","trial_type":"fractal-mutation","trial_index":50,"time_elapsed":1556081,"internal_node_id":"0.0-5.0-11.0"},{"group":"dihedral group of order 12","fractal_assignment":["../images/grn_red.png","../images/wht_red.png","../images/ylw_slt.png","../images/ylw_pnk.png","../images/cyn_red.png","../images/blu_wht.png","../images/grn_prp.png","../images/grn_blu.png","../images/gry_blk.png","../images/red_prp.png","../images/pnk_blu.png","../images/org_blu.png"],"mutagen_generator_assignment":[0,1],"goal":8,"start":10,"action_noise":0.15,"location_history":"[10,9,3,4,10,9,8]","action_history":"[0,1,0,1,0,0]","mutagen_history":"[0,1,0,1,0,0]","location_rts":"[1611,417,684,587,540,675]","trial_type":"fractal-mutation","trial_index":51,"time_elapsed":1578461,"internal_node_id":"0.0-5.0-12.0"},{"group":"dihedral group of order 12","fractal_assignment":["../images/grn_red.png","../images/wht_red.png","../images/ylw_slt.png","../images/ylw_pnk.png","../images/cyn_red.png","../images/blu_wht.png","../images/grn_prp.png","../images/grn_blu.png","../images/gry_blk.png","../images/red_prp.png","../images/pnk_blu.png","../images/org_blu.png"],"mutagen_generator_assignment":[0,1],"goal":4,"start":8,"action_noise":0.15,"location_history":"[8,2,3,4]","action_history":"[0,0,0]","mutagen_history":"[0,0,0]","location_rts":"[1421,422,481]","trial_type":"fractal-mutation","trial_index":52,"time_elapsed":1589399,"internal_node_id":"0.0-5.0-13.0"},{"group":"dihedral group of order 12","fractal_assignment":["../images/grn_red.png","../images/wht_red.png","../images/ylw_slt.png","../images/ylw_pnk.png","../images/cyn_red.png","../images/blu_wht.png","../images/grn_prp.png","../images/grn_blu.png","../images/gry_blk.png","../images/red_prp.png","../images/pnk_blu.png","../images/org_blu.png"],"mutagen_generator_assignment":[0,1],"goal":0,"start":4,"action_noise":0.15,"location_history":"[4,5,0]","action_history":"[0,0]","mutagen_history":"[0,0]","location_rts":"[1199,1162]","trial_type":"fractal-mutation","trial_index":53,"time_elapsed":1600458,"internal_node_id":"0.0-5.0-14.0"},{"group":"dihedral group of order 12","fractal_assignment":["../images/grn_red.png","../images/wht_red.png","../images/ylw_slt.png","../images/ylw_pnk.png","../images/cyn_red.png","../images/blu_wht.png","../images/grn_prp.png","../images/grn_blu.png","../images/gry_blk.png","../images/red_prp.png","../images/pnk_blu.png","../images/org_blu.png"],"mutagen_generator_assignment":[0,1],"goal":11,"start":0,"action_noise":0.15,"location_history":"[0,6,11]","action_history":"[1,0]","mutagen_history":"[1,0]","location_rts":"[9091,452]","trial_type":"fractal-mutation","trial_index":54,"time_elapsed":1617189,"internal_node_id":"0.0-5.0-15.0"},{"group":"dihedral group of order 12","fractal_assignment":["../images/grn_red.png","../images/wht_red.png","../images/ylw_slt.png","../images/ylw_pnk.png","../images/cyn_red.png","../images/blu_wht.png","../images/grn_prp.png","../images/grn_blu.png","../images/gry_blk.png","../images/red_prp.png","../images/pnk_blu.png","../images/org_blu.png"],"mutagen_generator_assignment":[0,1],"goal":2,"start":11,"action_noise":0.15,"location_history":"[11,5,11,10,9,8,2]","action_history":"[0,1,0,1,0,1]","mutagen_history":"[0,1,0,1,0,1]","location_rts":"[1577,884,644,484,351,908]","trial_type":"fractal-mutation","trial_index":55,"time_elapsed":1637378,"internal_node_id":"0.0-5.0-16.0"},{"group":"dihedral group of order 12","fractal_assignment":["../images/grn_red.png","../images/wht_red.png","../images/ylw_slt.png","../images/ylw_pnk.png","../images/cyn_red.png","../images/blu_wht.png","../images/grn_prp.png","../images/grn_blu.png","../images/gry_blk.png","../images/red_prp.png","../images/pnk_blu.png","../images/org_blu.png"],"mutagen_generator_assignment":[0,1],"goal":7,"start":2,"action_noise":0.15,"location_history":"[2,3,9,8,2,8,7]","action_history":"[0,1,0,1,1,0]","mutagen_history":"[0,1,0,1,1,0]","location_rts":"[1414,418,410,413,931,484]","trial_type":"fractal-mutation","trial_index":56,"time_elapsed":1656837,"internal_node_id":"0.0-5.0-17.0"},{"group":"dihedral group of order 12","fractal_assignment":["../images/grn_red.png","../images/wht_red.png","../images/ylw_slt.png","../images/ylw_pnk.png","../images/cyn_red.png","../images/blu_wht.png","../images/grn_prp.png","../images/grn_blu.png","../images/gry_blk.png","../images/red_prp.png","../images/pnk_blu.png","../images/org_blu.png"],"mutagen_generator_assignment":[0,1],"goal":5,"start":7,"action_noise":0.15,"location_history":"[7,6,11,10,4,5]","action_history":"[0,0,0,1,1]","mutagen_history":"[0,0,0,1,1]","location_rts":"[1718,457,454,1264,775]","trial_type":"fractal-mutation","trial_index":57,"time_elapsed":1674197,"internal_node_id":"0.0-5.0-18.0"},{"group":"dihedral group of order 12","fractal_assignment":["../images/grn_red.png","../images/wht_red.png","../images/ylw_slt.png","../images/ylw_pnk.png","../images/cyn_red.png","../images/blu_wht.png","../images/grn_prp.png","../images/grn_blu.png","../images/gry_blk.png","../images/red_prp.png","../images/pnk_blu.png","../images/org_blu.png"],"mutagen_generator_assignment":[0,1],"goal":6,"start":5,"action_noise":0.15,"location_history":"[5,0,6]","action_history":"[0,1]","mutagen_history":"[0,1]","location_rts":"[1166,559]","trial_type":"fractal-mutation","trial_index":58,"time_elapsed":1683442,"internal_node_id":"0.0-5.0-19.0"},{"group":"dihedral group of order 12","fractal_assignment":["../images/grn_red.png","../images/wht_red.png","../images/ylw_slt.png","../images/ylw_pnk.png","../images/cyn_red.png","../images/blu_wht.png","../images/grn_prp.png","../images/grn_blu.png","../images/gry_blk.png","../images/red_prp.png","../images/pnk_blu.png","../images/org_blu.png"],"mutagen_generator_assignment":[0,1],"goal":3,"start":6,"action_noise":0.15,"location_history":"[6,11,5,0,1,7,6,11,10,9,3]","action_history":"[0,1,0,0,1,0,0,0,0,1]","mutagen_history":"[0,1,0,0,1,0,0,0,0,1]","location_rts":"[1071,902,786,495,652,577,587,903,685,988]","trial_type":"fractal-mutation","trial_index":59,"time_elapsed":1713848,"internal_node_id":"0.0-5.0-20.0"},{"group":"dihedral group of order 12","fractal_assignment":["../images/grn_red.png","../images/wht_red.png","../images/ylw_slt.png","../images/ylw_pnk.png","../images/cyn_red.png","../images/blu_wht.png","../images/grn_prp.png","../images/grn_blu.png","../images/gry_blk.png","../images/red_prp.png","../images/pnk_blu.png","../images/org_blu.png"],"mutagen_generator_assignment":[0,1],"goal":1,"start":3,"action_noise":0.15,"location_history":"[3,4,10,9,8,2,3,4,5,0,1]","action_history":"[0,1,0,0,1,0,0,0,0,1]","mutagen_history":"[0,1,0,0,1,0,0,0,0,1]","location_rts":"[1331,509,478,612,861,490,787,506,833,533]","trial_type":"fractal-mutation","trial_index":60,"time_elapsed":1743513,"internal_node_id":"0.0-5.0-21.0"},{"group":"dihedral group of order 12","fractal_assignment":["../images/grn_red.png","../images/wht_red.png","../images/ylw_slt.png","../images/ylw_pnk.png","../images/cyn_red.png","../images/blu_wht.png","../images/grn_prp.png","../images/grn_blu.png","../images/gry_blk.png","../images/red_prp.png","../images/pnk_blu.png","../images/org_blu.png"],"mutagen_generator_assignment":[0,1],"goal":9,"start":1,"action_noise":0.15,"location_history":"[1,7,1,7,6,0,6,11,5,0,1,2,3,9]","action_history":"[1,0,1,0,0,1,0,1,0,0,0,0,1]","mutagen_history":"[1,0,1,0,0,1,0,1,0,0,0,0,1]","location_rts":"[2373,661,546,407,636,458,457,1237,487,621,618,487,525]","trial_type":"fractal-mutation","trial_index":61,"time_elapsed":1782163,"internal_node_id":"0.0-5.0-22.0"},{"group":"dihedral group of order 12","fractal_assignment":["../images/grn_red.png","../images/wht_red.png","../images/ylw_slt.png","../images/ylw_pnk.png","../images/cyn_red.png","../images/blu_wht.png","../images/grn_prp.png","../images/grn_blu.png","../images/gry_blk.png","../images/red_prp.png","../images/pnk_blu.png","../images/org_blu.png"],"mutagen_generator_assignment":[0,1],"goal":3,"start":9,"action_noise":0.15,"location_history":"[9,8,2,8,7,6,11,5,0,1,2,3]","action_history":"[0,0,1,0,0,0,1,0,0,0,0]","mutagen_history":"[0,0,1,0,0,0,1,0,0,0,0]","location_rts":"[1548,983,950,650,448,476,1060,562,511,407,411]","trial_type":"fractal-mutation","trial_index":62,"time_elapsed":1815159,"internal_node_id":"0.0-5.0-23.0"},{"group":"dihedral group of order 12","fractal_assignment":["../images/grn_red.png","../images/wht_red.png","../images/ylw_slt.png","../images/ylw_pnk.png","../images/cyn_red.png","../images/blu_wht.png","../images/grn_prp.png","../images/grn_blu.png","../images/gry_blk.png","../images/red_prp.png","../images/pnk_blu.png","../images/org_blu.png"],"mutagen_generator_assignment":[0,1],"goal":4,"start":3,"action_noise":0.15,"location_history":"[3,9,8,7,1,2,8,7,6,11,5,11,10,9,8,2,3,9,3,4]","action_history":"[1,0,0,0,0,1,0,0,0,0,0,0,0,0,1,0,1,0,0]","mutagen_history":"[1,0,0,0,0,1,0,0,0,0,0,0,0,0,1,0,1,0,0]","location_rts":"[5406,523,516,777,934,615,426,581,634,381,367,454,507,509,637,402,788,478,564]","trial_type":"fractal-mutation","trial_index":63,"time_elapsed":1869756,"internal_node_id":"0.0-5.0-24.0"},{"group":"dihedral group of order 12","fractal_assignment":["../images/grn_red.png","../images/wht_red.png","../images/ylw_slt.png","../images/ylw_pnk.png","../images/cyn_red.png","../images/blu_wht.png","../images/grn_prp.png","../images/grn_blu.png","../images/gry_blk.png","../images/red_prp.png","../images/pnk_blu.png","../images/org_blu.png"],"mutagen_generator_assignment":[0,1],"goal":2,"start":4,"action_noise":0.15,"location_history":"[4,5,11,10,9,8,7,6,11,5,0,1,2]","action_history":"[0,1,0,1,0,0,1,0,1,0,0,0]","mutagen_history":"[0,1,0,1,0,0,1,0,1,0,0,0]","location_rts":"[3000,848,535,661,566,764,713,471,763,512,639,431]","trial_type":"fractal-mutation","trial_index":64,"time_elapsed":1906682,"internal_node_id":"0.0-5.0-25.0"},{"group":"dihedral group of order 12","fractal_assignment":["../images/grn_red.png","../images/wht_red.png","../images/ylw_slt.png","../images/ylw_pnk.png","../images/cyn_red.png","../images/blu_wht.png","../images/grn_prp.png","../images/grn_blu.png","../images/gry_blk.png","../images/red_prp.png","../images/pnk_blu.png","../images/org_blu.png"],"mutagen_generator_assignment":[0,1],"goal":1,"start":2,"action_noise":0.15,"location_history":"[2,8,7,1]","action_history":"[1,0,1]","mutagen_history":"[1,0,1]","location_rts":"[9627,1059,1071]","trial_type":"fractal-mutation","trial_index":65,"time_elapsed":1928232,"internal_node_id":"0.0-5.0-26.0"},{"group":"dihedral group of order 12","fractal_assignment":["../images/grn_red.png","../images/wht_red.png","../images/ylw_slt.png","../images/ylw_pnk.png","../images/cyn_red.png","../images/blu_wht.png","../images/grn_prp.png","../images/grn_blu.png","../images/gry_blk.png","../images/red_prp.png","../images/pnk_blu.png","../images/org_blu.png"],"mutagen_generator_assignment":[0,1],"goal":8,"start":1,"action_noise":0.15,"location_history":"[1,2,8]","action_history":"[0,0]","mutagen_history":"[0,0]","location_rts":"[1260,465]","trial_type":"fractal-mutation","trial_index":66,"time_elapsed":1937076,"internal_node_id":"0.0-5.0-27.0"},{"group":"dihedral group of order 12","fractal_assignment":["../images/grn_red.png","../images/wht_red.png","../images/ylw_slt.png","../images/ylw_pnk.png","../images/cyn_red.png","../images/blu_wht.png","../images/grn_prp.png","../images/grn_blu.png","../images/gry_blk.png","../images/red_prp.png","../images/pnk_blu.png","../images/org_blu.png"],"mutagen_generator_assignment":[0,1],"goal":10,"start":8,"action_noise":0.15,"location_history":"[8,2,8,2,3,4,10]","action_history":"[1,0,1,0,0,1]","mutagen_history":"[1,0,1,0,0,1]","location_rts":"[1392,1478,489,739,692,754]","trial_type":"fractal-mutation","trial_index":67,"time_elapsed":1959189,"internal_node_id":"0.0-5.0-28.0"},{"group":"dihedral group of order 12","fractal_assignment":["../images/grn_red.png","../images/wht_red.png","../images/ylw_slt.png","../images/ylw_pnk.png","../images/cyn_red.png","../images/blu_wht.png","../images/grn_prp.png","../images/grn_blu.png","../images/gry_blk.png","../images/red_prp.png","../images/pnk_blu.png","../images/org_blu.png"],"mutagen_generator_assignment":[0,1],"goal":7,"start":10,"action_noise":0.15,"location_history":"[10,9,3,4,10,9,8,7]","action_history":"[0,1,0,1,0,0,0]","mutagen_history":"[0,1,0,1,0,0,0]","location_rts":"[1166,553,421,515,407,680,465]","trial_type":"fractal-mutation","trial_index":68,"time_elapsed":1979954,"internal_node_id":"0.0-5.0-29.0"},{"group":"dihedral group of order 12","fractal_assignment":["../images/grn_red.png","../images/wht_red.png","../images/ylw_slt.png","../images/ylw_pnk.png","../images/cyn_red.png","../images/blu_wht.png","../images/grn_prp.png","../images/grn_blu.png","../images/gry_blk.png","../images/red_prp.png","../images/pnk_blu.png","../images/org_blu.png"],"mutagen_generator_assignment":[0,1],"goal":6,"start":7,"action_noise":0.15,"location_history":"[7,1,2,3,9,8,2,3,9,8,2,8,2,3,4,5,0,1,2,3,9,3,9,8,2,8,2,3,4,5,0,1,2,8,7,1,7,6]","action_history":"[1,0,0,0,0,0,0,1,0,1,1,1,0,0,0,0,0,0,0,0,1,0,0,1,1,1,0,0,0,0,0,0,0,0,1,1,0]","mutagen_history":"[1,0,0,0,0,0,0,1,0,1,1,1,0,0,0,0,0,0,0,0,1,0,0,1,1,1,0,0,0,0,0,0,0,0,1,1,0]","location_rts":"[1922,404,560,551,532,604,645,458,566,524,859,451,1168,590,703,1136,644,458,521,572,484,420,757,416,741,395,235,462,574,362,420,348,531,533,737,766,430]","trial_type":"fractal-mutation","trial_index":69,"time_elapsed":2076889,"internal_node_id":"0.0-5.0-30.0"},{"group":"dihedral group of order 12","fractal_assignment":["../images/grn_red.png","../images/wht_red.png","../images/ylw_slt.png","../images/ylw_pnk.png","../images/cyn_red.png","../images/blu_wht.png","../images/grn_prp.png","../images/grn_blu.png","../images/gry_blk.png","../images/red_prp.png","../images/pnk_blu.png","../images/org_blu.png"],"mutagen_generator_assignment":[0,1],"goal":0,"start":6,"action_noise":0.15,"location_history":"[6,0]","action_history":"[0]","mutagen_history":"[0]","location_rts":"[1290]","trial_type":"fractal-mutation","trial_index":70,"time_elapsed":2083417,"internal_node_id":"0.0-5.0-31.0"},{"group":"dihedral group of order 12","fractal_assignment":["../images/grn_red.png","../images/wht_red.png","../images/ylw_slt.png","../images/ylw_pnk.png","../images/cyn_red.png","../images/blu_wht.png","../images/grn_prp.png","../images/grn_blu.png","../images/gry_blk.png","../images/red_prp.png","../images/pnk_blu.png","../images/org_blu.png"],"mutagen_generator_assignment":[0,1],"goal":11,"start":0,"action_noise":0.15,"location_history":"[0,6,0,6,11]","action_history":"[1,1,1,0]","mutagen_history":"[1,1,1,0]","location_rts":"[1331,843,454,289]","trial_type":"fractal-mutation","trial_index":71,"time_elapsed":2097284,"internal_node_id":"0.0-5.0-32.0"},{"group":"dihedral group of order 12","fractal_assignment":["../images/grn_red.png","../images/wht_red.png","../images/ylw_slt.png","../images/ylw_pnk.png","../images/cyn_red.png","../images/blu_wht.png","../images/grn_prp.png","../images/grn_blu.png","../images/gry_blk.png","../images/red_prp.png","../images/pnk_blu.png","../images/org_blu.png"],"mutagen_generator_assignment":[0,1],"goal":9,"start":11,"action_noise":0.15,"location_history":"[11,5,0,6,11,5,11,10,4,10,9]","action_history":"[0,0,1,0,1,1,0,1,1,0]","mutagen_history":"[0,0,1,0,1,1,0,1,1,0]","location_rts":"[1777,778,823,1347,915,498,422,992,840,482]","trial_type":"fractal-mutation","trial_index":72,"time_elapsed":2134732,"internal_node_id":"0.0-5.0-33.0"},{"group":"dihedral group of order 12","fractal_assignment":["../images/grn_red.png","../images/wht_red.png","../images/ylw_slt.png","../images/ylw_pnk.png","../images/cyn_red.png","../images/blu_wht.png","../images/grn_prp.png","../images/grn_blu.png","../images/gry_blk.png","../images/red_prp.png","../images/pnk_blu.png","../images/org_blu.png"],"mutagen_generator_assignment":[0,1],"goal":5,"start":9,"action_noise":0.15,"location_history":"[9,8,7,1,2,8,7,6,11,10,9,8,2,8,7,1,2,3,4,10,9,3,4,5]","action_history":"[0,0,0,0,0,0,0,0,1,0,0,1,0,0,1,0,0,0,1,0,0,0,0]","mutagen_history":"[0,0,0,0,0,0,0,0,1,0,0,1,0,0,1,0,0,0,1,0,0,0,0]","location_rts":"[1296,450,379,466,489,475,479,662,1282,688,506,1234,663,1045,942,509,802,734,1289,867,957,737,1016]","trial_type":"fractal-mutation","trial_index":73,"time_elapsed":2220192,"internal_node_id":"0.0-5.0-34.0"},{"view_history":"[{\"page_index\":0,\"viewing_time\":20029}]","rt":20030,"trial_type":"instructions","trial_index":74,"time_elapsed":2241785,"internal_node_id":"0.0-6.0"},{"rt":47790,"responses":"{\"Q0\":\"I don't seem to have learned much, haha. I'm trying! Such a challenging HIT, I'm really enjoying this series :)\"}","trial_type":"survey-text","trial_index":75,"time_elapsed":2290587,"internal_node_id":"0.0-7.0"}]