[{"view_history":"[{\"page_index\":0,\"viewing_time\":382040},{\"page_index\":1,\"viewing_time\":5487}]","rt":387528,"trial_type":"instructions","trial_index":0,"time_elapsed":387529,"internal_node_id":"0.0-0.0"},{"view_history":"[{\"page_index\":0,\"viewing_time\":1340},{\"page_index\":1,\"viewing_time\":2735}]","rt":4077,"trial_type":"instructions","trial_index":1,"time_elapsed":392606,"internal_node_id":"0.0-1.0"},{"group":"dihedral group of order 12","room_assignment":["purple","blue","orange","yellow","grey","ivory","cyan","olive","brown","green","pink","red"],"door_color_assignment":["white","black"],"door_generator_assignment":[0,1],"goal":7,"start":11,"action_noise":0.15,"location_history":"[11,5,0,1,2,3,4,10,4,10,9,8,7]","action_history":"[0,0,0,0,0,0,1,1,1,1,0,0]","door_history":"[0,0,0,0,0,0,1,1,1,1,0,0]","location_rts":"[8533,4337,2075,747,1599,2150,3307,811,476,271,1854,610]","trial_type":"two-door-navigation","trial_index":2,"time_elapsed":434965,"internal_node_id":"0.0-2.0-0.0"},{"group":"dihedral group of order 12","room_assignment":["purple","blue","orange","yellow","grey","ivory","cyan","olive","brown","green","pink","red"],"door_color_assignment":["white","black"],"door_generator_assignment":[0,1],"goal":8,"start":7,"action_noise":0.15,"location_history":"[7,1,7,1,7,1,7,6,11,10,9,8]","action_history":"[0,1,1,1,1,1,0,0,0,0,0]","door_history":"[0,1,1,1,1,1,0,0,0,0,0]","location_rts":"[3832,388,204,279,287,283,323,292,375,637,306]","trial_type":"two-door-navigation","trial_index":3,"time_elapsed":456748,"internal_node_id":"0.0-2.0-1.0"},{"group":"dihedral group of order 12","room_assignment":["purple","blue","orange","yellow","grey","ivory","cyan","olive","brown","green","pink","red"],"door_color_assignment":["white","black"],"door_generator_assignment":[0,1],"goal":4,"start":8,"action_noise":0.15,"location_history":"[8,7,6,11,5,11,10,4]","action_history":"[0,0,0,0,1,0,1]","door_history":"[0,0,0,0,1,0,1]","location_rts":"[5410,630,237,300,270,2052,494]","trial_type":"two-door-navigation","trial_index":4,"time_elapsed":476709,"internal_node_id":"0.0-2.0-2.0"},{"group":"dihedral group of order 12","room_assignment":["purple","blue","orange","yellow","grey","ivory","cyan","olive","brown","green","pink","red"],"door_color_assignment":["white","black"],"door_generator_assignment":[0,1],"goal":5,"start":4,"action_noise":0.15,"location_history":"[4,10,9,8,2,3,9,8,2,3,4,10,4,5]","action_history":"[1,0,0,0,0,0,0,0,0,0,1,0,0]","door_history":"[1,0,0,0,0,0,0,0,0,0,1,0,0]","location_rts":"[4172,217,65,259,616,258,264,437,302,642,3938,254,109]","trial_type":"two-door-navigation","trial_index":5,"time_elapsed":504829,"internal_node_id":"0.0-2.0-3.0"},{"group":"dihedral group of order 12","room_assignment":["purple","blue","orange","yellow","grey","ivory","cyan","olive","brown","green","pink","red"],"door_color_assignment":["white","black"],"door_generator_assignment":[0,1],"goal":10,"start":5,"action_noise":0.15,"location_history":"[5,0,1,2,8,2,3,4,10]","action_history":"[1,0,0,1,1,0,0,1]","door_history":"[1,0,0,1,1,0,0,1]","location_rts":"[2324,842,347,262,335,3036,454,799]","trial_type":"two-door-navigation","trial_index":6,"time_elapsed":524787,"internal_node_id":"0.0-2.0-4.0"},{"group":"dihedral group of order 12","room_assignment":["purple","blue","orange","yellow","grey","ivory","cyan","olive","brown","green","pink","red"],"door_color_assignment":["white","black"],"door_generator_assignment":[0,1],"goal":1,"start":10,"action_noise":0.15,"location_history":"[10,9,8,7,6,11,10,4,5,0,1]","action_history":"[0,0,0,0,0,0,1,0,0,0]","door_history":"[0,0,0,0,0,0,1,0,0,0]","location_rts":"[2526,313,316,1877,1955,984,532,5185,141,63]","trial_type":"two-door-navigation","trial_index":7,"time_elapsed":552254,"internal_node_id":"0.0-2.0-5.0"},{"group":"dihedral group of order 12","room_assignment":["purple","blue","orange","yellow","grey","ivory","cyan","olive","brown","green","pink","red"],"door_color_assignment":["white","black"],"door_generator_assignment":[0,1],"goal":6,"start":1,"action_noise":0.15,"location_history":"[1,2,8,7,1,7,6]","action_history":"[1,1,0,0,1,0]","door_history":"[1,1,0,0,1,0]","location_rts":"[2247,270,622,247,384,388]","trial_type":"two-door-navigation","trial_index":8,"time_elapsed":565946,"internal_node_id":"0.0-2.0-6.0"},{"group":"dihedral group of order 12","room_assignment":["purple","blue","orange","yellow","grey","ivory","cyan","olive","brown","green","pink","red"],"door_color_assignment":["white","black"],"door_generator_assignment":[0,1],"goal":9,"start":6,"action_noise":0.15,"location_history":"[6,0,6,0,6,0,1,7,1,7,6,11,5,0,6,0,1,7,6,11,10,9]","action_history":"[1,1,1,1,1,0,1,1,1,0,0,1,1,1,1,0,1,0,0,0,0]","door_history":"[1,1,1,1,1,0,1,1,1,0,0,1,1,1,1,0,1,0,0,0,0]","location_rts":"[919,272,368,257,1087,276,391,949,306,818,719,366,835,361,435,5230,244,2432,2194,3829,209]","trial_type":"two-door-navigation","trial_index":9,"time_elapsed":613085,"internal_node_id":"0.0-2.0-7.0"},{"group":"dihedral group of order 12","room_assignment":["purple","blue","orange","yellow","grey","ivory","cyan","olive","brown","green","pink","red"],"door_color_assignment":["white","black"],"door_generator_assignment":[0,1],"goal":2,"start":9,"action_noise":0.15,"location_history":"[9,8,2]","action_history":"[0,1]","door_history":"[0,1]","location_rts":"[750,288]","trial_type":"two-door-navigation","trial_index":10,"time_elapsed":619642,"internal_node_id":"0.0-2.0-8.0"},{"group":"dihedral group of order 12","room_assignment":["purple","blue","orange","yellow","grey","ivory","cyan","olive","brown","green","pink","red"],"door_color_assignment":["white","black"],"door_generator_assignment":[0,1],"goal":0,"start":2,"action_noise":0.15,"location_history":"[2,8,7,6,11,10,4,5,0]","action_history":"[0,0,0,0,0,1,0,0]","door_history":"[0,0,0,0,0,1,0,0]","location_rts":"[771,331,297,360,4541,246,1105,617]","trial_type":"two-door-navigation","trial_index":11,"time_elapsed":639457,"internal_node_id":"0.0-2.0-9.0"},{"group":"dihedral group of order 12","room_assignment":["purple","blue","orange","yellow","grey","ivory","cyan","olive","brown","green","pink","red"],"door_color_assignment":["white","black"],"door_generator_assignment":[0,1],"goal":3,"start":0,"action_noise":0.15,"location_history":"[0,1,2,3]","action_history":"[0,0,0]","door_history":"[0,0,0]","location_rts":"[6841,408,755]","trial_type":"two-door-navigation","trial_index":12,"time_elapsed":653977,"internal_node_id":"0.0-2.0-10.0"},{"group":"dihedral group of order 12","room_assignment":["purple","blue","orange","yellow","grey","ivory","cyan","olive","brown","green","pink","red"],"door_color_assignment":["white","black"],"door_generator_assignment":[0,1],"goal":10,"start":3,"action_noise":0.15,"location_history":"[3,9,3,4,10]","action_history":"[1,1,0,1]","door_history":"[1,1,0,1]","location_rts":"[1310,342,586,2131]","trial_type":"two-door-navigation","trial_index":13,"time_elapsed":665877,"internal_node_id":"0.0-2.0-11.0"},{"group":"dihedral group of order 12","room_assignment":["purple","blue","orange","yellow","grey","ivory","cyan","olive","brown","green","pink","red"],"door_color_assignment":["white","black"],"door_generator_assignment":[0,1],"goal":8,"start":10,"action_noise":0.15,"location_history":"[10,4,5,11,10,4,10,4,5,0,1,7,6,0,1,2,8]","action_history":"[0,0,0,0,0,1,1,0,0,0,0,0,1,0,0,1]","door_history":"[0,0,0,0,0,1,1,0,0,0,0,0,1,0,0,1]","location_rts":"[1467,153,316,899,349,280,311,504,330,525,550,737,796,625,6926,624]","trial_type":"two-door-navigation","trial_index":14,"time_elapsed":700873,"internal_node_id":"0.0-2.0-12.0"},{"group":"dihedral group of order 12","room_assignment":["purple","blue","orange","yellow","grey","ivory","cyan","olive","brown","green","pink","red"],"door_color_assignment":["white","black"],"door_generator_assignment":[0,1],"goal":4,"start":8,"action_noise":0.15,"location_history":"[8,2,8,7,1,2,3,4]","action_history":"[1,1,0,1,1,0,0]","door_history":"[1,1,0,1,1,0,0]","location_rts":"[1390,341,630,412,352,292,380]","trial_type":"two-door-navigation","trial_index":15,"time_elapsed":715221,"internal_node_id":"0.0-2.0-13.0"},{"group":"dihedral group of order 12","room_assignment":["purple","blue","orange","yellow","grey","ivory","cyan","olive","brown","green","pink","red"],"door_color_assignment":["white","black"],"door_generator_assignment":[0,1],"goal":0,"start":4,"action_noise":0.15,"location_history":"[4,5,0]","action_history":"[0,0]","door_history":"[0,0]","location_rts":"[1880,440]","trial_type":"two-door-navigation","trial_index":16,"time_elapsed":723059,"internal_node_id":"0.0-2.0-14.0"},{"group":"dihedral group of order 12","room_assignment":["purple","blue","orange","yellow","grey","ivory","cyan","olive","brown","green","pink","red"],"door_color_assignment":["white","black"],"door_generator_assignment":[0,1],"goal":11,"start":0,"action_noise":0.15,"location_history":"[0,1,2,3,4,5,11]","action_history":"[0,0,0,0,0,1]","door_history":"[0,0,0,0,0,1]","location_rts":"[1323,675,604,357,3409,392]","trial_type":"two-door-navigation","trial_index":17,"time_elapsed":739361,"internal_node_id":"0.0-2.0-15.0"},{"group":"dihedral group of order 12","room_assignment":["purple","blue","orange","yellow","grey","ivory","cyan","olive","brown","green","pink","red"],"door_color_assignment":["white","black"],"door_generator_assignment":[0,1],"goal":2,"start":11,"action_noise":0.15,"location_history":"[11,10,9,8,7,6,0,6,11,5,0,6,11,5,0,6,0,1,2]","action_history":"[0,0,0,0,0,0,0,0,0,0,0,0,1,0,1,0,0,0]","door_history":"[0,0,0,0,0,0,0,0,0,0,0,0,1,0,1,0,0,0]","location_rts":"[8470,7172,1466,322,261,321,373,317,324,300,329,339,979,325,641,409,324,747]","trial_type":"two-door-navigation","trial_index":18,"time_elapsed":784424,"internal_node_id":"0.0-2.0-16.0"},{"group":"dihedral group of order 12","room_assignment":["purple","blue","orange","yellow","grey","ivory","cyan","olive","brown","green","pink","red"],"door_color_assignment":["white","black"],"door_generator_assignment":[0,1],"goal":7,"start":2,"action_noise":0.15,"location_history":"[2,8,7]","action_history":"[1,0]","door_history":"[1,0]","location_rts":"[1974,328]","trial_type":"two-door-navigation","trial_index":19,"time_elapsed":792246,"internal_node_id":"0.0-2.0-17.0"},{"group":"dihedral group of order 12","room_assignment":["purple","blue","orange","yellow","grey","ivory","cyan","olive","brown","green","pink","red"],"door_color_assignment":["white","black"],"door_generator_assignment":[0,1],"goal":5,"start":7,"action_noise":0.15,"location_history":"[7,1,2,8,7,6,11,10,4,5]","action_history":"[1,1,1,1,0,0,0,1,0]","door_history":"[1,1,1,1,0,0,0,1,0]","location_rts":"[1235,389,352,478,392,580,789,3672,607]","trial_type":"two-door-navigation","trial_index":20,"time_elapsed":813290,"internal_node_id":"0.0-2.0-18.0"},{"group":"dihedral group of order 12","room_assignment":["purple","blue","orange","yellow","grey","ivory","cyan","olive","brown","green","pink","red"],"door_color_assignment":["white","black"],"door_generator_assignment":[0,1],"goal":6,"start":5,"action_noise":0.15,"location_history":"[5,11,5,0,1,2,3,9,8,7,6]","action_history":"[0,1,0,0,1,0,1,0,0,0]","door_history":"[0,1,0,0,1,0,1,0,0,0]","location_rts":"[1050,765,319,779,231,313,491,328,1138,508]","trial_type":"two-door-navigation","trial_index":21,"time_elapsed":832805,"internal_node_id":"0.0-2.0-19.0"},{"group":"dihedral group of order 12","room_assignment":["purple","blue","orange","yellow","grey","ivory","cyan","olive","brown","green","pink","red"],"door_color_assignment":["white","black"],"door_generator_assignment":[0,1],"goal":3,"start":6,"action_noise":0.15,"location_history":"[6,11,10,9,8,7,6,11,10,4,5,11,10,9,3]","action_history":"[0,0,0,0,0,0,0,0,1,0,1,0,0,1]","door_history":"[0,0,0,0,0,0,0,0,1,0,1,0,0,1]","location_rts":"[1311,1523,1701,455,360,308,631,1519,366,201,139,329,360,718]","trial_type":"two-door-navigation","trial_index":22,"time_elapsed":860327,"internal_node_id":"0.0-2.0-20.0"},{"group":"dihedral group of order 12","room_assignment":["purple","blue","orange","yellow","grey","ivory","cyan","olive","brown","green","pink","red"],"door_color_assignment":["white","black"],"door_generator_assignment":[0,1],"goal":1,"start":3,"action_noise":0.15,"location_history":"[3,9,8,2,3,4,10,9,8,2,3,4,5,11,10,9,8,7,6,11,10,9,8,7,6,11,10,4,5,0,6,0,6,0,1]","action_history":"[0,0,0,0,0,0,0,0,0,0,0,0,0,0,0,0,0,0,0,0,0,0,0,0,0,0,1,0,0,0,1,0,1,0]","door_history":"[0,0,0,0,0,0,0,0,0,0,0,0,0,0,0,0,0,0,0,0,0,0,0,0,0,0,1,0,0,0,1,0,1,0]","location_rts":"[1402,445,2804,558,433,454,311,755,470,439,513,408,577,771,259,354,371,331,782,594,737,756,595,500,650,746,1856,300,689,738,8695,343,871,269]","trial_type":"two-door-navigation","trial_index":23,"time_elapsed":928823,"internal_node_id":"0.0-2.0-21.0"},{"group":"dihedral group of order 12","room_assignment":["purple","blue","orange","yellow","grey","ivory","cyan","olive","brown","green","pink","red"],"door_color_assignment":["white","black"],"door_generator_assignment":[0,1],"goal":9,"start":1,"action_noise":0.15,"location_history":"[1,2,3,4,5,0,6,11,10,9]","action_history":"[0,0,0,0,0,0,0,0,0]","door_history":"[0,0,0,0,0,0,0,0,0]","location_rts":"[1876,397,413,537,861,583,438,352,391]","trial_type":"two-door-navigation","trial_index":24,"time_elapsed":947235,"internal_node_id":"0.0-2.0-22.0"},{"group":"dihedral group of order 12","room_assignment":["purple","blue","orange","yellow","grey","ivory","cyan","olive","brown","green","pink","red"],"door_color_assignment":["white","black"],"door_generator_assignment":[0,1],"goal":3,"start":9,"action_noise":0.15,"location_history":"[9,3]","action_history":"[0]","door_history":"[0]","location_rts":"[834]","trial_type":"two-door-navigation","trial_index":25,"time_elapsed":952575,"internal_node_id":"0.0-2.0-23.0"},{"group":"dihedral group of order 12","room_assignment":["purple","blue","orange","yellow","grey","ivory","cyan","olive","brown","green","pink","red"],"door_color_assignment":["white","black"],"door_generator_assignment":[0,1],"goal":4,"start":3,"action_noise":0.15,"location_history":"[3,4]","action_history":"[1]","door_history":"[1]","location_rts":"[1388]","trial_type":"two-door-navigation","trial_index":26,"time_elapsed":958472,"internal_node_id":"0.0-2.0-24.0"},{"group":"dihedral group of order 12","room_assignment":["purple","blue","orange","yellow","grey","ivory","cyan","olive","brown","green","pink","red"],"door_color_assignment":["white","black"],"door_generator_assignment":[0,1],"goal":2,"start":4,"action_noise":0.15,"location_history":"[4,5,0,1,2]","action_history":"[0,0,0,0]","door_history":"[0,0,0,0]","location_rts":"[3154,1257,447,341]","trial_type":"two-door-navigation","trial_index":27,"time_elapsed":971206,"internal_node_id":"0.0-2.0-25.0"},{"group":"dihedral group of order 12","room_assignment":["purple","blue","orange","yellow","grey","ivory","cyan","olive","brown","green","pink","red"],"door_color_assignment":["white","black"],"door_generator_assignment":[0,1],"goal":1,"start":2,"action_noise":0.15,"location_history":"[2,3,4,5,0,6,11,10,9,8,7,6,0,1]","action_history":"[0,0,0,0,0,1,0,0,0,0,0,1,0]","door_history":"[0,0,0,0,0,1,0,0,0,0,0,1,0]","location_rts":"[9874,56,322,396,500,1415,716,426,535,726,748,1238,357]","trial_type":"two-door-navigation","trial_index":28,"time_elapsed":1005098,"internal_node_id":"0.0-2.0-26.0"},{"group":"dihedral group of order 12","room_assignment":["purple","blue","orange","yellow","grey","ivory","cyan","olive","brown","green","pink","red"],"door_color_assignment":["white","black"],"door_generator_assignment":[0,1],"goal":8,"start":1,"action_noise":0.15,"location_history":"[1,2,3,9,8]","action_history":"[0,0,0,0]","door_history":"[0,0,0,0]","location_rts":"[1038,272,306,398]","trial_type":"two-door-navigation","trial_index":29,"time_elapsed":1014639,"internal_node_id":"0.0-2.0-27.0"},{"group":"dihedral group of order 12","room_assignment":["purple","blue","orange","yellow","grey","ivory","cyan","olive","brown","green","pink","red"],"door_color_assignment":["white","black"],"door_generator_assignment":[0,1],"goal":10,"start":8,"action_noise":0.15,"location_history":"[8,7,1,2,8,7,6,0,1,2,3,4,10]","action_history":"[1,1,0,1,0,0,1,1,0,0,0,1]","door_history":"[1,1,0,1,0,0,1,1,0,0,0,1]","location_rts":"[1372,384,193,505,461,574,522,671,414,318,460,1053]","trial_type":"two-door-navigation","trial_index":30,"time_elapsed":1037156,"internal_node_id":"0.0-2.0-28.0"},{"group":"dihedral group of order 12","room_assignment":["purple","blue","orange","yellow","grey","ivory","cyan","olive","brown","green","pink","red"],"door_color_assignment":["white","black"],"door_generator_assignment":[0,1],"goal":7,"start":10,"action_noise":0.15,"location_history":"[10,4,5,0,1,2,3,4,5,0,1,2,3,9,8,7]","action_history":"[0,0,0,0,0,0,0,0,0,0,0,0,1,0,0]","door_history":"[0,0,0,0,0,0,0,0,0,0,0,0,1,0,0]","location_rts":"[1726,363,333,422,341,262,306,315,325,248,259,439,533,464,460]","trial_type":"two-door-navigation","trial_index":31,"time_elapsed":1062569,"internal_node_id":"0.0-2.0-29.0"},{"group":"dihedral group of order 12","room_assignment":["purple","blue","orange","yellow","grey","ivory","cyan","olive","brown","green","pink","red"],"door_color_assignment":["white","black"],"door_generator_assignment":[0,1],"goal":6,"start":7,"action_noise":0.15,"location_history":"[7,1,7,1,2,3,4,5,0,6]","action_history":"[0,1,0,0,0,0,0,0,1]","door_history":"[0,1,0,0,0,0,0,0,1]","location_rts":"[1235,1133,780,573,567,674,1376,75,571]","trial_type":"two-door-navigation","trial_index":32,"time_elapsed":1082105,"internal_node_id":"0.0-2.0-30.0"},{"group":"dihedral group of order 12","room_assignment":["purple","blue","orange","yellow","grey","ivory","cyan","olive","brown","green","pink","red"],"door_color_assignment":["white","black"],"door_generator_assignment":[0,1],"goal":0,"start":6,"action_noise":0.15,"location_history":"[6,11,5,11,5,11,10,9,3,9,3,4,5,0]","action_history":"[0,1,0,1,0,1,0,1,0,0,0,0,0]","door_history":"[0,1,0,1,0,1,0,1,0,0,0,0,0]","location_rts":"[2578,2733,1617,1354,422,950,107,673,934,340,341,344,245]","trial_type":"two-door-navigation","trial_index":33,"time_elapsed":1111329,"internal_node_id":"0.0-2.0-31.0"},{"group":"dihedral group of order 12","room_assignment":["purple","blue","orange","yellow","grey","ivory","cyan","olive","brown","green","pink","red"],"door_color_assignment":["white","black"],"door_generator_assignment":[0,1],"goal":11,"start":0,"action_noise":0.15,"location_history":"[0,6,11]","action_history":"[1,0]","door_history":"[1,0]","location_rts":"[2846,629]","trial_type":"two-door-navigation","trial_index":34,"time_elapsed":1120319,"internal_node_id":"0.0-2.0-32.0"},{"group":"dihedral group of order 12","room_assignment":["purple","blue","orange","yellow","grey","ivory","cyan","olive","brown","green","pink","red"],"door_color_assignment":["white","black"],"door_generator_assignment":[0,1],"goal":9,"start":11,"action_noise":0.15,"location_history":"[11,10,9]","action_history":"[0,0]","door_history":"[0,0]","location_rts":"[833,326]","trial_type":"two-door-navigation","trial_index":35,"time_elapsed":1126988,"internal_node_id":"0.0-2.0-33.0"},{"group":"dihedral group of order 12","room_assignment":["purple","blue","orange","yellow","grey","ivory","cyan","olive","brown","green","pink","red"],"door_color_assignment":["white","black"],"door_generator_assignment":[0,1],"goal":5,"start":9,"action_noise":0.15,"location_history":"[9,3,4,5]","action_history":"[1,0,0]","door_history":"[1,0,0]","location_rts":"[5329,1171,770]","trial_type":"two-door-navigation","trial_index":36,"time_elapsed":1140789,"internal_node_id":"0.0-2.0-34.0"},{"view_history":"[{\"page_index\":0,\"viewing_time\":3864}]","rt":3865,"trial_type":"instructions","trial_index":37,"time_elapsed":1145655,"internal_node_id":"0.0-3.0"},{"view_history":"[{\"page_index\":0,\"viewing_time\":1856},{\"page_index\":1,\"viewing_time\":8740}]","rt":10596,"trial_type":"instructions","trial_index":38,"time_elapsed":1157250,"internal_node_id":"0.0-4.0"},{"group":"dihedral group of order 12","fractal_assignment":["../images/grn_red.png","../images/grn_blu.png","../images/cyn_red.png","../images/gry_blk.png","../images/wht_red.png","../images/blu_wht.png","../images/red_prp.png","../images/org_blu.png","../images/ylw_slt.png","../images/grn_prp.png","../images/pnk_blu.png","../images/ylw_pnk.png"],"mutagen_generator_assignment":[1,0],"goal":7,"start":11,"action_noise":0.15,"location_history":"[11,10,4,5,11,10,9,8,7]","action_history":"[0,0,0,1,0,0,0,0]","mutagen_history":"[1,1,1,0,1,1,1,1]","location_rts":"[5032,474,529,482,439,476,265,452]","trial_type":"fractal-mutation","trial_index":39,"time_elapsed":1178648,"internal_node_id":"0.0-5.0-0.0"},{"group":"dihedral group of order 12","fractal_assignment":["../images/grn_red.png","../images/grn_blu.png","../images/cyn_red.png","../images/gry_blk.png","../images/wht_red.png","../images/blu_wht.png","../images/red_prp.png","../images/org_blu.png","../images/ylw_slt.png","../images/grn_prp.png","../images/pnk_blu.png","../images/ylw_pnk.png"],"mutagen_generator_assignment":[1,0],"goal":8,"start":7,"action_noise":0.15,"location_history":"[7,6,0,1,2,8]","action_history":"[0,1,0,0,1]","mutagen_history":"[1,0,1,1,0]","location_rts":"[1343,325,519,1101,2230]","trial_type":"fractal-mutation","trial_index":40,"time_elapsed":1193620,"internal_node_id":"0.0-5.0-1.0"},{"group":"dihedral group of order 12","fractal_assignment":["../images/grn_red.png","../images/grn_blu.png","../images/cyn_red.png","../images/gry_blk.png","../images/wht_red.png","../images/blu_wht.png","../images/red_prp.png","../images/org_blu.png","../images/ylw_slt.png","../images/grn_prp.png","../images/pnk_blu.png","../images/ylw_pnk.png"],"mutagen_generator_assignment":[1,0],"goal":4,"start":8,"action_noise":0.15,"location_history":"[8,2,8,2,3,4]","action_history":"[1,0,0,0,0]","mutagen_history":"[0,1,1,1,1]","location_rts":"[6547,550,1059,830,739]","trial_type":"fractal-mutation","trial_index":41,"time_elapsed":1212803,"internal_node_id":"0.0-5.0-2.0"},{"group":"dihedral group of order 12","fractal_assignment":["../images/grn_red.png","../images/grn_blu.png","../images/cyn_red.png","../images/gry_blk.png","../images/wht_red.png","../images/blu_wht.png","../images/red_prp.png","../images/org_blu.png","../images/ylw_slt.png","../images/grn_prp.png","../images/pnk_blu.png","../images/ylw_pnk.png"],"mutagen_generator_assignment":[1,0],"goal":5,"start":4,"action_noise":0.15,"location_history":"[4,5]","action_history":"[0]","mutagen_history":"[1]","location_rts":"[1318]","trial_type":"fractal-mutation","trial_index":42,"time_elapsed":1218841,"internal_node_id":"0.0-5.0-3.0"},{"group":"dihedral group of order 12","fractal_assignment":["../images/grn_red.png","../images/grn_blu.png","../images/cyn_red.png","../images/gry_blk.png","../images/wht_red.png","../images/blu_wht.png","../images/red_prp.png","../images/org_blu.png","../images/ylw_slt.png","../images/grn_prp.png","../images/pnk_blu.png","../images/ylw_pnk.png"],"mutagen_generator_assignment":[1,0],"goal":10,"start":5,"action_noise":0.15,"location_history":"[5,0,6,11,10]","action_history":"[0,0,0,0]","mutagen_history":"[1,1,1,1]","location_rts":"[1487,579,687,411]","trial_type":"fractal-mutation","trial_index":43,"time_elapsed":1230439,"internal_node_id":"0.0-5.0-4.0"},{"group":"dihedral group of order 12","fractal_assignment":["../images/grn_red.png","../images/grn_blu.png","../images/cyn_red.png","../images/gry_blk.png","../images/wht_red.png","../images/blu_wht.png","../images/red_prp.png","../images/org_blu.png","../images/ylw_slt.png","../images/grn_prp.png","../images/pnk_blu.png","../images/ylw_pnk.png"],"mutagen_generator_assignment":[1,0],"goal":1,"start":10,"action_noise":0.15,"location_history":"[10,9,8,7,6,11,10,9,8,2,3,4,10,4,5,0,6,0,1]","action_history":"[0,0,0,0,0,0,0,0,1,0,0,1,1,0,0,1,1,0]","mutagen_history":"[1,1,1,1,1,1,1,1,0,1,1,0,0,1,1,0,0,1]","location_rts":"[1874,569,461,482,477,539,674,581,2573,343,422,781,522,211,821,634,1129,559]","trial_type":"fractal-mutation","trial_index":44,"time_elapsed":1269036,"internal_node_id":"0.0-5.0-5.0"},{"group":"dihedral group of order 12","fractal_assignment":["../images/grn_red.png","../images/grn_blu.png","../images/cyn_red.png","../images/gry_blk.png","../images/wht_red.png","../images/blu_wht.png","../images/red_prp.png","../images/org_blu.png","../images/ylw_slt.png","../images/grn_prp.png","../images/pnk_blu.png","../images/ylw_pnk.png"],"mutagen_generator_assignment":[1,0],"goal":6,"start":1,"action_noise":0.15,"location_history":"[1,2,3,9,8,7,1,2,3,9,8,7,6]","action_history":"[1,0,0,0,1,1,0,0,1,0,0,0]","mutagen_history":"[0,1,1,1,0,0,1,1,0,1,1,1]","location_rts":"[1069,2190,3004,830,1499,765,168,1447,641,547,521,545]","trial_type":"fractal-mutation","trial_index":45,"time_elapsed":1299966,"internal_node_id":"0.0-5.0-6.0"},{"group":"dihedral group of order 12","fractal_assignment":["../images/grn_red.png","../images/grn_blu.png","../images/cyn_red.png","../images/gry_blk.png","../images/wht_red.png","../images/blu_wht.png","../images/red_prp.png","../images/org_blu.png","../images/ylw_slt.png","../images/grn_prp.png","../images/pnk_blu.png","../images/ylw_pnk.png"],"mutagen_generator_assignment":[1,0],"goal":9,"start":6,"action_noise":0.15,"location_history":"[6,11,10,9]","action_history":"[0,0,0]","mutagen_history":"[1,1,1]","location_rts":"[1194,676,1137]","trial_type":"fractal-mutation","trial_index":46,"time_elapsed":1310121,"internal_node_id":"0.0-5.0-7.0"},{"group":"dihedral group of order 12","fractal_assignment":["../images/grn_red.png","../images/grn_blu.png","../images/cyn_red.png","../images/gry_blk.png","../images/wht_red.png","../images/blu_wht.png","../images/red_prp.png","../images/org_blu.png","../images/ylw_slt.png","../images/grn_prp.png","../images/pnk_blu.png","../images/ylw_pnk.png"],"mutagen_generator_assignment":[1,0],"goal":2,"start":9,"action_noise":0.15,"location_history":"[9,8,7,6,11,5,0,6,0,1,7,1,2]","action_history":"[0,0,0,0,0,0,1,0,0,1,1,0]","mutagen_history":"[1,1,1,1,1,1,0,1,1,0,0,1]","location_rts":"[1441,625,735,894,794,929,1217,600,926,490,362,183]","trial_type":"fractal-mutation","trial_index":47,"time_elapsed":1337197,"internal_node_id":"0.0-5.0-8.0"},{"group":"dihedral group of order 12","fractal_assignment":["../images/grn_red.png","../images/grn_blu.png","../images/cyn_red.png","../images/gry_blk.png","../images/wht_red.png","../images/blu_wht.png","../images/red_prp.png","../images/org_blu.png","../images/ylw_slt.png","../images/grn_prp.png","../images/pnk_blu.png","../images/ylw_pnk.png"],"mutagen_generator_assignment":[1,0],"goal":0,"start":2,"action_noise":0.15,"location_history":"[2,3,9,3,9,3,9,3,9,8,2,3,9,3,9,8,7,6,0]","action_history":"[0,1,1,1,0,1,1,1,0,1,0,0,1,0,0,0,0,1]","mutagen_history":"[1,0,0,0,1,0,0,0,1,0,1,1,0,1,1,1,1,0]","location_rts":"[89453,578,587,549,598,645,641,548,377,632,292,656,759,197,617,571,668,659]","trial_type":"fractal-mutation","trial_index":48,"time_elapsed":1460808,"internal_node_id":"0.0-5.0-9.0"},{"group":"dihedral group of order 12","fractal_assignment":["../images/grn_red.png","../images/grn_blu.png","../images/cyn_red.png","../images/gry_blk.png","../images/wht_red.png","../images/blu_wht.png","../images/red_prp.png","../images/org_blu.png","../images/ylw_slt.png","../images/grn_prp.png","../images/pnk_blu.png","../images/ylw_pnk.png"],"mutagen_generator_assignment":[1,0],"goal":3,"start":0,"action_noise":0.15,"location_history":"[0,1,7,6,0,1,2,3]","action_history":"[0,1,0,0,0,0,0]","mutagen_history":"[1,0,1,1,1,1,1]","location_rts":"[1133,992,433,640,150,643,730]","trial_type":"fractal-mutation","trial_index":49,"time_elapsed":1477445,"internal_node_id":"0.0-5.0-10.0"},{"group":"dihedral group of order 12","fractal_assignment":["../images/grn_red.png","../images/grn_blu.png","../images/cyn_red.png","../images/gry_blk.png","../images/wht_red.png","../images/blu_wht.png","../images/red_prp.png","../images/org_blu.png","../images/ylw_slt.png","../images/grn_prp.png","../images/pnk_blu.png","../images/ylw_pnk.png"],"mutagen_generator_assignment":[1,0],"goal":10,"start":3,"action_noise":0.15,"location_history":"[3,4,5,0,1,7,1,2,3,4,5,11,10]","action_history":"[0,0,0,0,0,0,0,0,0,0,0,0]","mutagen_history":"[1,1,1,1,1,1,1,1,1,1,1,1]","location_rts":"[1235,687,685,2167,1701,1114,879,1479,907,2621,1047,677]","trial_type":"fractal-mutation","trial_index":50,"time_elapsed":1510800,"internal_node_id":"0.0-5.0-11.0"},{"group":"dihedral group of order 12","fractal_assignment":["../images/grn_red.png","../images/grn_blu.png","../images/cyn_red.png","../images/gry_blk.png","../images/wht_red.png","../images/blu_wht.png","../images/red_prp.png","../images/org_blu.png","../images/ylw_slt.png","../images/grn_prp.png","../images/pnk_blu.png","../images/ylw_pnk.png"],"mutagen_generator_assignment":[1,0],"goal":8,"start":10,"action_noise":0.15,"location_history":"[10,9,3,9,8]","action_history":"[0,1,1,0]","mutagen_history":"[1,0,0,1]","location_rts":"[1305,739,1250,688]","trial_type":"fractal-mutation","trial_index":51,"time_elapsed":1522969,"internal_node_id":"0.0-5.0-12.0"},{"group":"dihedral group of order 12","fractal_assignment":["../images/grn_red.png","../images/grn_blu.png","../images/cyn_red.png","../images/gry_blk.png","../images/wht_red.png","../images/blu_wht.png","../images/red_prp.png","../images/org_blu.png","../images/ylw_slt.png","../images/grn_prp.png","../images/pnk_blu.png","../images/ylw_pnk.png"],"mutagen_generator_assignment":[1,0],"goal":4,"start":8,"action_noise":0.15,"location_history":"[8,2,8,7,1,7,6,11,5,11,5,0,1,2,3,4]","action_history":"[1,0,0,0,1,0,1,1,1,1,0,0,0,0,0]","mutagen_history":"[0,1,1,1,0,1,0,0,0,0,1,1,1,1,1]","location_rts":"[1566,693,808,479,340,355,321,520,469,501,201,1081,1146,1032,655]","trial_type":"fractal-mutation","trial_index":52,"time_elapsed":1554206,"internal_node_id":"0.0-5.0-13.0"},{"group":"dihedral group of order 12","fractal_assignment":["../images/grn_red.png","../images/grn_blu.png","../images/cyn_red.png","../images/gry_blk.png","../images/wht_red.png","../images/blu_wht.png","../images/red_prp.png","../images/org_blu.png","../images/ylw_slt.png","../images/grn_prp.png","../images/pnk_blu.png","../images/ylw_pnk.png"],"mutagen_generator_assignment":[1,0],"goal":0,"start":4,"action_noise":0.15,"location_history":"[4,10,4,5,11,10,9,3,4,10,9,8,7,6,0]","action_history":"[1,1,1,1,0,0,1,0,0,0,0,0,0,0]","mutagen_history":"[0,0,0,0,1,1,0,1,1,1,1,1,1,1]","location_rts":"[1051,405,392,473,332,437,623,167,755,1219,1016,17527,1093,5598]","trial_type":"fractal-mutation","trial_index":53,"time_elapsed":1604915,"internal_node_id":"0.0-5.0-14.0"},{"group":"dihedral group of order 12","fractal_assignment":["../images/grn_red.png","../images/grn_blu.png","../images/cyn_red.png","../images/gry_blk.png","../images/wht_red.png","../images/blu_wht.png","../images/red_prp.png","../images/org_blu.png","../images/ylw_slt.png","../images/grn_prp.png","../images/pnk_blu.png","../images/ylw_pnk.png"],"mutagen_generator_assignment":[1,0],"goal":11,"start":0,"action_noise":0.15,"location_history":"[0,1,2,3,4,5,0,1,2,8,2,8,7,6,11]","action_history":"[0,0,0,0,0,0,0,0,1,1,1,0,0,0]","mutagen_history":"[1,1,1,1,1,1,1,1,0,0,0,1,1,1]","location_rts":"[2929,377,381,465,480,467,502,618,711,377,495,150,502,1447]","trial_type":"fractal-mutation","trial_index":54,"time_elapsed":1635121,"internal_node_id":"0.0-5.0-15.0"},{"group":"dihedral group of order 12","fractal_assignment":["../images/grn_red.png","../images/grn_blu.png","../images/cyn_red.png","../images/gry_blk.png","../images/wht_red.png","../images/blu_wht.png","../images/red_prp.png","../images/org_blu.png","../images/ylw_slt.png","../images/grn_prp.png","../images/pnk_blu.png","../images/ylw_pnk.png"],"mutagen_generator_assignment":[1,0],"goal":2,"start":11,"action_noise":0.15,"location_history":"[11,10,4,10,4,5,11,5,11,5,11,5,11,5,0,1,2]","action_history":"[0,1,1,1,1,1,1,1,1,1,1,1,1,0,0,0]","mutagen_history":"[1,0,0,0,0,0,0,0,0,0,0,0,0,1,1,1]","location_rts":"[567,331,415,728,768,719,735,892,549,1969,1420,758,2615,256,561,638]","trial_type":"fractal-mutation","trial_index":55,"time_elapsed":1670880,"internal_node_id":"0.0-5.0-16.0"},{"group":"dihedral group of order 12","fractal_assignment":["../images/grn_red.png","../images/grn_blu.png","../images/cyn_red.png","../images/gry_blk.png","../images/wht_red.png","../images/blu_wht.png","../images/red_prp.png","../images/org_blu.png","../images/ylw_slt.png","../images/grn_prp.png","../images/pnk_blu.png","../images/ylw_pnk.png"],"mutagen_generator_assignment":[1,0],"goal":7,"start":2,"action_noise":0.15,"location_history":"[2,3,4,5,0,1,2,8,7]","action_history":"[0,0,0,0,0,0,1,0]","mutagen_history":"[1,1,1,1,1,1,0,1]","location_rts":"[2120,670,1697,759,790,677,851,385]","trial_type":"fractal-mutation","trial_index":56,"time_elapsed":1691988,"internal_node_id":"0.0-5.0-17.0"},{"group":"dihedral group of order 12","fractal_assignment":["../images/grn_red.png","../images/grn_blu.png","../images/cyn_red.png","../images/gry_blk.png","../images/wht_red.png","../images/blu_wht.png","../images/red_prp.png","../images/org_blu.png","../images/ylw_slt.png","../images/grn_prp.png","../images/pnk_blu.png","../images/ylw_pnk.png"],"mutagen_generator_assignment":[1,0],"goal":5,"start":7,"action_noise":0.15,"location_history":"[7,1,7,1,2,3,9,3,9,3,9,3,4,5]","action_history":"[1,1,1,1,1,1,1,1,1,1,1,0,0]","mutagen_history":"[0,0,0,0,0,0,0,0,0,0,0,1,1]","location_rts":"[1878,535,466,423,824,423,633,790,650,572,552,403,571]","trial_type":"fractal-mutation","trial_index":57,"time_elapsed":1717810,"internal_node_id":"0.0-5.0-18.0"},{"group":"dihedral group of order 12","fractal_assignment":["../images/grn_red.png","../images/grn_blu.png","../images/cyn_red.png","../images/gry_blk.png","../images/wht_red.png","../images/blu_wht.png","../images/red_prp.png","../images/org_blu.png","../images/ylw_slt.png","../images/grn_prp.png","../images/pnk_blu.png","../images/ylw_pnk.png"],"mutagen_generator_assignment":[1,0],"goal":6,"start":5,"action_noise":0.15,"location_history":"[5,0,6]","action_history":"[0,1]","mutagen_history":"[1,0]","location_rts":"[1591,464]","trial_type":"fractal-mutation","trial_index":58,"time_elapsed":1725714,"internal_node_id":"0.0-5.0-19.0"},{"group":"dihedral group of order 12","fractal_assignment":["../images/grn_red.png","../images/grn_blu.png","../images/cyn_red.png","../images/gry_blk.png","../images/wht_red.png","../images/blu_wht.png","../images/red_prp.png","../images/org_blu.png","../images/ylw_slt.png","../images/grn_prp.png","../images/pnk_blu.png","../images/ylw_pnk.png"],"mutagen_generator_assignment":[1,0],"goal":3,"start":6,"action_noise":0.15,"location_history":"[6,11,5,0,1,7,6,11,5,0,1,2,3]","action_history":"[0,1,0,0,1,0,0,0,0,0,0,0]","mutagen_history":"[1,0,1,1,0,1,1,1,1,1,1,1]","location_rts":"[1573,764,429,870,987,516,789,704,641,355,631,642]","trial_type":"fractal-mutation","trial_index":59,"time_elapsed":1752451,"internal_node_id":"0.0-5.0-20.0"},{"group":"dihedral group of order 12","fractal_assignment":["../images/grn_red.png","../images/grn_blu.png","../images/cyn_red.png","../images/gry_blk.png","../images/wht_red.png","../images/blu_wht.png","../images/red_prp.png","../images/org_blu.png","../images/ylw_slt.png","../images/grn_prp.png","../images/pnk_blu.png","../images/ylw_pnk.png"],"mutagen_generator_assignment":[1,0],"goal":1,"start":3,"action_noise":0.15,"location_history":"[3,4,5,0,6,11,10,9,8,7,1]","action_history":"[0,0,0,0,0,0,0,0,0,0]","mutagen_history":"[1,1,1,1,1,1,1,1,1,1]","location_rts":"[1175,985,931,1501,899,1233,742,972,1876,603]","trial_type":"fractal-mutation","trial_index":60,"time_elapsed":1779037,"internal_node_id":"0.0-5.0-21.0"},{"group":"dihedral group of order 12","fractal_assignment":["../images/grn_red.png","../images/grn_blu.png","../images/cyn_red.png","../images/gry_blk.png","../images/wht_red.png","../images/blu_wht.png","../images/red_prp.png","../images/org_blu.png","../images/ylw_slt.png","../images/grn_prp.png","../images/pnk_blu.png","../images/ylw_pnk.png"],"mutagen_generator_assignment":[1,0],"goal":9,"start":1,"action_noise":0.15,"location_history":"[1,2,3,4,5,0,1,2,3,4,5,0,6,11,5,0,6,11,10,9]","action_history":"[0,0,0,0,0,0,0,0,0,0,0,0,0,0,0,0,0,0,0]","mutagen_history":"[1,1,1,1,1,1,1,1,1,1,1,1,1,1,1,1,1,1,1]","location_rts":"[1341,5147,830,775,1692,764,3251,1110,1294,523,567,636,415,19826,449,1355,567,508,701]","trial_type":"fractal-mutation","trial_index":61,"time_elapsed":1847283,"internal_node_id":"0.0-5.0-22.0"},{"group":"dihedral group of order 12","fractal_assignment":["../images/grn_red.png","../images/grn_blu.png","../images/cyn_red.png","../images/gry_blk.png","../images/wht_red.png","../images/blu_wht.png","../images/red_prp.png","../images/org_blu.png","../images/ylw_slt.png","../images/grn_prp.png","../images/pnk_blu.png","../images/ylw_pnk.png"],"mutagen_generator_assignment":[1,0],"goal":3,"start":9,"action_noise":0.15,"location_history":"[9,8,7,6,0,1,2,3]","action_history":"[0,0,0,0,0,0,0]","mutagen_history":"[1,1,1,1,1,1,1]","location_rts":"[1190,383,486,610,1244,2761,721]","trial_type":"fractal-mutation","trial_index":62,"time_elapsed":1866699,"internal_node_id":"0.0-5.0-23.0"},{"group":"dihedral group of order 12","fractal_assignment":["../images/grn_red.png","../images/grn_blu.png","../images/cyn_red.png","../images/gry_blk.png","../images/wht_red.png","../images/blu_wht.png","../images/red_prp.png","../images/org_blu.png","../images/ylw_slt.png","../images/grn_prp.png","../images/pnk_blu.png","../images/ylw_pnk.png"],"mutagen_generator_assignment":[1,0],"goal":4,"start":3,"action_noise":0.15,"location_history":"[3,4]","action_history":"[0]","mutagen_history":"[1]","location_rts":"[3774]","trial_type":"fractal-mutation","trial_index":63,"time_elapsed":1875227,"internal_node_id":"0.0-5.0-24.0"},{"group":"dihedral group of order 12","fractal_assignment":["../images/grn_red.png","../images/grn_blu.png","../images/cyn_red.png","../images/gry_blk.png","../images/wht_red.png","../images/blu_wht.png","../images/red_prp.png","../images/org_blu.png","../images/ylw_slt.png","../images/grn_prp.png","../images/pnk_blu.png","../images/ylw_pnk.png"],"mutagen_generator_assignment":[1,0],"goal":2,"start":4,"action_noise":0.15,"location_history":"[4,5,0,1,2]","action_history":"[0,0,0,0]","mutagen_history":"[1,1,1,1]","location_rts":"[1405,920,882,675]","trial_type":"fractal-mutation","trial_index":64,"time_elapsed":1887557,"internal_node_id":"0.0-5.0-25.0"},{"group":"dihedral group of order 12","fractal_assignment":["../images/grn_red.png","../images/grn_blu.png","../images/cyn_red.png","../images/gry_blk.png","../images/wht_red.png","../images/blu_wht.png","../images/red_prp.png","../images/org_blu.png","../images/ylw_slt.png","../images/grn_prp.png","../images/pnk_blu.png","../images/ylw_pnk.png"],"mutagen_generator_assignment":[1,0],"goal":1,"start":2,"action_noise":0.15,"location_history":"[2,3,4,5,0,1]","action_history":"[0,0,0,0,0]","mutagen_history":"[1,1,1,1,1]","location_rts":"[1156,708,710,774,929]","trial_type":"fractal-mutation","trial_index":65,"time_elapsed":1901434,"internal_node_id":"0.0-5.0-26.0"},{"group":"dihedral group of order 12","fractal_assignment":["../images/grn_red.png","../images/grn_blu.png","../images/cyn_red.png","../images/gry_blk.png","../images/wht_red.png","../images/blu_wht.png","../images/red_prp.png","../images/org_blu.png","../images/ylw_slt.png","../images/grn_prp.png","../images/pnk_blu.png","../images/ylw_pnk.png"],"mutagen_generator_assignment":[1,0],"goal":8,"start":1,"action_noise":0.15,"location_history":"[1,2,8]","action_history":"[0,1]","mutagen_history":"[1,0]","location_rts":"[1600,5915]","trial_type":"fractal-mutation","trial_index":66,"time_elapsed":1914806,"internal_node_id":"0.0-5.0-27.0"},{"group":"dihedral group of order 12","fractal_assignment":["../images/grn_red.png","../images/grn_blu.png","../images/cyn_red.png","../images/gry_blk.png","../images/wht_red.png","../images/blu_wht.png","../images/red_prp.png","../images/org_blu.png","../images/ylw_slt.png","../images/grn_prp.png","../images/pnk_blu.png","../images/ylw_pnk.png"],"mutagen_generator_assignment":[1,0],"goal":10,"start":8,"action_noise":0.15,"location_history":"[8,7,6,11,10]","action_history":"[0,0,0,0]","mutagen_history":"[1,1,1,1]","location_rts":"[1604,400,700,696]","trial_type":"fractal-mutation","trial_index":67,"time_elapsed":1926562,"internal_node_id":"0.0-5.0-28.0"},{"group":"dihedral group of order 12","fractal_assignment":["../images/grn_red.png","../images/grn_blu.png","../images/cyn_red.png","../images/gry_blk.png","../images/wht_red.png","../images/blu_wht.png","../images/red_prp.png","../images/org_blu.png","../images/ylw_slt.png","../images/grn_prp.png","../images/pnk_blu.png","../images/ylw_pnk.png"],"mutagen_generator_assignment":[1,0],"goal":7,"start":10,"action_noise":0.15,"location_history":"[10,4,5,0,1,2,3,4,5,0,1,7]","action_history":"[0,0,0,0,0,0,0,0,0,0,1]","mutagen_history":"[1,1,1,1,1,1,1,1,1,1,0]","location_rts":"[1449,538,505,561,973,583,846,811,664,1427,1163]","trial_type":"fractal-mutation","trial_index":68,"time_elapsed":1952790,"internal_node_id":"0.0-5.0-29.0"},{"group":"dihedral group of order 12","fractal_assignment":["../images/grn_red.png","../images/grn_blu.png","../images/cyn_red.png","../images/gry_blk.png","../images/wht_red.png","../images/blu_wht.png","../images/red_prp.png","../images/org_blu.png","../images/ylw_slt.png","../images/grn_prp.png","../images/pnk_blu.png","../images/ylw_pnk.png"],"mutagen_generator_assignment":[1,0],"goal":6,"start":7,"action_noise":0.15,"location_history":"[7,6]","action_history":"[0]","mutagen_history":"[1]","location_rts":"[785]","trial_type":"fractal-mutation","trial_index":69,"time_elapsed":1958308,"internal_node_id":"0.0-5.0-30.0"},{"group":"dihedral group of order 12","fractal_assignment":["../images/grn_red.png","../images/grn_blu.png","../images/cyn_red.png","../images/gry_blk.png","../images/wht_red.png","../images/blu_wht.png","../images/red_prp.png","../images/org_blu.png","../images/ylw_slt.png","../images/grn_prp.png","../images/pnk_blu.png","../images/ylw_pnk.png"],"mutagen_generator_assignment":[1,0],"goal":0,"start":6,"action_noise":0.15,"location_history":"[6,0]","action_history":"[1]","mutagen_history":"[0]","location_rts":"[1809]","trial_type":"fractal-mutation","trial_index":70,"time_elapsed":1964636,"internal_node_id":"0.0-5.0-31.0"},{"group":"dihedral group of order 12","fractal_assignment":["../images/grn_red.png","../images/grn_blu.png","../images/cyn_red.png","../images/gry_blk.png","../images/wht_red.png","../images/blu_wht.png","../images/red_prp.png","../images/org_blu.png","../images/ylw_slt.png","../images/grn_prp.png","../images/pnk_blu.png","../images/ylw_pnk.png"],"mutagen_generator_assignment":[1,0],"goal":11,"start":0,"action_noise":0.15,"location_history":"[0,1,2,8,7,6,11]","action_history":"[0,0,0,0,0,0]","mutagen_history":"[1,1,1,1,1,1]","location_rts":"[1260,640,718,555,1418,2439]","trial_type":"fractal-mutation","trial_index":71,"time_elapsed":1982457,"internal_node_id":"0.0-5.0-32.0"},{"group":"dihedral group of order 12","fractal_assignment":["../images/grn_red.png","../images/grn_blu.png","../images/cyn_red.png","../images/gry_blk.png","../images/wht_red.png","../images/blu_wht.png","../images/red_prp.png","../images/org_blu.png","../images/ylw_slt.png","../images/grn_prp.png","../images/pnk_blu.png","../images/ylw_pnk.png"],"mutagen_generator_assignment":[1,0],"goal":9,"start":11,"action_noise":0.15,"location_history":"[11,10,9]","action_history":"[0,0]","mutagen_history":"[1,1]","location_rts":"[1086,1249]","trial_type":"fractal-mutation","trial_index":72,"time_elapsed":1990752,"internal_node_id":"0.0-5.0-33.0"},{"group":"dihedral group of order 12","fractal_assignment":["../images/grn_red.png","../images/grn_blu.png","../images/cyn_red.png","../images/gry_blk.png","../images/wht_red.png","../images/blu_wht.png","../images/red_prp.png","../images/org_blu.png","../images/ylw_slt.png","../images/grn_prp.png","../images/pnk_blu.png","../images/ylw_pnk.png"],"mutagen_generator_assignment":[1,0],"goal":5,"start":9,"action_noise":0.15,"location_history":"[9,8,2,3,9,8,7,6,11,10,9,8,7,6,0,1,2,3,9,8,7,6,11,10,4,5]","action_history":"[0,0,0,1,0,0,0,0,0,0,0,0,0,1,0,0,0,0,0,0,0,0,0,0,0]","mutagen_history":"[1,1,1,0,1,1,1,1,1,1,1,1,1,0,1,1,1,1,1,1,1,1,1,1,1]","location_rts":"[841,836,2800,2011,552,553,588,644,524,1031,917,1579,2366,3538,280,655,608,2898,1247,1660,533,450,472,924,704]","trial_type":"fractal-mutation","trial_index":73,"time_elapsed":2053625,"internal_node_id":"0.0-5.0-34.0"},{"view_history":"[{\"page_index\":0,\"viewing_time\":3326}]","rt":3326,"trial_type":"instructions","trial_index":74,"time_elapsed":2057951,"internal_node_id":"0.0-6.0"},{"rt":2386,"responses":"{\"Q0\":\"\"}","trial_type":"survey-text","trial_index":75,"time_elapsed":2061350,"internal_node_id":"0.0-7.0"}]