[{"view_history":"[{\"page_index\":0,\"viewing_time\":1379},{\"page_index\":1,\"viewing_time\":6181}]","rt":7560,"trial_type":"instructions","trial_index":0,"time_elapsed":7561,"internal_node_id":"0.0-0.0"},{"view_history":"[{\"page_index\":0,\"viewing_time\":2539},{\"page_index\":1,\"viewing_time\":11266}]","rt":13805,"trial_type":"instructions","trial_index":1,"time_elapsed":22368,"internal_node_id":"0.0-1.0"},{"group":"dihedral group of order 12","room_assignment":["blue","green","brown","yellow","cyan","orange","purple","ivory","pink","red","olive","grey"],"door_color_assignment":["white","black"],"door_generator_assignment":[0,1],"goal":7,"start":11,"action_noise":0.15,"location_history":"[11,10,9,3,9,3,4,5,11,5,0,1,7]","action_history":"[1,1,1,1,1,1,1,1,0,0,0,0]","door_history":"[1,1,1,1,1,1,1,1,0,0,0,0]","location_rts":"[75539,400,551,196,245,299,233,351,328,61,402,410]","trial_type":"two-door-navigation","trial_index":2,"time_elapsed":117192,"internal_node_id":"0.0-2.0-0.0"},{"group":"dihedral group of order 12","room_assignment":["blue","green","brown","yellow","cyan","orange","purple","ivory","pink","red","olive","grey"],"door_color_assignment":["white","black"],"door_generator_assignment":[0,1],"goal":8,"start":7,"action_noise":0.15,"location_history":"[7,6,0,6,0,1,7,6,0,1,2,8]","action_history":"[0,0,1,1,1,1,0,1,0,0,1]","door_history":"[0,0,1,1,1,1,0,1,0,0,1]","location_rts":"[2331,116,155,46,36,75,116,132,11,48,309]","trial_type":"two-door-navigation","trial_index":3,"time_elapsed":135290,"internal_node_id":"0.0-2.0-1.0"},{"group":"dihedral group of order 12","room_assignment":["blue","green","brown","yellow","cyan","orange","purple","ivory","pink","red","olive","grey"],"door_color_assignment":["white","black"],"door_generator_assignment":[0,1],"goal":4,"start":8,"action_noise":0.15,"location_history":"[8,7,6,11,10,9,8,7,6,0,6,0,6,0,6,0,6,11,10,4]","action_history":"[0,0,0,0,0,0,0,0,0,1,1,1,1,1,1,1,0,1,1]","door_history":"[0,0,0,0,0,0,0,0,0,1,1,1,1,1,1,1,0,1,1]","location_rts":"[589,345,224,172,212,353,267,462,120,627,16430,23,4860,17911,459,3609,516,546,5767]","trial_type":"two-door-navigation","trial_index":4,"time_elapsed":211668,"internal_node_id":"0.0-2.0-2.0"},{"group":"dihedral group of order 12","room_assignment":["blue","green","brown","yellow","cyan","orange","purple","ivory","pink","red","olive","grey"],"door_color_assignment":["white","black"],"door_generator_assignment":[0,1],"goal":5,"start":4,"action_noise":0.15,"location_history":"[4,5]","action_history":"[0]","door_history":"[0]","location_rts":"[1348]","trial_type":"two-door-navigation","trial_index":5,"time_elapsed":217541,"internal_node_id":"0.0-2.0-3.0"},{"group":"dihedral group of order 12","room_assignment":["blue","green","brown","yellow","cyan","orange","purple","ivory","pink","red","olive","grey"],"door_color_assignment":["white","black"],"door_generator_assignment":[0,1],"goal":10,"start":5,"action_noise":0.15,"location_history":"[5,11,5,11,5,11,5,11,5,0,1,2,3,9,8,2,8,2,8,2,3,4,10]","action_history":"[1,1,1,1,1,1,1,0,0,0,0,0,0,0,1,1,1,0,0,0,0,1]","door_history":"[1,1,1,1,1,1,1,0,0,0,0,0,0,0,1,1,1,0,0,0,0,1]","location_rts":"[157,339,33,242,106,192,16,80,207,188,152,51,109,160,358,32,474,180,449,167,137,145]","trial_type":"two-door-navigation","trial_index":6,"time_elapsed":247423,"internal_node_id":"0.0-2.0-4.0"},{"group":"dihedral group of order 12","room_assignment":["blue","green","brown","yellow","cyan","orange","purple","ivory","pink","red","olive","grey"],"door_color_assignment":["white","black"],"door_generator_assignment":[0,1],"goal":1,"start":10,"action_noise":0.15,"location_history":"[10,4,5,0,1]","action_history":"[1,0,1,0]","door_history":"[1,0,1,0]","location_rts":"[1475,327,34,117]","trial_type":"two-door-navigation","trial_index":7,"time_elapsed":256955,"internal_node_id":"0.0-2.0-5.0"},{"group":"dihedral group of order 12","room_assignment":["blue","green","brown","yellow","cyan","orange","purple","ivory","pink","red","olive","grey"],"door_color_assignment":["white","black"],"door_generator_assignment":[0,1],"goal":6,"start":1,"action_noise":0.15,"location_history":"[1,7,1,2,3,9,8,2,8,2,8,2,3,4,5,0,1,2,8,2,8,7,1,2,8,2,3,4,5,11,10,9,8,7,1,2,3,9,3,4,10,9,8,7,6]","action_history":"[1,1,0,0,0,0,1,1,1,1,0,0,0,0,0,0,0,1,1,1,1,1,1,1,1,0,0,0,1,1,0,0,0,1,0,0,1,1,0,0,0,0,0,1]","door_history":"[1,1,0,0,0,0,1,1,1,1,0,0,0,0,0,0,0,1,1,1,1,1,1,1,1,0,0,0,1,1,0,0,0,1,0,0,1,1,0,0,0,0,0,1]","location_rts":"[520,421,30,172,424,40,228,204,84,184,101,48,520,212,8,160,40,37,243,221,5150,78,58,46,14,114,33,35,19,16,41,74,76,120,254,648,303,181,2,85,170,219,159,70]","trial_type":"two-door-navigation","trial_index":8,"time_elapsed":317176,"internal_node_id":"0.0-2.0-6.0"},{"group":"dihedral group of order 12","room_assignment":["blue","green","brown","yellow","cyan","orange","purple","ivory","pink","red","olive","grey"],"door_color_assignment":["white","black"],"door_generator_assignment":[0,1],"goal":9,"start":6,"action_noise":0.15,"location_history":"[6,11,10,9]","action_history":"[0,0,0]","door_history":"[0,0,0]","location_rts":"[861,379,139]","trial_type":"two-door-navigation","trial_index":9,"time_elapsed":325109,"internal_node_id":"0.0-2.0-7.0"},{"group":"dihedral group of order 12","room_assignment":["blue","green","brown","yellow","cyan","orange","purple","ivory","pink","red","olive","grey"],"door_color_assignment":["white","black"],"door_generator_assignment":[0,1],"goal":2,"start":9,"action_noise":0.15,"location_history":"[9,3,9,3,9,3,9,3,9,8,7,6,11,10,9,8,7,6,0,6,0,6,11,10,4,5,0,1,7,1,7,1,2]","action_history":"[1,1,1,1,1,1,1,1,1,0,0,0,0,0,0,0,0,1,1,1,1,0,0,0,0,1,1,1,1,1,1,0]","door_history":"[1,1,1,1,1,1,1,1,1,0,0,0,0,0,0,0,0,1,1,1,1,0,0,0,0,1,1,1,1,1,1,0]","location_rts":"[772,103,95,27,25,232,6,190,129,425,58,77,12,181,324,67,245,7,47,1,417,199,100,177,80,164,192,40,164,189,192,67]","trial_type":"two-door-navigation","trial_index":10,"time_elapsed":366221,"internal_node_id":"0.0-2.0-8.0"},{"group":"dihedral group of order 12","room_assignment":["blue","green","brown","yellow","cyan","orange","purple","ivory","pink","red","olive","grey"],"door_color_assignment":["white","black"],"door_generator_assignment":[0,1],"goal":0,"start":2,"action_noise":0.15,"location_history":"[2,3,9,3,9,3,9,3,9,8,2,8,7,6,11,10,9,8,2,8,2,8,7,1,7,6,11,10,9,3,4,5,11,5,11,10,9,8,7,6,0]","action_history":"[1,1,1,1,1,1,1,1,0,1,1,0,0,0,0,0,1,1,1,1,1,0,1,1,1,0,0,0,1,0,0,1,1,1,1,1,0,0,0,0]","door_history":"[1,1,1,1,1,1,1,1,0,1,1,0,0,0,0,0,1,1,1,1,1,0,1,1,1,0,0,0,1,0,0,1,1,1,1,1,0,0,0,0]","location_rts":"[3802,290,1246,311,22515,62,158,2448,377,1173,265,216,36,67,112,121,329,55,172,180,175,566,3819,219,1815,160,41,22,431,112,1318,468,9255,240,175,163,10,132,44,414]","trial_type":"two-door-navigation","trial_index":11,"time_elapsed":463990,"internal_node_id":"0.0-2.0-9.0"},{"group":"dihedral group of order 12","room_assignment":["blue","green","brown","yellow","cyan","orange","purple","ivory","pink","red","olive","grey"],"door_color_assignment":["white","black"],"door_generator_assignment":[0,1],"goal":3,"start":0,"action_noise":0.15,"location_history":"[0,6,11,10,9,8,7,1,2,8,2,8,2,8,2,3]","action_history":"[1,1,1,0,0,0,0,0,1,1,1,1,1,1,0]","door_history":"[1,1,1,0,0,0,0,0,1,1,1,1,1,1,0]","location_rts":"[353,10,88,13,145,135,32,59,326,515,115,84,112,120,400]","trial_type":"two-door-navigation","trial_index":12,"time_elapsed":485287,"internal_node_id":"0.0-2.0-10.0"},{"group":"dihedral group of order 12","room_assignment":["blue","green","brown","yellow","cyan","orange","purple","ivory","pink","red","olive","grey"],"door_color_assignment":["white","black"],"door_generator_assignment":[0,1],"goal":10,"start":3,"action_noise":0.15,"location_history":"[3,4,10]","action_history":"[1,1]","door_history":"[1,1]","location_rts":"[6159,47]","trial_type":"two-door-navigation","trial_index":13,"time_elapsed":497030,"internal_node_id":"0.0-2.0-11.0"},{"group":"dihedral group of order 12","room_assignment":["blue","green","brown","yellow","cyan","orange","purple","ivory","pink","red","olive","grey"],"door_color_assignment":["white","black"],"door_generator_assignment":[0,1],"goal":8,"start":10,"action_noise":0.15,"location_history":"[10,4,10,9,8]","action_history":"[0,1,0,0]","door_history":"[0,1,0,0]","location_rts":"[385,17,76,57]","trial_type":"two-door-navigation","trial_index":14,"time_elapsed":505146,"internal_node_id":"0.0-2.0-12.0"},{"group":"dihedral group of order 12","room_assignment":["blue","green","brown","yellow","cyan","orange","purple","ivory","pink","red","olive","grey"],"door_color_assignment":["white","black"],"door_generator_assignment":[0,1],"goal":4,"start":8,"action_noise":0.15,"location_history":"[8,2,8,2,8,2,8,7,6,11,5,11,10,4]","action_history":"[1,1,1,1,1,1,0,0,0,0,0,0,0]","door_history":"[1,1,1,1,1,1,0,0,0,0,0,0,0]","location_rts":"[1044,180,84,127,88,124,93,63,70,111,84,42,368]","trial_type":"two-door-navigation","trial_index":15,"time_elapsed":524373,"internal_node_id":"0.0-2.0-13.0"},{"group":"dihedral group of order 12","room_assignment":["blue","green","brown","yellow","cyan","orange","purple","ivory","pink","red","olive","grey"],"door_color_assignment":["white","black"],"door_generator_assignment":[0,1],"goal":0,"start":4,"action_noise":0.15,"location_history":"[4,5,11,10,4,10,9,8,7,6,0]","action_history":"[0,1,0,0,0,0,0,0,0,0]","door_history":"[0,1,0,0,0,0,0,0,0,0]","location_rts":"[247,313,353,7776,2312,53,291,32,130,326]","trial_type":"two-door-navigation","trial_index":16,"time_elapsed":549897,"internal_node_id":"0.0-2.0-14.0"},{"group":"dihedral group of order 12","room_assignment":["blue","green","brown","yellow","cyan","orange","purple","ivory","pink","red","olive","grey"],"door_color_assignment":["white","black"],"door_generator_assignment":[0,1],"goal":11,"start":0,"action_noise":0.15,"location_history":"[0,1,2,3,4,5,0,6,0,6,11]","action_history":"[0,0,0,0,0,0,1,1,1,1]","door_history":"[0,0,0,0,0,0,1,1,1,1]","location_rts":"[1033,20,167,182,45,143,224,77,120,3]","trial_type":"two-door-navigation","trial_index":17,"time_elapsed":565611,"internal_node_id":"0.0-2.0-15.0"},{"group":"dihedral group of order 12","room_assignment":["blue","green","brown","yellow","cyan","orange","purple","ivory","pink","red","olive","grey"],"door_color_assignment":["white","black"],"door_generator_assignment":[0,1],"goal":2,"start":11,"action_noise":0.15,"location_history":"[11,10,4,10,4,10,4,10,4,5,0,1,2]","action_history":"[1,1,1,0,1,1,1,1,0,0,0,0]","door_history":"[1,1,1,0,1,1,1,1,0,0,0,0]","location_rts":"[423,125,9,4,36,43,285,337,54,3,149,41]","trial_type":"two-door-navigation","trial_index":18,"time_elapsed":582844,"internal_node_id":"0.0-2.0-16.0"},{"group":"dihedral group of order 12","room_assignment":["blue","green","brown","yellow","cyan","orange","purple","ivory","pink","red","olive","grey"],"door_color_assignment":["white","black"],"door_generator_assignment":[0,1],"goal":7,"start":2,"action_noise":0.15,"location_history":"[2,8,7]","action_history":"[1,0]","door_history":"[1,0]","location_rts":"[3929,209]","trial_type":"two-door-navigation","trial_index":19,"time_elapsed":592520,"internal_node_id":"0.0-2.0-17.0"},{"group":"dihedral group of order 12","room_assignment":["blue","green","brown","yellow","cyan","orange","purple","ivory","pink","red","olive","grey"],"door_color_assignment":["white","black"],"door_generator_assignment":[0,1],"goal":5,"start":7,"action_noise":0.15,"location_history":"[7,6,0,6,0,1,2,8,2,3,9,3,4,5]","action_history":"[1,1,0,0,0,0,1,1,1,1,1,0,0]","door_history":"[1,1,0,0,0,0,1,1,1,1,1,0,0]","location_rts":"[188,42,253,15,3,105,65,52,135,339,110,333,32]","trial_type":"two-door-navigation","trial_index":20,"time_elapsed":610933,"internal_node_id":"0.0-2.0-18.0"},{"group":"dihedral group of order 12","room_assignment":["blue","green","brown","yellow","cyan","orange","purple","ivory","pink","red","olive","grey"],"door_color_assignment":["white","black"],"door_generator_assignment":[0,1],"goal":6,"start":5,"action_noise":0.15,"location_history":"[5,11,5,0,1,7,1,7,1,7,1,2,3,9,8,7,6]","action_history":"[1,0,0,0,0,0,1,1,1,1,0,0,0,0,0,0]","door_history":"[1,0,0,0,0,0,1,1,1,1,0,0,0,0,0,0]","location_rts":"[481,4,160,417,107,123,325,83,97,163,58,354,4,136,52,78]","trial_type":"two-door-navigation","trial_index":21,"time_elapsed":633386,"internal_node_id":"0.0-2.0-19.0"},{"group":"dihedral group of order 12","room_assignment":["blue","green","brown","yellow","cyan","orange","purple","ivory","pink","red","olive","grey"],"door_color_assignment":["white","black"],"door_generator_assignment":[0,1],"goal":3,"start":6,"action_noise":0.15,"location_history":"[6,0,6,0,6,11,10,9,3]","action_history":"[1,1,1,1,0,0,0,0]","door_history":"[1,1,1,1,0,0,0,0]","location_rts":"[212,183,192,428,3,338,142,668]","trial_type":"two-door-navigation","trial_index":22,"time_elapsed":647213,"internal_node_id":"0.0-2.0-20.0"},{"group":"dihedral group of order 12","room_assignment":["blue","green","brown","yellow","cyan","orange","purple","ivory","pink","red","olive","grey"],"door_color_assignment":["white","black"],"door_generator_assignment":[0,1],"goal":1,"start":3,"action_noise":0.15,"location_history":"[3,9,3,9,3,9,8,7,6,11,10,4,10,4,10,4,5,0,1]","action_history":"[1,1,1,1,1,0,0,0,0,0,0,1,1,1,1,0,0,0]","door_history":"[1,1,1,1,1,0,0,0,0,0,0,1,1,1,1,0,0,0]","location_rts":"[4146,18,24,117,1265,211,115,221,151,35,152,162,30,185,222,90,44,239]","trial_type":"two-door-navigation","trial_index":23,"time_elapsed":676490,"internal_node_id":"0.0-2.0-21.0"},{"group":"dihedral group of order 12","room_assignment":["blue","green","brown","yellow","cyan","orange","purple","ivory","pink","red","olive","grey"],"door_color_assignment":["white","black"],"door_generator_assignment":[0,1],"goal":9,"start":1,"action_noise":0.15,"location_history":"[1,7,1,2,3,4,5,0,1,2,3,9]","action_history":"[1,1,0,0,0,0,0,0,0,0,1]","door_history":"[1,1,0,0,0,0,0,0,0,0,1]","location_rts":"[354,554,26,92,68,198,81,1,17,361,6]","trial_type":"two-door-navigation","trial_index":24,"time_elapsed":692965,"internal_node_id":"0.0-2.0-22.0"},{"group":"dihedral group of order 12","room_assignment":["blue","green","brown","yellow","cyan","orange","purple","ivory","pink","red","olive","grey"],"door_color_assignment":["white","black"],"door_generator_assignment":[0,1],"goal":3,"start":9,"action_noise":0.15,"location_history":"[9,8,2,8,7,6,11,10,9,3]","action_history":"[1,1,1,0,0,0,0,1,1]","door_history":"[1,1,1,0,0,0,0,1,1]","location_rts":"[5156,217,40,173,68,197,102,232,1679]","trial_type":"two-door-navigation","trial_index":25,"time_elapsed":713501,"internal_node_id":"0.0-2.0-23.0"},{"group":"dihedral group of order 12","room_assignment":["blue","green","brown","yellow","cyan","orange","purple","ivory","pink","red","olive","grey"],"door_color_assignment":["white","black"],"door_generator_assignment":[0,1],"goal":4,"start":3,"action_noise":0.15,"location_history":"[3,9,3,9,8,7,6,11,5,11,5,11,10,4]","action_history":"[1,1,1,0,0,0,0,0,1,1,1,0,1]","door_history":"[1,1,1,0,0,0,0,0,1,1,1,0,1]","location_rts":"[12676,111,213,208,197,126,50,101,209,156,2590,1155,379]","trial_type":"two-door-navigation","trial_index":26,"time_elapsed":748419,"internal_node_id":"0.0-2.0-24.0"},{"group":"dihedral group of order 12","room_assignment":["blue","green","brown","yellow","cyan","orange","purple","ivory","pink","red","olive","grey"],"door_color_assignment":["white","black"],"door_generator_assignment":[0,1],"goal":2,"start":4,"action_noise":0.15,"location_history":"[4,10,9,3,4,5,11,10,4,10,9,3,4,5,11,10,9,3,4,10,4,5,11,10,9,8,2]","action_history":"[1,0,0,0,0,1,1,1,0,0,0,1,0,0,0,0,0,0,1,1,0,1,0,0,0,1]","door_history":"[1,0,0,0,0,1,1,1,0,0,0,1,0,0,0,0,0,0,1,1,0,1,0,0,0,1]","location_rts":"[795,472,191,2711,228,183,30,204,357,276,128,160,105,813,66,6684,364,2413,335,176841,269,4886,208,548,211,2174]","trial_type":"two-door-navigation","trial_index":27,"time_elapsed":980058,"internal_node_id":"0.0-2.0-25.0"},{"group":"dihedral group of order 12","room_assignment":["blue","green","brown","yellow","cyan","orange","purple","ivory","pink","red","olive","grey"],"door_color_assignment":["white","black"],"door_generator_assignment":[0,1],"goal":1,"start":2,"action_noise":0.15,"location_history":"[2,8,2,3,4,10,9,3,9,3,4,10,9,8,7,1]","action_history":"[1,0,0,0,1,0,0,1,1,0,1,0,0,0,1]","door_history":"[1,0,0,0,1,0,0,1,1,0,1,0,0,0,1]","location_rts":"[2995,183,84,376,24,12922,127,72,35,105,3370,366,10,97,115]","trial_type":"two-door-navigation","trial_index":28,"time_elapsed":1019729,"internal_node_id":"0.0-2.0-26.0"},{"group":"dihedral group of order 12","room_assignment":["blue","green","brown","yellow","cyan","orange","purple","ivory","pink","red","olive","grey"],"door_color_assignment":["white","black"],"door_generator_assignment":[0,1],"goal":8,"start":1,"action_noise":0.15,"location_history":"[1,2,3,4,5,11,5,11,10,9,8]","action_history":"[0,0,0,0,1,1,1,0,0,1]","door_history":"[0,0,0,0,1,1,1,0,0,1]","location_rts":"[553,104,135,105,233,92,203,53,58,329]","trial_type":"two-door-navigation","trial_index":29,"time_elapsed":1035287,"internal_node_id":"0.0-2.0-27.0"},{"group":"dihedral group of order 12","room_assignment":["blue","green","brown","yellow","cyan","orange","purple","ivory","pink","red","olive","grey"],"door_color_assignment":["white","black"],"door_generator_assignment":[0,1],"goal":10,"start":8,"action_noise":0.15,"location_history":"[8,2,3,9,3,4,5,11,5,0,1,7,6,0,6,0,6,0,1,7,6,11,10]","action_history":"[1,0,1,0,0,0,1,1,0,0,1,0,0,1,1,1,1,1,1,0,0,0]","door_history":"[1,0,1,0,0,0,1,1,0,0,1,0,0,1,1,1,1,1,1,0,0,0]","location_rts":"[673,245,3,189,354,338,196,77,12,57,224,324,7,78,7,169,79,69,2,97,309,638]","trial_type":"two-door-navigation","trial_index":30,"time_elapsed":1065354,"internal_node_id":"0.0-2.0-28.0"},{"group":"dihedral group of order 12","room_assignment":["blue","green","brown","yellow","cyan","orange","purple","ivory","pink","red","olive","grey"],"door_color_assignment":["white","black"],"door_generator_assignment":[0,1],"goal":7,"start":10,"action_noise":0.15,"location_history":"[10,9,3,9,3,4,5,11,5,11,5,0,1,2,3,4,5,0,1,7]","action_history":"[0,1,1,0,0,0,1,1,1,0,0,0,0,0,0,0,0,0,0]","door_history":"[0,1,1,0,0,0,1,1,1,0,0,0,0,0,0,0,0,0,0]","location_rts":"[576,484,1970,44,52,8,221,392,44,160,29,83,48,81,455,251,164,84,87]","trial_type":"two-door-navigation","trial_index":31,"time_elapsed":1093453,"internal_node_id":"0.0-2.0-29.0"},{"group":"dihedral group of order 12","room_assignment":["blue","green","brown","yellow","cyan","orange","purple","ivory","pink","red","olive","grey"],"door_color_assignment":["white","black"],"door_generator_assignment":[0,1],"goal":6,"start":7,"action_noise":0.15,"location_history":"[7,1,7,6]","action_history":"[1,1,0]","door_history":"[1,1,0]","location_rts":"[1163,1171,346]","trial_type":"two-door-navigation","trial_index":32,"time_elapsed":1102690,"internal_node_id":"0.0-2.0-30.0"},{"group":"dihedral group of order 12","room_assignment":["blue","green","brown","yellow","cyan","orange","purple","ivory","pink","red","olive","grey"],"door_color_assignment":["white","black"],"door_generator_assignment":[0,1],"goal":0,"start":6,"action_noise":0.15,"location_history":"[6,0]","action_history":"[1]","door_history":"[1]","location_rts":"[627]","trial_type":"two-door-navigation","trial_index":33,"time_elapsed":1107839,"internal_node_id":"0.0-2.0-31.0"},{"group":"dihedral group of order 12","room_assignment":["blue","green","brown","yellow","cyan","orange","purple","ivory","pink","red","olive","grey"],"door_color_assignment":["white","black"],"door_generator_assignment":[0,1],"goal":11,"start":0,"action_noise":0.15,"location_history":"[0,1,2,8,7,1,2,8,2,3,9,8,7,1,7,6,11]","action_history":"[1,0,1,0,1,0,0,1,0,1,0,0,1,1,0,1]","door_history":"[1,0,1,0,1,0,0,1,0,1,0,0,1,1,0,1]","location_rts":"[4045,246,119,70,73,112,36,133364,553,328,146,138,225,135,198,448]","trial_type":"two-door-navigation","trial_index":34,"time_elapsed":1267903,"internal_node_id":"0.0-2.0-32.0"},{"group":"dihedral group of order 12","room_assignment":["blue","green","brown","yellow","cyan","orange","purple","ivory","pink","red","olive","grey"],"door_color_assignment":["white","black"],"door_generator_assignment":[0,1],"goal":9,"start":11,"action_noise":0.15,"location_history":"[11,5,0,1,7,6,11,10,9]","action_history":"[1,0,0,1,0,0,0,0]","door_history":"[1,0,0,1,0,0,0,0]","location_rts":"[447,452,100,146,23,428,224,493]","trial_type":"two-door-navigation","trial_index":35,"time_elapsed":1281889,"internal_node_id":"0.0-2.0-33.0"},{"group":"dihedral group of order 12","room_assignment":["blue","green","brown","yellow","cyan","orange","purple","ivory","pink","red","olive","grey"],"door_color_assignment":["white","black"],"door_generator_assignment":[0,1],"goal":5,"start":9,"action_noise":0.15,"location_history":"[9,8,7,6,0,6,0,6,0,1,2,3,9,3,9,3,9,8,7,1,2,3,4,5]","action_history":"[0,0,0,0,1,1,0,1,0,0,0,1,1,1,1,1,0,0,1,0,0,0,0]","door_history":"[0,0,0,0,1,1,0,1,0,0,0,1,1,1,1,1,0,0,1,0,0,0,0]","location_rts":"[703,197,107,121,59,131,333,49,203,503,320,80,44,30,97,93,43,9,314,113,169,33,14]","trial_type":"two-door-navigation","trial_index":36,"time_elapsed":1312710,"internal_node_id":"0.0-2.0-34.0"},{"view_history":"[{\"page_index\":0,\"viewing_time\":2857}]","rt":2857,"trial_type":"instructions","trial_index":37,"time_elapsed":1316568,"internal_node_id":"0.0-3.0"},{"view_history":"[{\"page_index\":0,\"viewing_time\":2378},{\"page_index\":1,\"viewing_time\":5767},{\"page_index\":0,\"viewing_time\":4005},{\"page_index\":1,\"viewing_time\":3028}]","rt":15179,"trial_type":"instructions","trial_index":38,"time_elapsed":1332748,"internal_node_id":"0.0-4.0"},{"group":"dihedral group of order 12","fractal_assignment":["../images/red_prp.png","../images/gry_blk.png","../images/ylw_slt.png","../images/grn_red.png","../images/grn_prp.png","../images/ylw_pnk.png","../images/org_blu.png","../images/wht_red.png","../images/pnk_blu.png","../images/cyn_red.png","../images/grn_blu.png","../images/blu_wht.png"],"mutagen_generator_assignment":[1,0],"goal":7,"start":11,"action_noise":0.15,"location_history":"[11,5,0,1,2,3,9,8,2,8,2,3,4,5,0,1,2,8,7]","action_history":"[1,1,1,0,0,0,0,0,1,1,0,1,0,1,0,1,1,0]","mutagen_history":"[0,0,0,1,1,1,1,1,0,0,1,0,1,0,1,0,0,1]","location_rts":"[1312,553,0,1023,327,239,215,295,463,96,123,110,441,151,104,1,227,229]","trial_type":"fractal-mutation","trial_index":39,"time_elapsed":1363147,"internal_node_id":"0.0-5.0-0.0"},{"group":"dihedral group of order 12","fractal_assignment":["../images/red_prp.png","../images/gry_blk.png","../images/ylw_slt.png","../images/grn_red.png","../images/grn_prp.png","../images/ylw_pnk.png","../images/org_blu.png","../images/wht_red.png","../images/pnk_blu.png","../images/cyn_red.png","../images/grn_blu.png","../images/blu_wht.png"],"mutagen_generator_assignment":[1,0],"goal":8,"start":7,"action_noise":0.15,"location_history":"[7,6,0,6,11,10,9,3,9,3,9,3,4,5,11,5,11,5,11,5,0,1,7,6,0,6,0,6,0,6,11,10,9,8]","action_history":"[0,0,0,0,0,0,1,1,1,1,1,0,0,0,1,1,1,1,1,0,0,0,0,1,1,1,1,1,1,0,0,0,0]","mutagen_history":"[1,1,1,1,1,1,0,0,0,0,0,1,1,1,0,0,0,0,0,1,1,1,1,0,0,0,0,0,0,1,1,1,1]","location_rts":"[422,29,110,18,45,39,56,101,656,341,167,379,149,44,60,60,605,103,85,45,328,5,483,4,40,517,34,6,99,206,121,23,47]","trial_type":"fractal-mutation","trial_index":40,"time_elapsed":1408564,"internal_node_id":"0.0-5.0-1.0"},{"group":"dihedral group of order 12","fractal_assignment":["../images/red_prp.png","../images/gry_blk.png","../images/ylw_slt.png","../images/grn_red.png","../images/grn_prp.png","../images/ylw_pnk.png","../images/org_blu.png","../images/wht_red.png","../images/pnk_blu.png","../images/cyn_red.png","../images/grn_blu.png","../images/blu_wht.png"],"mutagen_generator_assignment":[1,0],"goal":4,"start":8,"action_noise":0.15,"location_history":"[8,7,6,11,5,11,5,11,10,9,3,4]","action_history":"[0,0,0,0,1,1,1,0,0,1,1]","mutagen_history":"[1,1,1,1,0,0,0,1,1,0,0]","location_rts":"[498,90,9,34,66,65,36,48,137,17,207]","trial_type":"fractal-mutation","trial_index":41,"time_elapsed":1426290,"internal_node_id":"0.0-5.0-2.0"},{"group":"dihedral group of order 12","fractal_assignment":["../images/red_prp.png","../images/gry_blk.png","../images/ylw_slt.png","../images/grn_red.png","../images/grn_prp.png","../images/ylw_pnk.png","../images/org_blu.png","../images/wht_red.png","../images/pnk_blu.png","../images/cyn_red.png","../images/grn_blu.png","../images/blu_wht.png"],"mutagen_generator_assignment":[1,0],"goal":5,"start":4,"action_noise":0.15,"location_history":"[4,5]","action_history":"[0]","mutagen_history":"[1]","location_rts":"[196]","trial_type":"fractal-mutation","trial_index":42,"time_elapsed":1431214,"internal_node_id":"0.0-5.0-3.0"},{"group":"dihedral group of order 12","fractal_assignment":["../images/red_prp.png","../images/gry_blk.png","../images/ylw_slt.png","../images/grn_red.png","../images/grn_prp.png","../images/ylw_pnk.png","../images/org_blu.png","../images/wht_red.png","../images/pnk_blu.png","../images/cyn_red.png","../images/grn_blu.png","../images/blu_wht.png"],"mutagen_generator_assignment":[1,0],"goal":10,"start":5,"action_noise":0.15,"location_history":"[5,11,5,0,1,2,3,9,3,9,3,4,10]","action_history":"[0,0,0,0,0,0,0,1,1,1,1,1]","mutagen_history":"[1,1,1,1,1,1,1,0,0,0,0,0]","location_rts":"[241,81,35,125,68,60,188,96,192,151,37,93]","trial_type":"fractal-mutation","trial_index":43,"time_elapsed":1449968,"internal_node_id":"0.0-5.0-4.0"},{"group":"dihedral group of order 12","fractal_assignment":["../images/red_prp.png","../images/gry_blk.png","../images/ylw_slt.png","../images/grn_red.png","../images/grn_prp.png","../images/ylw_pnk.png","../images/org_blu.png","../images/wht_red.png","../images/pnk_blu.png","../images/cyn_red.png","../images/grn_blu.png","../images/blu_wht.png"],"mutagen_generator_assignment":[1,0],"goal":1,"start":10,"action_noise":0.15,"location_history":"[10,9,8,7,6,11,10,9,3,9,3,4,5,0,1]","action_history":"[0,0,0,0,0,0,0,1,1,1,1,1,0,0]","mutagen_history":"[1,1,1,1,1,1,1,0,0,0,0,0,1,1]","location_rts":"[217,93,51,209,181,182,15,10005,4,4,1,7,17,12]","trial_type":"fractal-mutation","trial_index":44,"time_elapsed":1480966,"internal_node_id":"0.0-5.0-5.0"},{"group":"dihedral group of order 12","fractal_assignment":["../images/red_prp.png","../images/gry_blk.png","../images/ylw_slt.png","../images/grn_red.png","../images/grn_prp.png","../images/ylw_pnk.png","../images/org_blu.png","../images/wht_red.png","../images/pnk_blu.png","../images/cyn_red.png","../images/grn_blu.png","../images/blu_wht.png"],"mutagen_generator_assignment":[1,0],"goal":6,"start":1,"action_noise":0.15,"location_history":"[1,2,8,2,3,4,5,0,1,7,1,7,1,7,6]","action_history":"[1,1,1,1,0,0,0,0,1,1,1,1,1,0]","mutagen_history":"[0,0,0,0,1,1,1,1,0,0,0,0,0,1]","location_rts":"[117,17,101,19,1,86,1234,189,19,62,61,710,416,54]","trial_type":"fractal-mutation","trial_index":45,"time_elapsed":1502731,"internal_node_id":"0.0-5.0-6.0"},{"group":"dihedral group of order 12","fractal_assignment":["../images/red_prp.png","../images/gry_blk.png","../images/ylw_slt.png","../images/grn_red.png","../images/grn_prp.png","../images/ylw_pnk.png","../images/org_blu.png","../images/wht_red.png","../images/pnk_blu.png","../images/cyn_red.png","../images/grn_blu.png","../images/blu_wht.png"],"mutagen_generator_assignment":[1,0],"goal":9,"start":6,"action_noise":0.15,"location_history":"[6,0,6,0,1,7,1,2,3,9]","action_history":"[1,1,1,1,1,1,0,0,0]","mutagen_history":"[0,0,0,0,0,0,1,1,1]","location_rts":"[214,306,401,76,11,198,482,173,96]","trial_type":"fractal-mutation","trial_index":46,"time_elapsed":1517927,"internal_node_id":"0.0-5.0-7.0"},{"group":"dihedral group of order 12","fractal_assignment":["../images/red_prp.png","../images/gry_blk.png","../images/ylw_slt.png","../images/grn_red.png","../images/grn_prp.png","../images/ylw_pnk.png","../images/org_blu.png","../images/wht_red.png","../images/pnk_blu.png","../images/cyn_red.png","../images/grn_blu.png","../images/blu_wht.png"],"mutagen_generator_assignment":[1,0],"goal":2,"start":9,"action_noise":0.15,"location_history":"[9,8,2]","action_history":"[1,1]","mutagen_history":"[0,0]","location_rts":"[424,132]","trial_type":"fractal-mutation","trial_index":47,"time_elapsed":1524062,"internal_node_id":"0.0-5.0-8.0"},{"group":"dihedral group of order 12","fractal_assignment":["../images/red_prp.png","../images/gry_blk.png","../images/ylw_slt.png","../images/grn_red.png","../images/grn_prp.png","../images/ylw_pnk.png","../images/org_blu.png","../images/wht_red.png","../images/pnk_blu.png","../images/cyn_red.png","../images/grn_blu.png","../images/blu_wht.png"],"mutagen_generator_assignment":[1,0],"goal":0,"start":2,"action_noise":0.15,"location_history":"[2,8,2,8,7,6,0]","action_history":"[1,1,1,0,0,0]","mutagen_history":"[0,0,0,1,1,1]","location_rts":"[286,17,265,460,77,34]","trial_type":"fractal-mutation","trial_index":48,"time_elapsed":1535440,"internal_node_id":"0.0-5.0-9.0"},{"group":"dihedral group of order 12","fractal_assignment":["../images/red_prp.png","../images/gry_blk.png","../images/ylw_slt.png","../images/grn_red.png","../images/grn_prp.png","../images/ylw_pnk.png","../images/org_blu.png","../images/wht_red.png","../images/pnk_blu.png","../images/cyn_red.png","../images/grn_blu.png","../images/blu_wht.png"],"mutagen_generator_assignment":[1,0],"goal":3,"start":0,"action_noise":0.15,"location_history":"[0,1,7,1,2,3]","action_history":"[1,1,1,0,0]","mutagen_history":"[0,0,0,1,1]","location_rts":"[15,214,14,68,27]","trial_type":"fractal-mutation","trial_index":49,"time_elapsed":1545112,"internal_node_id":"0.0-5.0-10.0"},{"group":"dihedral group of order 12","fractal_assignment":["../images/red_prp.png","../images/gry_blk.png","../images/ylw_slt.png","../images/grn_red.png","../images/grn_prp.png","../images/ylw_pnk.png","../images/org_blu.png","../images/wht_red.png","../images/pnk_blu.png","../images/cyn_red.png","../images/grn_blu.png","../images/blu_wht.png"],"mutagen_generator_assignment":[1,0],"goal":10,"start":3,"action_noise":0.15,"location_history":"[3,9,3,9,3,4,5,0,1,2,8,2,3,4,5,11,5,11,10]","action_history":"[1,1,1,0,0,0,0,0,0,1,1,0,0,0,1,1,1,0]","mutagen_history":"[0,0,0,1,1,1,1,1,1,0,0,1,1,1,0,0,0,1]","location_rts":"[200,60,587,54,82,3,78,165,255,197,75,98,60,45,195,158,155,17]","trial_type":"fractal-mutation","trial_index":50,"time_elapsed":1571812,"internal_node_id":"0.0-5.0-11.0"},{"group":"dihedral group of order 12","fractal_assignment":["../images/red_prp.png","../images/gry_blk.png","../images/ylw_slt.png","../images/grn_red.png","../images/grn_prp.png","../images/ylw_pnk.png","../images/org_blu.png","../images/wht_red.png","../images/pnk_blu.png","../images/cyn_red.png","../images/grn_blu.png","../images/blu_wht.png"],"mutagen_generator_assignment":[1,0],"goal":8,"start":10,"action_noise":0.15,"location_history":"[10,9,8]","action_history":"[0,0]","mutagen_history":"[1,1]","location_rts":"[263,42]","trial_type":"fractal-mutation","trial_index":51,"time_elapsed":1577999,"internal_node_id":"0.0-5.0-12.0"},{"group":"dihedral group of order 12","fractal_assignment":["../images/red_prp.png","../images/gry_blk.png","../images/ylw_slt.png","../images/grn_red.png","../images/grn_prp.png","../images/ylw_pnk.png","../images/org_blu.png","../images/wht_red.png","../images/pnk_blu.png","../images/cyn_red.png","../images/grn_blu.png","../images/blu_wht.png"],"mutagen_generator_assignment":[1,0],"goal":4,"start":8,"action_noise":0.15,"location_history":"[8,7,6,11,5,11,10,9,8,2,3,4]","action_history":"[0,0,0,1,1,0,0,0,1,1,1]","mutagen_history":"[1,1,1,0,0,1,1,1,0,0,0]","location_rts":"[195,282,1,45,48,132,35,647,627,55,31]","trial_type":"fractal-mutation","trial_index":52,"time_elapsed":1596632,"internal_node_id":"0.0-5.0-13.0"},{"group":"dihedral group of order 12","fractal_assignment":["../images/red_prp.png","../images/gry_blk.png","../images/ylw_slt.png","../images/grn_red.png","../images/grn_prp.png","../images/ylw_pnk.png","../images/org_blu.png","../images/wht_red.png","../images/pnk_blu.png","../images/cyn_red.png","../images/grn_blu.png","../images/blu_wht.png"],"mutagen_generator_assignment":[1,0],"goal":0,"start":4,"action_noise":0.15,"location_history":"[4,5,0]","action_history":"[0,0]","mutagen_history":"[1,1]","location_rts":"[117,223]","trial_type":"fractal-mutation","trial_index":53,"time_elapsed":1602870,"internal_node_id":"0.0-5.0-14.0"},{"group":"dihedral group of order 12","fractal_assignment":["../images/red_prp.png","../images/gry_blk.png","../images/ylw_slt.png","../images/grn_red.png","../images/grn_prp.png","../images/ylw_pnk.png","../images/org_blu.png","../images/wht_red.png","../images/pnk_blu.png","../images/cyn_red.png","../images/grn_blu.png","../images/blu_wht.png"],"mutagen_generator_assignment":[1,0],"goal":11,"start":0,"action_noise":0.15,"location_history":"[0,1,7,1,7,6,0,1,2,8,2,8,2,8,7,6,11]","action_history":"[1,1,1,0,0,0,0,0,1,1,1,1,1,0,0,0]","mutagen_history":"[0,0,0,1,1,1,1,1,0,0,0,0,0,1,1,1]","location_rts":"[924,11,243,33,51,377,43,50,33,338,205,3,614,90,178,147]","trial_type":"fractal-mutation","trial_index":54,"time_elapsed":1627792,"internal_node_id":"0.0-5.0-15.0"},{"group":"dihedral group of order 12","fractal_assignment":["../images/red_prp.png","../images/gry_blk.png","../images/ylw_slt.png","../images/grn_red.png","../images/grn_prp.png","../images/ylw_pnk.png","../images/org_blu.png","../images/wht_red.png","../images/pnk_blu.png","../images/cyn_red.png","../images/grn_blu.png","../images/blu_wht.png"],"mutagen_generator_assignment":[1,0],"goal":2,"start":11,"action_noise":0.15,"location_history":"[11,5,11,5,0,1,2]","action_history":"[1,1,1,0,0,0]","mutagen_history":"[0,0,0,1,1,1]","location_rts":"[315,22,132,15,390,19]","trial_type":"fractal-mutation","trial_index":55,"time_elapsed":1638941,"internal_node_id":"0.0-5.0-16.0"},{"group":"dihedral group of order 12","fractal_assignment":["../images/red_prp.png","../images/gry_blk.png","../images/ylw_slt.png","../images/grn_red.png","../images/grn_prp.png","../images/ylw_pnk.png","../images/org_blu.png","../images/wht_red.png","../images/pnk_blu.png","../images/cyn_red.png","../images/grn_blu.png","../images/blu_wht.png"],"mutagen_generator_assignment":[1,0],"goal":7,"start":2,"action_noise":0.15,"location_history":"[2,8,2,8,7]","action_history":"[1,1,1,0]","mutagen_history":"[0,0,0,1]","location_rts":"[700,14,42,85]","trial_type":"fractal-mutation","trial_index":56,"time_elapsed":1647623,"internal_node_id":"0.0-5.0-17.0"},{"group":"dihedral group of order 12","fractal_assignment":["../images/red_prp.png","../images/gry_blk.png","../images/ylw_slt.png","../images/grn_red.png","../images/grn_prp.png","../images/ylw_pnk.png","../images/org_blu.png","../images/wht_red.png","../images/pnk_blu.png","../images/cyn_red.png","../images/grn_blu.png","../images/blu_wht.png"],"mutagen_generator_assignment":[1,0],"goal":5,"start":7,"action_noise":0.15,"location_history":"[7,1,7,1,2,3,9,8,7,6,0,6,0,6,11,5]","action_history":"[1,1,1,0,0,0,0,0,0,1,1,1,0,0,1]","mutagen_history":"[0,0,0,1,1,1,1,1,1,0,0,0,1,1,0]","location_rts":"[177,49,2194,4,53,352,176,227,386,78,203,351,210,212,116]","trial_type":"fractal-mutation","trial_index":57,"time_elapsed":1673076,"internal_node_id":"0.0-5.0-18.0"},{"group":"dihedral group of order 12","fractal_assignment":["../images/red_prp.png","../images/gry_blk.png","../images/ylw_slt.png","../images/grn_red.png","../images/grn_prp.png","../images/ylw_pnk.png","../images/org_blu.png","../images/wht_red.png","../images/pnk_blu.png","../images/cyn_red.png","../images/grn_blu.png","../images/blu_wht.png"],"mutagen_generator_assignment":[1,0],"goal":6,"start":5,"action_noise":0.15,"location_history":"[5,0,1,2,3,9,3,9,3,4,5,0,1,2,8,7,1,7,1,7,6]","action_history":"[0,0,0,0,1,1,1,1,0,0,0,0,1,1,1,1,1,1,1,0]","mutagen_history":"[1,1,1,1,0,0,0,0,1,1,1,1,0,0,0,0,0,0,0,1]","location_rts":"[382,71,242,164,425,812,74,43,116,48,89,129,490,129,535,289,388,405,1018,217]","trial_type":"fractal-mutation","trial_index":58,"time_elapsed":1705858,"internal_node_id":"0.0-5.0-19.0"},{"group":"dihedral group of order 12","fractal_assignment":["../images/red_prp.png","../images/gry_blk.png","../images/ylw_slt.png","../images/grn_red.png","../images/grn_prp.png","../images/ylw_pnk.png","../images/org_blu.png","../images/wht_red.png","../images/pnk_blu.png","../images/cyn_red.png","../images/grn_blu.png","../images/blu_wht.png"],"mutagen_generator_assignment":[1,0],"goal":3,"start":6,"action_noise":0.15,"location_history":"[6,0,6,11,10,9,8,2,8,2,3]","action_history":"[1,1,1,0,0,0,1,1,1,0]","mutagen_history":"[0,0,0,1,1,1,0,0,0,1]","location_rts":"[611,56,309,44,165,318,17,53,426,149]","trial_type":"fractal-mutation","trial_index":59,"time_elapsed":1722623,"internal_node_id":"0.0-5.0-20.0"},{"group":"dihedral group of order 12","fractal_assignment":["../images/red_prp.png","../images/gry_blk.png","../images/ylw_slt.png","../images/grn_red.png","../images/grn_prp.png","../images/ylw_pnk.png","../images/org_blu.png","../images/wht_red.png","../images/pnk_blu.png","../images/cyn_red.png","../images/grn_blu.png","../images/blu_wht.png"],"mutagen_generator_assignment":[1,0],"goal":1,"start":3,"action_noise":0.15,"location_history":"[3,9,3,9,8,7,6,0,1]","action_history":"[1,1,1,0,0,0,1,0]","mutagen_history":"[0,0,0,1,1,1,0,1]","location_rts":"[420,176,38,21,44,204,210,58]","trial_type":"fractal-mutation","trial_index":60,"time_elapsed":1735905,"internal_node_id":"0.0-5.0-21.0"},{"group":"dihedral group of order 12","fractal_assignment":["../images/red_prp.png","../images/gry_blk.png","../images/ylw_slt.png","../images/grn_red.png","../images/grn_prp.png","../images/ylw_pnk.png","../images/org_blu.png","../images/wht_red.png","../images/pnk_blu.png","../images/cyn_red.png","../images/grn_blu.png","../images/blu_wht.png"],"mutagen_generator_assignment":[1,0],"goal":9,"start":1,"action_noise":0.15,"location_history":"[1,7,1,7,6,11,10,4,10,4,10,9]","action_history":"[1,1,1,0,0,0,1,1,1,1,0]","mutagen_history":"[0,0,0,1,1,1,0,0,0,0,1]","location_rts":"[555,65,54,74,95,53,231,88,75,84,28]","trial_type":"fractal-mutation","trial_index":61,"time_elapsed":1752823,"internal_node_id":"0.0-5.0-22.0"},{"group":"dihedral group of order 12","fractal_assignment":["../images/red_prp.png","../images/gry_blk.png","../images/ylw_slt.png","../images/grn_red.png","../images/grn_prp.png","../images/ylw_pnk.png","../images/org_blu.png","../images/wht_red.png","../images/pnk_blu.png","../images/cyn_red.png","../images/grn_blu.png","../images/blu_wht.png"],"mutagen_generator_assignment":[1,0],"goal":3,"start":9,"action_noise":0.15,"location_history":"[9,3]","action_history":"[1]","mutagen_history":"[0]","location_rts":"[156]","trial_type":"fractal-mutation","trial_index":62,"time_elapsed":1757511,"internal_node_id":"0.0-5.0-23.0"},{"group":"dihedral group of order 12","fractal_assignment":["../images/red_prp.png","../images/gry_blk.png","../images/ylw_slt.png","../images/grn_red.png","../images/grn_prp.png","../images/ylw_pnk.png","../images/org_blu.png","../images/wht_red.png","../images/pnk_blu.png","../images/cyn_red.png","../images/grn_blu.png","../images/blu_wht.png"],"mutagen_generator_assignment":[1,0],"goal":4,"start":3,"action_noise":0.15,"location_history":"[3,9,3,4]","action_history":"[1,1,0]","mutagen_history":"[0,0,1]","location_rts":"[371,125,138]","trial_type":"fractal-mutation","trial_index":63,"time_elapsed":1764982,"internal_node_id":"0.0-5.0-24.0"},{"group":"dihedral group of order 12","fractal_assignment":["../images/red_prp.png","../images/gry_blk.png","../images/ylw_slt.png","../images/grn_red.png","../images/grn_prp.png","../images/ylw_pnk.png","../images/org_blu.png","../images/wht_red.png","../images/pnk_blu.png","../images/cyn_red.png","../images/grn_blu.png","../images/blu_wht.png"],"mutagen_generator_assignment":[1,0],"goal":2,"start":4,"action_noise":0.15,"location_history":"[4,10,4,5,11,10,4,5,0,1,7,1,7,6,11,10,9,3,9,8,2]","action_history":"[1,1,0,1,0,0,0,0,0,1,1,1,1,0,0,0,1,1,1,1]","mutagen_history":"[0,0,1,0,1,1,1,1,1,0,0,0,0,1,1,1,0,0,0,0]","location_rts":"[293,211,298,290,63,186,51,871,227,189,1061,43,267,120,125,2,71,90,35,32]","trial_type":"fractal-mutation","trial_index":64,"time_elapsed":1795888,"internal_node_id":"0.0-5.0-25.0"},{"group":"dihedral group of order 12","fractal_assignment":["../images/red_prp.png","../images/gry_blk.png","../images/ylw_slt.png","../images/grn_red.png","../images/grn_prp.png","../images/ylw_pnk.png","../images/org_blu.png","../images/wht_red.png","../images/pnk_blu.png","../images/cyn_red.png","../images/grn_blu.png","../images/blu_wht.png"],"mutagen_generator_assignment":[1,0],"goal":1,"start":2,"action_noise":0.15,"location_history":"[2,8,2,8,7,6,11,5,0,1]","action_history":"[1,1,1,0,0,0,0,0,0]","mutagen_history":"[0,0,0,1,1,1,1,1,1]","location_rts":"[288,91,61,264,183,267,47,213,207]","trial_type":"fractal-mutation","trial_index":65,"time_elapsed":1811682,"internal_node_id":"0.0-5.0-26.0"},{"group":"dihedral group of order 12","fractal_assignment":["../images/red_prp.png","../images/gry_blk.png","../images/ylw_slt.png","../images/grn_red.png","../images/grn_prp.png","../images/ylw_pnk.png","../images/org_blu.png","../images/wht_red.png","../images/pnk_blu.png","../images/cyn_red.png","../images/grn_blu.png","../images/blu_wht.png"],"mutagen_generator_assignment":[1,0],"goal":8,"start":1,"action_noise":0.15,"location_history":"[1,7,1,7,1,2,3,4,10,4,5,0,6,0,1,2,8]","action_history":"[1,1,1,0,0,0,0,1,1,0,0,1,1,0,0,1]","mutagen_history":"[0,0,0,1,1,1,1,0,0,1,1,0,0,1,1,0]","location_rts":"[368,76,52,60,10,46,40,26,165,84,217,32,64,423,154,475]","trial_type":"fractal-mutation","trial_index":66,"time_elapsed":1835802,"internal_node_id":"0.0-5.0-27.0"},{"group":"dihedral group of order 12","fractal_assignment":["../images/red_prp.png","../images/gry_blk.png","../images/ylw_slt.png","../images/grn_red.png","../images/grn_prp.png","../images/ylw_pnk.png","../images/org_blu.png","../images/wht_red.png","../images/pnk_blu.png","../images/cyn_red.png","../images/grn_blu.png","../images/blu_wht.png"],"mutagen_generator_assignment":[1,0],"goal":10,"start":8,"action_noise":0.15,"location_history":"[8,7,1,7,1,7,1,2,3,4,5,0,6,11,10]","action_history":"[0,1,1,1,0,1,0,0,0,0,0,1,1,0]","mutagen_history":"[1,0,0,0,1,0,1,1,1,1,1,0,0,1]","location_rts":"[313,170,2374,1306,180,931,268,154,4,185,159,497,237,774]","trial_type":"fractal-mutation","trial_index":67,"time_elapsed":1863091,"internal_node_id":"0.0-5.0-28.0"},{"group":"dihedral group of order 12","fractal_assignment":["../images/red_prp.png","../images/gry_blk.png","../images/ylw_slt.png","../images/grn_red.png","../images/grn_prp.png","../images/ylw_pnk.png","../images/org_blu.png","../images/wht_red.png","../images/pnk_blu.png","../images/cyn_red.png","../images/grn_blu.png","../images/blu_wht.png"],"mutagen_generator_assignment":[1,0],"goal":7,"start":10,"action_noise":0.15,"location_history":"[10,4,5,11,5,0,1,2,8,7]","action_history":"[1,1,1,1,0,0,0,0,1]","mutagen_history":"[0,0,0,0,1,1,1,1,0]","location_rts":"[166,76,445,635,81,153,211,275,156]","trial_type":"fractal-mutation","trial_index":68,"time_elapsed":1878772,"internal_node_id":"0.0-5.0-29.0"},{"group":"dihedral group of order 12","fractal_assignment":["../images/red_prp.png","../images/gry_blk.png","../images/ylw_slt.png","../images/grn_red.png","../images/grn_prp.png","../images/ylw_pnk.png","../images/org_blu.png","../images/wht_red.png","../images/pnk_blu.png","../images/cyn_red.png","../images/grn_blu.png","../images/blu_wht.png"],"mutagen_generator_assignment":[1,0],"goal":6,"start":7,"action_noise":0.15,"location_history":"[7,6]","action_history":"[0]","mutagen_history":"[1]","location_rts":"[481]","trial_type":"fractal-mutation","trial_index":69,"time_elapsed":1883951,"internal_node_id":"0.0-5.0-30.0"},{"group":"dihedral group of order 12","fractal_assignment":["../images/red_prp.png","../images/gry_blk.png","../images/ylw_slt.png","../images/grn_red.png","../images/grn_prp.png","../images/ylw_pnk.png","../images/org_blu.png","../images/wht_red.png","../images/pnk_blu.png","../images/cyn_red.png","../images/grn_blu.png","../images/blu_wht.png"],"mutagen_generator_assignment":[1,0],"goal":0,"start":6,"action_noise":0.15,"location_history":"[6,11,5,11,5,11,10,9,8,7,1,2,3,4,5,11,10,4,10,9,8,7,6,11,10,9,8,7,1,2,8,2,8,7,1,7,1,7,1,7,1,2,8,2,8,7,1,2,3,4,5,0]","action_history":"[0,1,1,1,1,1,0,0,0,0,0,0,0,0,1,0,0,1,0,0,0,0,0,0,0,0,0,1,1,1,1,1,1,1,1,1,1,1,1,1,0,1,0,1,0,1,0,0,0,0,0]","mutagen_history":"[1,0,0,0,0,0,1,1,1,1,1,1,1,1,0,1,1,0,1,1,1,1,1,1,1,1,1,0,0,0,0,0,0,0,0,0,0,0,0,0,1,0,1,0,1,0,1,1,1,1,1]","location_rts":"[353,201,249,182,113,128,207,329,54,146,119,475,108,243,202,406,789,675,220,43,109,559,28,196,91,112,124,4,69,54,139,131,76,380,109,1,140,4,178,88,800,317,52,183,27,101,113,110,179,90,133]","trial_type":"fractal-mutation","trial_index":70,"time_elapsed":1956101,"internal_node_id":"0.0-5.0-31.0"},{"group":"dihedral group of order 12","fractal_assignment":["../images/red_prp.png","../images/gry_blk.png","../images/ylw_slt.png","../images/grn_red.png","../images/grn_prp.png","../images/ylw_pnk.png","../images/org_blu.png","../images/wht_red.png","../images/pnk_blu.png","../images/cyn_red.png","../images/grn_blu.png","../images/blu_wht.png"],"mutagen_generator_assignment":[1,0],"goal":11,"start":0,"action_noise":0.15,"location_history":"[0,1,2,8,7,6,11]","action_history":"[0,0,0,0,0,0]","mutagen_history":"[1,1,1,1,1,1]","location_rts":"[277,210,233,116,130,147]","trial_type":"fractal-mutation","trial_index":71,"time_elapsed":1968012,"internal_node_id":"0.0-5.0-32.0"},{"group":"dihedral group of order 12","fractal_assignment":["../images/red_prp.png","../images/gry_blk.png","../images/ylw_slt.png","../images/grn_red.png","../images/grn_prp.png","../images/ylw_pnk.png","../images/org_blu.png","../images/wht_red.png","../images/pnk_blu.png","../images/cyn_red.png","../images/grn_blu.png","../images/blu_wht.png"],"mutagen_generator_assignment":[1,0],"goal":9,"start":11,"action_noise":0.15,"location_history":"[11,10,4,5,0,1,2,3,4,5,0,1,2,8,7,6,11,10,9]","action_history":"[0,0,0,0,0,0,0,0,0,0,0,0,0,0,0,0,0,0]","mutagen_history":"[1,1,1,1,1,1,1,1,1,1,1,1,1,1,1,1,1,1]","location_rts":"[322,132,70,47,15,68,119,140,70,378,171,187,176,0,78,44,159,35]","trial_type":"fractal-mutation","trial_index":72,"time_elapsed":1995621,"internal_node_id":"0.0-5.0-33.0"},{"group":"dihedral group of order 12","fractal_assignment":["../images/red_prp.png","../images/gry_blk.png","../images/ylw_slt.png","../images/grn_red.png","../images/grn_prp.png","../images/ylw_pnk.png","../images/org_blu.png","../images/wht_red.png","../images/pnk_blu.png","../images/cyn_red.png","../images/grn_blu.png","../images/blu_wht.png"],"mutagen_generator_assignment":[1,0],"goal":5,"start":9,"action_noise":0.15,"location_history":"[9,3,4,5]","action_history":"[0,0,0]","mutagen_history":"[1,1,1]","location_rts":"[24,156,444]","trial_type":"fractal-mutation","trial_index":73,"time_elapsed":2003396,"internal_node_id":"0.0-5.0-34.0"},{"view_history":"[{\"page_index\":0,\"viewing_time\":4252}]","rt":4252,"trial_type":"instructions","trial_index":74,"time_elapsed":2008649,"internal_node_id":"0.0-6.0"},{"rt":1617,"responses":"{\"Q0\":\"\"}","trial_type":"survey-text","trial_index":75,"time_elapsed":2011271,"internal_node_id":"0.0-7.0"}]