[{"view_history":"[{\"page_index\":0,\"viewing_time\":46566},{\"page_index\":1,\"viewing_time\":7082}]","rt":53648,"trial_type":"instructions","trial_index":0,"time_elapsed":53649,"internal_node_id":"0.0-0.0"},{"view_history":"[{\"page_index\":0,\"viewing_time\":102504},{\"page_index\":1,\"viewing_time\":19362}]","rt":121867,"trial_type":"instructions","trial_index":1,"time_elapsed":176521,"internal_node_id":"0.0-1.0"},{"group":"dihedral group of order 12","room_assignment":["cyan","blue","ivory","red","yellow","green","brown","grey","pink","olive","orange","purple"],"door_color_assignment":["white","black"],"door_generator_assignment":[0,1],"goal":7,"start":11,"action_noise":0.15,"location_history":"[11,10,9,3,4,5,11,5,11,5,0,1,7]","action_history":"[0,0,0,0,0,1,1,1,1,0,1,1]","door_history":"[0,0,0,0,0,1,1,1,1,0,1,1]","location_rts":"[2455,1400,391,312,254,1215,267,84,63,1118,82,465]","trial_type":"two-door-navigation","trial_index":2,"time_elapsed":201019,"internal_node_id":"0.0-2.0-0.0"},{"group":"dihedral group of order 12","room_assignment":["cyan","blue","ivory","red","yellow","green","brown","grey","pink","olive","orange","purple"],"door_color_assignment":["white","black"],"door_generator_assignment":[0,1],"goal":8,"start":7,"action_noise":0.15,"location_history":"[7,1,7,6,11,10,9,8]","action_history":"[0,1,0,0,0,0,0]","door_history":"[0,1,0,0,0,0,0]","location_rts":"[2508,2010,1061,653,1258,460,518]","trial_type":"two-door-navigation","trial_index":3,"time_elapsed":220505,"internal_node_id":"0.0-2.0-1.0"},{"group":"dihedral group of order 12","room_assignment":["cyan","blue","ivory","red","yellow","green","brown","grey","pink","olive","orange","purple"],"door_color_assignment":["white","black"],"door_generator_assignment":[0,1],"goal":4,"start":8,"action_noise":0.15,"location_history":"[8,2,8,2,8,7,1,7,6,11,10,9,8,2,3,9,8,2,8,2,3,4]","action_history":"[1,1,1,0,0,0,0,0,0,0,0,0,1,1,1,1,1,1,1,0,0]","door_history":"[1,1,1,0,0,0,0,0,0,0,0,0,1,1,1,1,1,1,1,0,0]","location_rts":"[2964,349,1521,1137,720,446,521,342,254,534,525,745,401,302,716,313,237,1516,2105,210,501]","trial_type":"two-door-navigation","trial_index":4,"time_elapsed":262829,"internal_node_id":"0.0-2.0-2.0"},{"group":"dihedral group of order 12","room_assignment":["cyan","blue","ivory","red","yellow","green","brown","grey","pink","olive","orange","purple"],"door_color_assignment":["white","black"],"door_generator_assignment":[0,1],"goal":5,"start":4,"action_noise":0.15,"location_history":"[4,10,4,10,4,5]","action_history":"[1,1,1,1,0]","door_history":"[1,1,1,1,0]","location_rts":"[3517,948,386,280,818]","trial_type":"two-door-navigation","trial_index":5,"time_elapsed":277618,"internal_node_id":"0.0-2.0-3.0"},{"group":"dihedral group of order 12","room_assignment":["cyan","blue","ivory","red","yellow","green","brown","grey","pink","olive","orange","purple"],"door_color_assignment":["white","black"],"door_generator_assignment":[0,1],"goal":10,"start":5,"action_noise":0.15,"location_history":"[5,11,5,11,5,11,10]","action_history":"[1,1,1,1,1,0]","door_history":"[1,1,1,1,1,0]","location_rts":"[2934,348,275,861,556,607]","trial_type":"two-door-navigation","trial_index":6,"time_elapsed":293117,"internal_node_id":"0.0-2.0-4.0"},{"group":"dihedral group of order 12","room_assignment":["cyan","blue","ivory","red","yellow","green","brown","grey","pink","olive","orange","purple"],"door_color_assignment":["white","black"],"door_generator_assignment":[0,1],"goal":1,"start":10,"action_noise":0.15,"location_history":"[10,9,8,7,6,11,5,11,5,0,1]","action_history":"[0,0,0,0,1,1,1,1,0,0]","door_history":"[0,0,0,0,1,1,1,1,0,0]","location_rts":"[3922,1379,1350,721,859,727,305,522,664,407]","trial_type":"two-door-navigation","trial_index":7,"time_elapsed":318200,"internal_node_id":"0.0-2.0-5.0"},{"group":"dihedral group of order 12","room_assignment":["cyan","blue","ivory","red","yellow","green","brown","grey","pink","olive","orange","purple"],"door_color_assignment":["white","black"],"door_generator_assignment":[0,1],"goal":6,"start":1,"action_noise":0.15,"location_history":"[1,2,3,4,5,0,6]","action_history":"[0,0,0,0,0,0]","door_history":"[0,0,0,0,0,0]","location_rts":"[1782,373,279,152,157,566]","trial_type":"two-door-navigation","trial_index":8,"time_elapsed":331467,"internal_node_id":"0.0-2.0-6.0"},{"group":"dihedral group of order 12","room_assignment":["cyan","blue","ivory","red","yellow","green","brown","grey","pink","olive","orange","purple"],"door_color_assignment":["white","black"],"door_generator_assignment":[0,1],"goal":9,"start":6,"action_noise":0.15,"location_history":"[6,0,1,2,3,4,10,9]","action_history":"[0,0,0,0,0,0,0]","door_history":"[0,0,0,0,0,0,0]","location_rts":"[4377,1427,317,226,249,159,199]","trial_type":"two-door-navigation","trial_index":9,"time_elapsed":349455,"internal_node_id":"0.0-2.0-7.0"},{"group":"dihedral group of order 12","room_assignment":["cyan","blue","ivory","red","yellow","green","brown","grey","pink","olive","orange","purple"],"door_color_assignment":["white","black"],"door_generator_assignment":[0,1],"goal":2,"start":9,"action_noise":0.15,"location_history":"[9,3,9,3,4,5,11,10,9,8,2]","action_history":"[1,1,1,0,0,0,0,0,0,0]","door_history":"[1,1,1,0,0,0,0,0,0,0]","location_rts":"[4237,2400,1222,222,315,221,260,191,183,218]","trial_type":"two-door-navigation","trial_index":10,"time_elapsed":373142,"internal_node_id":"0.0-2.0-8.0"},{"group":"dihedral group of order 12","room_assignment":["cyan","blue","ivory","red","yellow","green","brown","grey","pink","olive","orange","purple"],"door_color_assignment":["white","black"],"door_generator_assignment":[0,1],"goal":0,"start":2,"action_noise":0.15,"location_history":"[2,8,2,3,4,5,0]","action_history":"[1,1,0,0,0,0]","door_history":"[1,1,0,0,0,0]","location_rts":"[3269,1741,425,263,230,169]","trial_type":"two-door-navigation","trial_index":11,"time_elapsed":389132,"internal_node_id":"0.0-2.0-9.0"},{"group":"dihedral group of order 12","room_assignment":["cyan","blue","ivory","red","yellow","green","brown","grey","pink","olive","orange","purple"],"door_color_assignment":["white","black"],"door_generator_assignment":[0,1],"goal":3,"start":0,"action_noise":0.15,"location_history":"[0,1,2,3]","action_history":"[0,0,0]","door_history":"[0,0,0]","location_rts":"[3324,389,1773]","trial_type":"two-door-navigation","trial_index":12,"time_elapsed":401350,"internal_node_id":"0.0-2.0-10.0"},{"group":"dihedral group of order 12","room_assignment":["cyan","blue","ivory","red","yellow","green","brown","grey","pink","olive","orange","purple"],"door_color_assignment":["white","black"],"door_generator_assignment":[0,1],"goal":10,"start":3,"action_noise":0.15,"location_history":"[3,4,5,11,10]","action_history":"[0,0,0,0]","door_history":"[0,0,0,0]","location_rts":"[1398,267,8,644]","trial_type":"two-door-navigation","trial_index":13,"time_elapsed":411455,"internal_node_id":"0.0-2.0-11.0"},{"group":"dihedral group of order 12","room_assignment":["cyan","blue","ivory","red","yellow","green","brown","grey","pink","olive","orange","purple"],"door_color_assignment":["white","black"],"door_generator_assignment":[0,1],"goal":8,"start":10,"action_noise":0.15,"location_history":"[10,4,5,0,1,2,3,4,5,11,5,0,6,0,1,2,3,4,5,11,5,0,6,11,10,9,8]","action_history":"[1,0,0,0,0,1,0,0,1,1,1,1,0,0,0,0,0,0,1,1,0,1,0,0,0,0]","door_history":"[1,0,0,0,0,1,0,0,1,1,1,1,0,0,0,0,0,0,1,1,0,1,0,0,0,0]","location_rts":"[1709,283,344,311,1114,672,185,266,895,635,535,893,814,186,213,155,504,944,711,438,795,1365,364,229,11,375]","trial_type":"two-door-navigation","trial_index":14,"time_elapsed":457639,"internal_node_id":"0.0-2.0-12.0"},{"group":"dihedral group of order 12","room_assignment":["cyan","blue","ivory","red","yellow","green","brown","grey","pink","olive","orange","purple"],"door_color_assignment":["white","black"],"door_generator_assignment":[0,1],"goal":4,"start":8,"action_noise":0.15,"location_history":"[8,7,1,2,8,7,6,0,1,2,3,9,8,7,6,0,1,2,8,2,8,7,6,11,10,9,8,2,3,9,3,4]","action_history":"[0,1,0,0,0,0,1,0,0,0,0,0,0,0,1,0,1,1,1,1,0,0,0,0,0,0,0,0,1,0,0]","door_history":"[0,1,0,0,0,0,1,0,0,0,0,0,0,0,1,0,1,1,1,1,0,0,0,0,0,0,0,0,1,0,0]","location_rts":"[2224,1489,271,65,176,224,1130,111,55,72,37,420,73,896,556,182,411,165,150,231,501,578,83,405,186,266,92,192,377,965,371]","trial_type":"two-door-navigation","trial_index":15,"time_elapsed":507200,"internal_node_id":"0.0-2.0-13.0"},{"group":"dihedral group of order 12","room_assignment":["cyan","blue","ivory","red","yellow","green","brown","grey","pink","olive","orange","purple"],"door_color_assignment":["white","black"],"door_generator_assignment":[0,1],"goal":0,"start":4,"action_noise":0.15,"location_history":"[4,5,0]","action_history":"[0,0]","door_history":"[0,0]","location_rts":"[1804,194]","trial_type":"two-door-navigation","trial_index":16,"time_elapsed":514873,"internal_node_id":"0.0-2.0-14.0"},{"group":"dihedral group of order 12","room_assignment":["cyan","blue","ivory","red","yellow","green","brown","grey","pink","olive","orange","purple"],"door_color_assignment":["white","black"],"door_generator_assignment":[0,1],"goal":11,"start":0,"action_noise":0.15,"location_history":"[0,1,7,6,11]","action_history":"[0,0,0,0]","door_history":"[0,0,0,0]","location_rts":"[2505,19,15,56]","trial_type":"two-door-navigation","trial_index":17,"time_elapsed":525254,"internal_node_id":"0.0-2.0-15.0"},{"group":"dihedral group of order 12","room_assignment":["cyan","blue","ivory","red","yellow","green","brown","grey","pink","olive","orange","purple"],"door_color_assignment":["white","black"],"door_generator_assignment":[0,1],"goal":2,"start":11,"action_noise":0.15,"location_history":"[11,10,4,5,0,1,2]","action_history":"[0,0,0,0,0,0]","door_history":"[0,0,0,0,0,0]","location_rts":"[1666,427,149,263,174,161]","trial_type":"two-door-navigation","trial_index":18,"time_elapsed":538019,"internal_node_id":"0.0-2.0-16.0"},{"group":"dihedral group of order 12","room_assignment":["cyan","blue","ivory","red","yellow","green","brown","grey","pink","olive","orange","purple"],"door_color_assignment":["white","black"],"door_generator_assignment":[0,1],"goal":7,"start":2,"action_noise":0.15,"location_history":"[2,3,9,8,7]","action_history":"[0,1,0,0]","door_history":"[0,1,0,0]","location_rts":"[3090,2059,1267,363]","trial_type":"two-door-navigation","trial_index":19,"time_elapsed":552606,"internal_node_id":"0.0-2.0-17.0"},{"group":"dihedral group of order 12","room_assignment":["cyan","blue","ivory","red","yellow","green","brown","grey","pink","olive","orange","purple"],"door_color_assignment":["white","black"],"door_generator_assignment":[0,1],"goal":5,"start":7,"action_noise":0.15,"location_history":"[7,6,11,10,9,8,7,1,2,3,4,5]","action_history":"[0,0,0,0,0,0,1,0,0,0,0]","door_history":"[0,0,0,0,0,0,1,0,0,0,0]","location_rts":"[2067,76,36,615,526,857,916,162,201,161,42]","trial_type":"two-door-navigation","trial_index":20,"time_elapsed":573588,"internal_node_id":"0.0-2.0-18.0"},{"group":"dihedral group of order 12","room_assignment":["cyan","blue","ivory","red","yellow","green","brown","grey","pink","olive","orange","purple"],"door_color_assignment":["white","black"],"door_generator_assignment":[0,1],"goal":6,"start":5,"action_noise":0.15,"location_history":"[5,0,1,2,8,2,3,4,10,9,8,7,6]","action_history":"[0,0,0,1,0,0,0,0,0,0,0,0]","door_history":"[0,0,0,1,0,0,0,0,0,0,0,0]","location_rts":"[2181,961,473,664,185,108,119,174,151,229,339,454]","trial_type":"two-door-navigation","trial_index":21,"time_elapsed":595969,"internal_node_id":"0.0-2.0-19.0"},{"group":"dihedral group of order 12","room_assignment":["cyan","blue","ivory","red","yellow","green","brown","grey","pink","olive","orange","purple"],"door_color_assignment":["white","black"],"door_generator_assignment":[0,1],"goal":3,"start":6,"action_noise":0.15,"location_history":"[6,11,10,4,10,9,8,2,3]","action_history":"[0,0,0,0,0,0,1,0]","door_history":"[0,0,0,0,0,0,1,0]","location_rts":"[2423,617,779,305,211,207,281,106]","trial_type":"two-door-navigation","trial_index":22,"time_elapsed":612980,"internal_node_id":"0.0-2.0-20.0"},{"group":"dihedral group of order 12","room_assignment":["cyan","blue","ivory","red","yellow","green","brown","grey","pink","olive","orange","purple"],"door_color_assignment":["white","black"],"door_generator_assignment":[0,1],"goal":1,"start":3,"action_noise":0.15,"location_history":"[3,4,5,0,1]","action_history":"[0,0,0,0]","door_history":"[0,0,0,0]","location_rts":"[1293,188,17,345]","trial_type":"two-door-navigation","trial_index":23,"time_elapsed":622585,"internal_node_id":"0.0-2.0-21.0"},{"group":"dihedral group of order 12","room_assignment":["cyan","blue","ivory","red","yellow","green","brown","grey","pink","olive","orange","purple"],"door_color_assignment":["white","black"],"door_generator_assignment":[0,1],"goal":9,"start":1,"action_noise":0.15,"location_history":"[1,2,3,4,5,0,1,2,8,7,6,11,10,9]","action_history":"[0,1,0,0,0,0,0,1,0,0,0,0,0]","door_history":"[0,1,0,0,0,0,0,1,0,0,0,0,0]","location_rts":"[2494,872,23,1383,60,110,393,357,180,232,121,144,122]","trial_type":"two-door-navigation","trial_index":24,"time_elapsed":646494,"internal_node_id":"0.0-2.0-22.0"},{"group":"dihedral group of order 12","room_assignment":["cyan","blue","ivory","red","yellow","green","brown","grey","pink","olive","orange","purple"],"door_color_assignment":["white","black"],"door_generator_assignment":[0,1],"goal":3,"start":9,"action_noise":0.15,"location_history":"[9,8,7,1,2,3]","action_history":"[0,0,1,0,0]","door_history":"[0,0,1,0,0]","location_rts":"[1681,25,290,101,356]","trial_type":"two-door-navigation","trial_index":25,"time_elapsed":657781,"internal_node_id":"0.0-2.0-23.0"},{"group":"dihedral group of order 12","room_assignment":["cyan","blue","ivory","red","yellow","green","brown","grey","pink","olive","orange","purple"],"door_color_assignment":["white","black"],"door_generator_assignment":[0,1],"goal":4,"start":3,"action_noise":0.15,"location_history":"[3,9,8,7,1,2,3,9,8,7,1,2,3,4]","action_history":"[0,0,0,1,0,0,0,0,0,1,0,0,0]","door_history":"[0,0,0,1,0,0,0,0,0,1,0,0,0]","location_rts":"[1158,103,141,1705,108,362,498,337,398,553,13,29,304]","trial_type":"two-door-navigation","trial_index":26,"time_elapsed":680903,"internal_node_id":"0.0-2.0-24.0"},{"group":"dihedral group of order 12","room_assignment":["cyan","blue","ivory","red","yellow","green","brown","grey","pink","olive","orange","purple"],"door_color_assignment":["white","black"],"door_generator_assignment":[0,1],"goal":2,"start":4,"action_noise":0.15,"location_history":"[4,5,0,1,2]","action_history":"[0,0,0,0]","door_history":"[0,0,0,0]","location_rts":"[1567,421,123,505]","trial_type":"two-door-navigation","trial_index":27,"time_elapsed":691320,"internal_node_id":"0.0-2.0-25.0"},{"group":"dihedral group of order 12","room_assignment":["cyan","blue","ivory","red","yellow","green","brown","grey","pink","olive","orange","purple"],"door_color_assignment":["white","black"],"door_generator_assignment":[0,1],"goal":1,"start":2,"action_noise":0.15,"location_history":"[2,3,4,5,11,10,9,8,2,8,7,6,11,10,9,8,7,6,0,1]","action_history":"[0,0,0,0,0,0,0,0,1,0,1,0,0,0,0,0,0,1,0]","door_history":"[0,0,0,0,0,0,0,0,1,0,1,0,0,0,0,0,0,1,0]","location_rts":"[1753,37,118,83,349,344,338,618,256,247,783,118,134,205,99,1227,816,1349,276]","trial_type":"two-door-navigation","trial_index":28,"time_elapsed":724280,"internal_node_id":"0.0-2.0-26.0"},{"group":"dihedral group of order 12","room_assignment":["cyan","blue","ivory","red","yellow","green","brown","grey","pink","olive","orange","purple"],"door_color_assignment":["white","black"],"door_generator_assignment":[0,1],"goal":8,"start":1,"action_noise":0.15,"location_history":"[1,2,8]","action_history":"[0,1]","door_history":"[0,1]","location_rts":"[1997,643]","trial_type":"two-door-navigation","trial_index":29,"time_elapsed":732559,"internal_node_id":"0.0-2.0-27.0"},{"group":"dihedral group of order 12","room_assignment":["cyan","blue","ivory","red","yellow","green","brown","grey","pink","olive","orange","purple"],"door_color_assignment":["white","black"],"door_generator_assignment":[0,1],"goal":10,"start":8,"action_noise":0.15,"location_history":"[8,7,6,11,10]","action_history":"[0,0,0,0]","door_history":"[0,0,0,0]","location_rts":"[2962,660,512,57]","trial_type":"two-door-navigation","trial_index":30,"time_elapsed":744571,"internal_node_id":"0.0-2.0-28.0"},{"group":"dihedral group of order 12","room_assignment":["cyan","blue","ivory","red","yellow","green","brown","grey","pink","olive","orange","purple"],"door_color_assignment":["white","black"],"door_generator_assignment":[0,1],"goal":7,"start":10,"action_noise":0.15,"location_history":"[10,4,10,9,8,7]","action_history":"[0,0,0,0,0]","door_history":"[0,0,0,0,0]","location_rts":"[1600,225,214,167,161]","trial_type":"two-door-navigation","trial_index":31,"time_elapsed":755810,"internal_node_id":"0.0-2.0-29.0"},{"group":"dihedral group of order 12","room_assignment":["cyan","blue","ivory","red","yellow","green","brown","grey","pink","olive","orange","purple"],"door_color_assignment":["white","black"],"door_generator_assignment":[0,1],"goal":6,"start":7,"action_noise":0.15,"location_history":"[7,6]","action_history":"[0]","door_history":"[0]","location_rts":"[1293]","trial_type":"two-door-navigation","trial_index":32,"time_elapsed":761687,"internal_node_id":"0.0-2.0-30.0"},{"group":"dihedral group of order 12","room_assignment":["cyan","blue","ivory","red","yellow","green","brown","grey","pink","olive","orange","purple"],"door_color_assignment":["white","black"],"door_generator_assignment":[0,1],"goal":0,"start":6,"action_noise":0.15,"location_history":"[6,11,10,9,3,4,10,4,5,11,5,11,5,0]","action_history":"[0,0,0,0,0,0,0,0,0,0,0,1,0]","door_history":"[0,0,0,0,0,0,0,0,0,0,0,1,0]","location_rts":"[1600,838,1021,475,909,98,761,283,552,209,160,581,9]","trial_type":"two-door-navigation","trial_index":33,"time_elapsed":786618,"internal_node_id":"0.0-2.0-31.0"},{"group":"dihedral group of order 12","room_assignment":["cyan","blue","ivory","red","yellow","green","brown","grey","pink","olive","orange","purple"],"door_color_assignment":["white","black"],"door_generator_assignment":[0,1],"goal":11,"start":0,"action_noise":0.15,"location_history":"[0,1,2,3,4,5,0,1,2,3,9,8,7,1,2,3,4,5,11]","action_history":"[0,0,0,0,0,0,0,0,0,0,0,0,1,0,0,0,0,0]","door_history":"[0,0,0,0,0,0,0,0,0,0,0,0,1,0,0,0,0,0]","location_rts":"[1301,238,314,272,201,455,1325,112,61,82,52,477,546,1506,114,164,67,160]","trial_type":"two-door-navigation","trial_index":34,"time_elapsed":816827,"internal_node_id":"0.0-2.0-32.0"},{"group":"dihedral group of order 12","room_assignment":["cyan","blue","ivory","red","yellow","green","brown","grey","pink","olive","orange","purple"],"door_color_assignment":["white","black"],"door_generator_assignment":[0,1],"goal":9,"start":11,"action_noise":0.15,"location_history":"[11,5,0,1,7,1,2,8,7,6,11,10,9]","action_history":"[1,0,0,0,1,0,1,0,0,0,0,0]","door_history":"[1,0,0,0,1,0,1,0,0,0,0,0]","location_rts":"[3697,395,462,667,233,135,353,315,188,238,390,541]","trial_type":"two-door-navigation","trial_index":35,"time_elapsed":840728,"internal_node_id":"0.0-2.0-33.0"},{"group":"dihedral group of order 12","room_assignment":["cyan","blue","ivory","red","yellow","green","brown","grey","pink","olive","orange","purple"],"door_color_assignment":["white","black"],"door_generator_assignment":[0,1],"goal":5,"start":9,"action_noise":0.15,"location_history":"[9,8,7,6,11,10,9,8,7,1,2,3,4,5]","action_history":"[0,0,0,0,0,0,0,0,1,0,0,0,0]","door_history":"[0,0,0,0,0,0,0,0,1,0,0,0,0]","location_rts":"[1557,27,158,754,106,435,208,608,37,172,98,154,383]","trial_type":"two-door-navigation","trial_index":36,"time_elapsed":862784,"internal_node_id":"0.0-2.0-34.0"},{"view_history":"[{\"page_index\":0,\"viewing_time\":3732}]","rt":3732,"trial_type":"instructions","trial_index":37,"time_elapsed":867521,"internal_node_id":"0.0-3.0"},{"view_history":"[{\"page_index\":0,\"viewing_time\":2077},{\"page_index\":1,\"viewing_time\":22864}]","rt":24941,"trial_type":"instructions","trial_index":38,"time_elapsed":893464,"internal_node_id":"0.0-4.0"},{"group":"dicyclic group of order 12","fractal_assignment":["../images/gry_blk.png","../images/wht_red.png","../images/grn_prp.png","../images/grn_blu.png","../images/red_prp.png","../images/grn_red.png","../images/ylw_pnk.png","../images/org_blu.png","../images/pnk_blu.png","../images/blu_wht.png","../images/ylw_slt.png","../images/cyn_red.png"],"mutagen_generator_assignment":[1,0],"goal":7,"start":11,"action_noise":0.15,"location_history":"[11,3,7]","action_history":"[1,1]","mutagen_history":"[0,0]","location_rts":"[4306,1059]","trial_type":"fractal-mutation","trial_index":39,"time_elapsed":904499,"internal_node_id":"0.0-5.0-0.0"},{"group":"dicyclic group of order 12","fractal_assignment":["../images/gry_blk.png","../images/wht_red.png","../images/grn_prp.png","../images/grn_blu.png","../images/red_prp.png","../images/grn_red.png","../images/ylw_pnk.png","../images/org_blu.png","../images/pnk_blu.png","../images/blu_wht.png","../images/ylw_slt.png","../images/cyn_red.png"],"mutagen_generator_assignment":[1,0],"goal":8,"start":7,"action_noise":0.15,"location_history":"[7,8]","action_history":"[0]","mutagen_history":"[1]","location_rts":"[1927]","trial_type":"fractal-mutation","trial_index":40,"time_elapsed":911098,"internal_node_id":"0.0-5.0-1.0"},{"group":"dicyclic group of order 12","fractal_assignment":["../images/gry_blk.png","../images/wht_red.png","../images/grn_prp.png","../images/grn_blu.png","../images/red_prp.png","../images/grn_red.png","../images/ylw_pnk.png","../images/org_blu.png","../images/pnk_blu.png","../images/blu_wht.png","../images/ylw_slt.png","../images/cyn_red.png"],"mutagen_generator_assignment":[1,0],"goal":4,"start":8,"action_noise":0.15,"location_history":"[8,5,10,7,11,3,0,4]","action_history":"[0,0,0,1,1,1,1]","mutagen_history":"[1,1,1,0,0,0,0]","location_rts":"[2255,1595,496,1692,835,1121,1004]","trial_type":"fractal-mutation","trial_index":41,"time_elapsed":931472,"internal_node_id":"0.0-5.0-2.0"},{"group":"dicyclic group of order 12","fractal_assignment":["../images/gry_blk.png","../images/wht_red.png","../images/grn_prp.png","../images/grn_blu.png","../images/red_prp.png","../images/grn_red.png","../images/ylw_pnk.png","../images/org_blu.png","../images/pnk_blu.png","../images/blu_wht.png","../images/ylw_slt.png","../images/cyn_red.png"],"mutagen_generator_assignment":[1,0],"goal":5,"start":4,"action_noise":0.15,"location_history":"[4,9,6,11,4,8,0,1,2,6,10,2,6,11,4,8,0,4,9,1,2,6,10,7,11,4,9,6,10,7,8,5]","action_history":"[0,0,0,0,1,1,0,1,0,1,1,1,0,1,1,1,1,0,1,0,1,1,1,1,0,0,0,0,0,0,0]","mutagen_history":"[1,1,1,1,0,0,1,0,1,0,0,0,1,0,0,0,0,1,0,1,0,0,0,0,1,1,1,1,1,1,1]","location_rts":"[4750,1632,365,538,790,443,958,1311,1686,1557,583,493,435,1218,910,975,1111,1025,1397,1100,1243,892,810,1040,1964,1138,898,257,681,280,1112]","trial_type":"fractal-mutation","trial_index":42,"time_elapsed":1003437,"internal_node_id":"0.0-5.0-3.0"},{"group":"dicyclic group of order 12","fractal_assignment":["../images/gry_blk.png","../images/wht_red.png","../images/grn_prp.png","../images/grn_blu.png","../images/red_prp.png","../images/grn_red.png","../images/ylw_pnk.png","../images/org_blu.png","../images/pnk_blu.png","../images/blu_wht.png","../images/ylw_slt.png","../images/cyn_red.png"],"mutagen_generator_assignment":[1,0],"goal":10,"start":5,"action_noise":0.15,"location_history":"[5,9,1,5,10]","action_history":"[1,1,1,1]","mutagen_history":"[0,0,0,0]","location_rts":"[2844,563,464,350]","trial_type":"fractal-mutation","trial_index":43,"time_elapsed":1015496,"internal_node_id":"0.0-5.0-4.0"},{"group":"dicyclic group of order 12","fractal_assignment":["../images/gry_blk.png","../images/wht_red.png","../images/grn_prp.png","../images/grn_blu.png","../images/red_prp.png","../images/grn_red.png","../images/ylw_pnk.png","../images/org_blu.png","../images/pnk_blu.png","../images/blu_wht.png","../images/ylw_slt.png","../images/cyn_red.png"],"mutagen_generator_assignment":[1,0],"goal":1,"start":10,"action_noise":0.15,"location_history":"[10,2,6,11,3,7,8,5,9,1]","action_history":"[1,1,1,1,1,1,0,1,1]","mutagen_history":"[0,0,0,0,0,0,1,0,0]","location_rts":"[1389,189,461,624,457,620,647,227,1357]","trial_type":"fractal-mutation","trial_index":44,"time_elapsed":1034819,"internal_node_id":"0.0-5.0-5.0"},{"group":"dicyclic group of order 12","fractal_assignment":["../images/gry_blk.png","../images/wht_red.png","../images/grn_prp.png","../images/grn_blu.png","../images/red_prp.png","../images/grn_red.png","../images/ylw_pnk.png","../images/org_blu.png","../images/pnk_blu.png","../images/blu_wht.png","../images/ylw_slt.png","../images/cyn_red.png"],"mutagen_generator_assignment":[1,0],"goal":6,"start":1,"action_noise":0.15,"location_history":"[1,5,9,6]","action_history":"[1,1,0]","mutagen_history":"[0,0,1]","location_rts":"[5728,2039,2827]","trial_type":"fractal-mutation","trial_index":45,"time_elapsed":1052236,"internal_node_id":"0.0-5.0-6.0"},{"group":"dicyclic group of order 12","fractal_assignment":["../images/gry_blk.png","../images/wht_red.png","../images/grn_prp.png","../images/grn_blu.png","../images/red_prp.png","../images/grn_red.png","../images/ylw_pnk.png","../images/org_blu.png","../images/pnk_blu.png","../images/blu_wht.png","../images/ylw_slt.png","../images/cyn_red.png"],"mutagen_generator_assignment":[1,0],"goal":9,"start":6,"action_noise":0.15,"location_history":"[6,10,7,8,0,4,8,0,1,5,10,2,6,10,2,3,0,1,2,3,7,8,0,4,8,0,1,2,6,10,2,6,10,2,6,10,2,3,0,1,5,9]","action_history":"[0,0,0,1,1,1,1,0,1,1,1,1,1,1,0,0,0,0,0,1,0,1,1,1,1,1,0,1,1,1,1,1,1,1,1,0,1,0,0,1,1]","mutagen_history":"[1,1,1,0,0,0,0,1,0,0,0,0,0,0,1,1,1,1,1,0,1,0,0,0,0,0,1,0,0,0,0,0,0,0,0,1,0,1,1,0,0]","location_rts":"[1849,592,5,908,87,609,239,930,1706,640,468,415,385,490,506,83,2043,1650,443,157,145,243,236,737,279,247,789,475,441,410,482,482,519,350,49,378,1770,1078,1659,508,482]","trial_type":"fractal-mutation","trial_index":46,"time_elapsed":1127603,"internal_node_id":"0.0-5.0-7.0"},{"group":"dicyclic group of order 12","fractal_assignment":["../images/gry_blk.png","../images/wht_red.png","../images/grn_prp.png","../images/grn_blu.png","../images/red_prp.png","../images/grn_red.png","../images/ylw_pnk.png","../images/org_blu.png","../images/pnk_blu.png","../images/blu_wht.png","../images/ylw_slt.png","../images/cyn_red.png"],"mutagen_generator_assignment":[1,0],"goal":2,"start":9,"action_noise":0.15,"location_history":"[9,1,5,10,2]","action_history":"[1,1,0,0]","mutagen_history":"[0,0,1,1]","location_rts":"[99306,1258,701,1053]","trial_type":"fractal-mutation","trial_index":47,"time_elapsed":1237849,"internal_node_id":"0.0-5.0-8.0"},{"group":"dicyclic group of order 12","fractal_assignment":["../images/gry_blk.png","../images/wht_red.png","../images/grn_prp.png","../images/grn_blu.png","../images/red_prp.png","../images/grn_red.png","../images/ylw_pnk.png","../images/org_blu.png","../images/pnk_blu.png","../images/blu_wht.png","../images/ylw_slt.png","../images/cyn_red.png"],"mutagen_generator_assignment":[1,0],"goal":0,"start":2,"action_noise":0.15,"location_history":"[2,3,7,8,0]","action_history":"[0,1,1,1]","mutagen_history":"[1,0,0,0]","location_rts":"[6201,1380,436,73]","trial_type":"fractal-mutation","trial_index":48,"time_elapsed":1253859,"internal_node_id":"0.0-5.0-9.0"},{"group":"dicyclic group of order 12","fractal_assignment":["../images/gry_blk.png","../images/wht_red.png","../images/grn_prp.png","../images/grn_blu.png","../images/red_prp.png","../images/grn_red.png","../images/ylw_pnk.png","../images/org_blu.png","../images/pnk_blu.png","../images/blu_wht.png","../images/ylw_slt.png","../images/cyn_red.png"],"mutagen_generator_assignment":[1,0],"goal":3,"start":0,"action_noise":0.15,"location_history":"[0,4,8,0,4,9,6,11,3]","action_history":"[1,1,1,1,1,0,1,1]","mutagen_history":"[0,0,0,0,0,1,0,0]","location_rts":"[1901,495,1172,583,192,1617,2112,1495]","trial_type":"fractal-mutation","trial_index":49,"time_elapsed":1275666,"internal_node_id":"0.0-5.0-10.0"},{"group":"dicyclic group of order 12","fractal_assignment":["../images/gry_blk.png","../images/wht_red.png","../images/grn_prp.png","../images/grn_blu.png","../images/red_prp.png","../images/grn_red.png","../images/ylw_pnk.png","../images/org_blu.png","../images/pnk_blu.png","../images/blu_wht.png","../images/ylw_slt.png","../images/cyn_red.png"],"mutagen_generator_assignment":[1,0],"goal":10,"start":3,"action_noise":0.15,"location_history":"[3,7,8,5,10]","action_history":"[1,0,0,0]","mutagen_history":"[0,1,1,1]","location_rts":"[8883,2451,1002,1013]","trial_type":"fractal-mutation","trial_index":50,"time_elapsed":1297232,"internal_node_id":"0.0-5.0-11.0"},{"group":"dicyclic group of order 12","fractal_assignment":["../images/gry_blk.png","../images/wht_red.png","../images/grn_prp.png","../images/grn_blu.png","../images/red_prp.png","../images/grn_red.png","../images/ylw_pnk.png","../images/org_blu.png","../images/pnk_blu.png","../images/blu_wht.png","../images/ylw_slt.png","../images/cyn_red.png"],"mutagen_generator_assignment":[1,0],"goal":8,"start":10,"action_noise":0.15,"location_history":"[10,7,11,3,0,4,8]","action_history":"[1,1,1,1,1,1]","mutagen_history":"[0,0,0,0,0,0]","location_rts":"[3230,827,780,551,416,213]","trial_type":"fractal-mutation","trial_index":51,"time_elapsed":1313248,"internal_node_id":"0.0-5.0-12.0"},{"group":"dicyclic group of order 12","fractal_assignment":["../images/gry_blk.png","../images/wht_red.png","../images/grn_prp.png","../images/grn_blu.png","../images/red_prp.png","../images/grn_red.png","../images/ylw_pnk.png","../images/org_blu.png","../images/pnk_blu.png","../images/blu_wht.png","../images/ylw_slt.png","../images/cyn_red.png"],"mutagen_generator_assignment":[1,0],"goal":4,"start":8,"action_noise":0.15,"location_history":"[8,0,4]","action_history":"[1,1]","mutagen_history":"[0,0]","location_rts":"[1760,380]","trial_type":"fractal-mutation","trial_index":52,"time_elapsed":1321060,"internal_node_id":"0.0-5.0-13.0"},{"group":"dicyclic group of order 12","fractal_assignment":["../images/gry_blk.png","../images/wht_red.png","../images/grn_prp.png","../images/grn_blu.png","../images/red_prp.png","../images/grn_red.png","../images/ylw_pnk.png","../images/org_blu.png","../images/pnk_blu.png","../images/blu_wht.png","../images/ylw_slt.png","../images/cyn_red.png"],"mutagen_generator_assignment":[1,0],"goal":0,"start":4,"action_noise":0.15,"location_history":"[4,9,1,5,9,1,2,3,0]","action_history":"[1,1,1,1,1,1,1,0]","mutagen_history":"[0,0,0,0,0,0,0,1]","location_rts":"[2242,247,466,422,161,343,370,556]","trial_type":"fractal-mutation","trial_index":53,"time_elapsed":1338043,"internal_node_id":"0.0-5.0-14.0"},{"group":"dicyclic group of order 12","fractal_assignment":["../images/gry_blk.png","../images/wht_red.png","../images/grn_prp.png","../images/grn_blu.png","../images/red_prp.png","../images/grn_red.png","../images/ylw_pnk.png","../images/org_blu.png","../images/pnk_blu.png","../images/blu_wht.png","../images/ylw_slt.png","../images/cyn_red.png"],"mutagen_generator_assignment":[1,0],"goal":11,"start":0,"action_noise":0.15,"location_history":"[0,1,2,3,0,1,2,6,10,2,6,10,2,6,11]","action_history":"[0,0,0,0,0,0,1,1,1,1,1,1,1,0]","mutagen_history":"[1,1,1,1,1,1,0,0,0,0,0,0,0,1]","location_rts":"[2411,347,192,426,481,46,216,927,373,282,697,719,582,471]","trial_type":"fractal-mutation","trial_index":54,"time_elapsed":1365464,"internal_node_id":"0.0-5.0-15.0"},{"group":"dicyclic group of order 12","fractal_assignment":["../images/gry_blk.png","../images/wht_red.png","../images/grn_prp.png","../images/grn_blu.png","../images/red_prp.png","../images/grn_red.png","../images/ylw_pnk.png","../images/org_blu.png","../images/pnk_blu.png","../images/blu_wht.png","../images/ylw_slt.png","../images/cyn_red.png"],"mutagen_generator_assignment":[1,0],"goal":2,"start":11,"action_noise":0.15,"location_history":"[11,4,8,0,4,8,0,4,9,1,2]","action_history":"[0,1,1,1,1,1,1,0,1,0]","mutagen_history":"[1,0,0,0,0,0,0,1,0,1]","location_rts":"[2625,1244,175,155,269,229,1281,42,1060,227]","trial_type":"fractal-mutation","trial_index":55,"time_elapsed":1387380,"internal_node_id":"0.0-5.0-16.0"},{"group":"dicyclic group of order 12","fractal_assignment":["../images/gry_blk.png","../images/wht_red.png","../images/grn_prp.png","../images/grn_blu.png","../images/red_prp.png","../images/grn_red.png","../images/ylw_pnk.png","../images/org_blu.png","../images/pnk_blu.png","../images/blu_wht.png","../images/ylw_slt.png","../images/cyn_red.png"],"mutagen_generator_assignment":[1,0],"goal":7,"start":2,"action_noise":0.15,"location_history":"[2,6,11,3,7]","action_history":"[1,0,1,1]","mutagen_history":"[0,1,0,0]","location_rts":"[1240,1308,331,458]","trial_type":"fractal-mutation","trial_index":56,"time_elapsed":1398668,"internal_node_id":"0.0-5.0-17.0"},{"group":"dicyclic group of order 12","fractal_assignment":["../images/gry_blk.png","../images/wht_red.png","../images/grn_prp.png","../images/grn_blu.png","../images/red_prp.png","../images/grn_red.png","../images/ylw_pnk.png","../images/org_blu.png","../images/pnk_blu.png","../images/blu_wht.png","../images/ylw_slt.png","../images/cyn_red.png"],"mutagen_generator_assignment":[1,0],"goal":5,"start":7,"action_noise":0.15,"location_history":"[7,8,0,4,9,1,5]","action_history":"[0,1,1,0,1,1]","mutagen_history":"[1,0,0,1,0,0]","location_rts":"[1660,245,13353,1285,560,75]","trial_type":"fractal-mutation","trial_index":57,"time_elapsed":1426028,"internal_node_id":"0.0-5.0-18.0"},{"group":"dicyclic group of order 12","fractal_assignment":["../images/gry_blk.png","../images/wht_red.png","../images/grn_prp.png","../images/grn_blu.png","../images/red_prp.png","../images/grn_red.png","../images/ylw_pnk.png","../images/org_blu.png","../images/pnk_blu.png","../images/blu_wht.png","../images/ylw_slt.png","../images/cyn_red.png"],"mutagen_generator_assignment":[1,0],"goal":6,"start":5,"action_noise":0.15,"location_history":"[5,9,1,5,9,1,5,10,7,8,0,4,8,0,4,9,6]","action_history":"[1,1,1,0,0,1,0,1,1,1,1,1,1,1,0,0]","mutagen_history":"[0,0,0,1,1,0,1,0,0,0,0,0,0,0,1,1]","location_rts":"[1692,955,501,936,861,305,234,932,619,542,1640,1880,721,536,557,1080]","trial_type":"fractal-mutation","trial_index":58,"time_elapsed":1461295,"internal_node_id":"0.0-5.0-19.0"},{"group":"dicyclic group of order 12","fractal_assignment":["../images/gry_blk.png","../images/wht_red.png","../images/grn_prp.png","../images/grn_blu.png","../images/red_prp.png","../images/grn_red.png","../images/ylw_pnk.png","../images/org_blu.png","../images/pnk_blu.png","../images/blu_wht.png","../images/ylw_slt.png","../images/cyn_red.png"],"mutagen_generator_assignment":[1,0],"goal":3,"start":6,"action_noise":0.15,"location_history":"[6,11,3]","action_history":"[1,1]","mutagen_history":"[0,0]","location_rts":"[868,842]","trial_type":"fractal-mutation","trial_index":59,"time_elapsed":1468665,"internal_node_id":"0.0-5.0-20.0"},{"group":"dicyclic group of order 12","fractal_assignment":["../images/gry_blk.png","../images/wht_red.png","../images/grn_prp.png","../images/grn_blu.png","../images/red_prp.png","../images/grn_red.png","../images/ylw_pnk.png","../images/org_blu.png","../images/pnk_blu.png","../images/blu_wht.png","../images/ylw_slt.png","../images/cyn_red.png"],"mutagen_generator_assignment":[1,0],"goal":1,"start":3,"action_noise":0.15,"location_history":"[3,7,11,3,0,4,9,1]","action_history":"[1,1,1,0,1,0,1]","mutagen_history":"[0,0,0,1,0,1,0]","location_rts":"[2352,1021,381,739,221,1107,202]","trial_type":"fractal-mutation","trial_index":60,"time_elapsed":1485911,"internal_node_id":"0.0-5.0-21.0"},{"group":"dicyclic group of order 12","fractal_assignment":["../images/gry_blk.png","../images/wht_red.png","../images/grn_prp.png","../images/grn_blu.png","../images/red_prp.png","../images/grn_red.png","../images/ylw_pnk.png","../images/org_blu.png","../images/pnk_blu.png","../images/blu_wht.png","../images/ylw_slt.png","../images/cyn_red.png"],"mutagen_generator_assignment":[1,0],"goal":9,"start":1,"action_noise":0.15,"location_history":"[1,2,3,7,11,4,9]","action_history":"[1,1,1,1,1,1]","mutagen_history":"[0,0,0,0,0,0]","location_rts":"[1556,256,656,328,429,335]","trial_type":"fractal-mutation","trial_index":61,"time_elapsed":1499467,"internal_node_id":"0.0-5.0-22.0"},{"group":"dicyclic group of order 12","fractal_assignment":["../images/gry_blk.png","../images/wht_red.png","../images/grn_prp.png","../images/grn_blu.png","../images/red_prp.png","../images/grn_red.png","../images/ylw_pnk.png","../images/org_blu.png","../images/pnk_blu.png","../images/blu_wht.png","../images/ylw_slt.png","../images/cyn_red.png"],"mutagen_generator_assignment":[1,0],"goal":3,"start":9,"action_noise":0.15,"location_history":"[9,6,10,2,3]","action_history":"[0,1,1,1]","mutagen_history":"[1,0,0,0]","location_rts":"[2719,459,240,583]","trial_type":"fractal-mutation","trial_index":62,"time_elapsed":1511447,"internal_node_id":"0.0-5.0-23.0"},{"group":"dicyclic group of order 12","fractal_assignment":["../images/gry_blk.png","../images/wht_red.png","../images/grn_prp.png","../images/grn_blu.png","../images/red_prp.png","../images/grn_red.png","../images/ylw_pnk.png","../images/org_blu.png","../images/pnk_blu.png","../images/blu_wht.png","../images/ylw_slt.png","../images/cyn_red.png"],"mutagen_generator_assignment":[1,0],"goal":4,"start":3,"action_noise":0.15,"location_history":"[3,7,11,3,7,8,0,4]","action_history":"[1,1,1,1,0,1,1]","mutagen_history":"[0,0,0,0,1,0,0]","location_rts":"[1111,604,428,1356,1035,175,524]","trial_type":"fractal-mutation","trial_index":63,"time_elapsed":1527855,"internal_node_id":"0.0-5.0-24.0"},{"group":"dicyclic group of order 12","fractal_assignment":["../images/gry_blk.png","../images/wht_red.png","../images/grn_prp.png","../images/grn_blu.png","../images/red_prp.png","../images/grn_red.png","../images/ylw_pnk.png","../images/org_blu.png","../images/pnk_blu.png","../images/blu_wht.png","../images/ylw_slt.png","../images/cyn_red.png"],"mutagen_generator_assignment":[1,0],"goal":2,"start":4,"action_noise":0.15,"location_history":"[4,9,1,5,10,7,11,3,7,8,0,1,5,10,2]","action_history":"[1,1,1,0,1,1,1,0,0,0,0,1,0,1]","mutagen_history":"[0,0,0,1,0,0,0,1,1,1,1,0,1,0]","location_rts":"[1040,604,57,1099,257,351,380,632,233,736,620,781,227,646]","trial_type":"fractal-mutation","trial_index":64,"time_elapsed":1554647,"internal_node_id":"0.0-5.0-25.0"},{"group":"dicyclic group of order 12","fractal_assignment":["../images/gry_blk.png","../images/wht_red.png","../images/grn_prp.png","../images/grn_blu.png","../images/red_prp.png","../images/grn_red.png","../images/ylw_pnk.png","../images/org_blu.png","../images/pnk_blu.png","../images/blu_wht.png","../images/ylw_slt.png","../images/cyn_red.png"],"mutagen_generator_assignment":[1,0],"goal":1,"start":2,"action_noise":0.15,"location_history":"[2,6,10,2,6,11,3,0,4,9,1]","action_history":"[1,1,1,1,0,1,1,1,0,1]","mutagen_history":"[0,0,0,0,1,0,0,0,1,0]","location_rts":"[944,1052,792,469,190,64,217,715,1151,146]","trial_type":"fractal-mutation","trial_index":65,"time_elapsed":1574921,"internal_node_id":"0.0-5.0-26.0"},{"group":"dicyclic group of order 12","fractal_assignment":["../images/gry_blk.png","../images/wht_red.png","../images/grn_prp.png","../images/grn_blu.png","../images/red_prp.png","../images/grn_red.png","../images/ylw_pnk.png","../images/org_blu.png","../images/pnk_blu.png","../images/blu_wht.png","../images/ylw_slt.png","../images/cyn_red.png"],"mutagen_generator_assignment":[1,0],"goal":8,"start":1,"action_noise":0.15,"location_history":"[1,5,9,6,11,3,7,8]","action_history":"[1,1,0,0,1,1,0]","mutagen_history":"[0,0,1,1,0,0,1]","location_rts":"[1388,73,930,215,256,509,1486]","trial_type":"fractal-mutation","trial_index":66,"time_elapsed":1591080,"internal_node_id":"0.0-5.0-27.0"},{"group":"dicyclic group of order 12","fractal_assignment":["../images/gry_blk.png","../images/wht_red.png","../images/grn_prp.png","../images/grn_blu.png","../images/red_prp.png","../images/grn_red.png","../images/ylw_pnk.png","../images/org_blu.png","../images/pnk_blu.png","../images/blu_wht.png","../images/ylw_slt.png","../images/cyn_red.png"],"mutagen_generator_assignment":[1,0],"goal":10,"start":8,"action_noise":0.15,"location_history":"[8,0,4,9,1,5,10]","action_history":"[1,1,1,1,1,0]","mutagen_history":"[0,0,0,0,0,1]","location_rts":"[856,1193,70,573,181,907]","trial_type":"fractal-mutation","trial_index":67,"time_elapsed":1604916,"internal_node_id":"0.0-5.0-28.0"},{"group":"dicyclic group of order 12","fractal_assignment":["../images/gry_blk.png","../images/wht_red.png","../images/grn_prp.png","../images/grn_blu.png","../images/red_prp.png","../images/grn_red.png","../images/ylw_pnk.png","../images/org_blu.png","../images/pnk_blu.png","../images/blu_wht.png","../images/ylw_slt.png","../images/cyn_red.png"],"mutagen_generator_assignment":[1,0],"goal":7,"start":10,"action_noise":0.15,"location_history":"[10,2,3,7]","action_history":"[1,1,1]","mutagen_history":"[0,0,0]","location_rts":"[3685,530,1516]","trial_type":"fractal-mutation","trial_index":68,"time_elapsed":1617395,"internal_node_id":"0.0-5.0-29.0"},{"group":"dicyclic group of order 12","fractal_assignment":["../images/gry_blk.png","../images/wht_red.png","../images/grn_prp.png","../images/grn_blu.png","../images/red_prp.png","../images/grn_red.png","../images/ylw_pnk.png","../images/org_blu.png","../images/pnk_blu.png","../images/blu_wht.png","../images/ylw_slt.png","../images/cyn_red.png"],"mutagen_generator_assignment":[1,0],"goal":6,"start":7,"action_noise":0.15,"location_history":"[7,8,5,10,7,8,0,4,8,0,1,2,3,7,11,4,8,5,9,6]","action_history":"[0,0,0,1,0,1,1,1,1,0,0,1,1,1,1,1,0,1,1]","mutagen_history":"[1,1,1,0,1,0,0,0,0,1,1,0,0,0,0,0,1,0,0]","location_rts":"[2204,839,1131,1685,1153,579,465,98,609,409,204,426,1331,2103,844,1454,956,267,439]","trial_type":"fractal-mutation","trial_index":69,"time_elapsed":1659307,"internal_node_id":"0.0-5.0-30.0"},{"group":"dicyclic group of order 12","fractal_assignment":["../images/gry_blk.png","../images/wht_red.png","../images/grn_prp.png","../images/grn_blu.png","../images/red_prp.png","../images/grn_red.png","../images/ylw_pnk.png","../images/org_blu.png","../images/pnk_blu.png","../images/blu_wht.png","../images/ylw_slt.png","../images/cyn_red.png"],"mutagen_generator_assignment":[1,0],"goal":0,"start":6,"action_noise":0.15,"location_history":"[6,10,2,6,10,2,6,10,2,3,7,11,3,7,8,0]","action_history":"[1,1,1,1,1,0,1,1,0,1,1,1,1,0,1]","mutagen_history":"[0,0,0,0,0,1,0,0,1,0,0,0,0,1,0]","location_rts":"[1110,402,120,397,410,714,508,979,607,760,117,759,352,139,111]","trial_type":"fractal-mutation","trial_index":70,"time_elapsed":1686830,"internal_node_id":"0.0-5.0-31.0"},{"group":"dicyclic group of order 12","fractal_assignment":["../images/gry_blk.png","../images/wht_red.png","../images/grn_prp.png","../images/grn_blu.png","../images/red_prp.png","../images/grn_red.png","../images/ylw_pnk.png","../images/org_blu.png","../images/pnk_blu.png","../images/blu_wht.png","../images/ylw_slt.png","../images/cyn_red.png"],"mutagen_generator_assignment":[1,0],"goal":11,"start":0,"action_noise":0.15,"location_history":"[0,1,2,3,0,4,8,5,10,2,6,11]","action_history":"[0,0,0,1,1,1,1,0,1,1,0]","mutagen_history":"[1,1,1,0,0,0,0,1,0,0,1]","location_rts":"[1623,135,75,580,394,840,235,455,287,192,855]","trial_type":"fractal-mutation","trial_index":71,"time_elapsed":1708383,"internal_node_id":"0.0-5.0-32.0"},{"group":"dicyclic group of order 12","fractal_assignment":["../images/gry_blk.png","../images/wht_red.png","../images/grn_prp.png","../images/grn_blu.png","../images/red_prp.png","../images/grn_red.png","../images/ylw_pnk.png","../images/org_blu.png","../images/pnk_blu.png","../images/blu_wht.png","../images/ylw_slt.png","../images/cyn_red.png"],"mutagen_generator_assignment":[1,0],"goal":9,"start":11,"action_noise":0.15,"location_history":"[11,4,8,0,4,8,5,9]","action_history":"[0,1,1,1,1,0,1]","mutagen_history":"[1,0,0,0,0,1,0]","location_rts":"[1745,528,20,647,251,71,615]","trial_type":"fractal-mutation","trial_index":72,"time_elapsed":1723564,"internal_node_id":"0.0-5.0-33.0"},{"group":"dicyclic group of order 12","fractal_assignment":["../images/gry_blk.png","../images/wht_red.png","../images/grn_prp.png","../images/grn_blu.png","../images/red_prp.png","../images/grn_red.png","../images/ylw_pnk.png","../images/org_blu.png","../images/pnk_blu.png","../images/blu_wht.png","../images/ylw_slt.png","../images/cyn_red.png"],"mutagen_generator_assignment":[1,0],"goal":5,"start":9,"action_noise":0.15,"location_history":"[9,6,10,2,6,10,7,11,4,8,5]","action_history":"[0,1,1,1,1,0,0,0,0,1]","mutagen_history":"[1,0,0,0,0,1,1,1,1,0]","location_rts":"[1992,380,252,480,406,729,121,282,129,148]","trial_type":"fractal-mutation","trial_index":73,"time_elapsed":1743206,"internal_node_id":"0.0-5.0-34.0"},{"view_history":"[{\"page_index\":0,\"viewing_time\":4702}]","rt":4702,"trial_type":"instructions","trial_index":74,"time_elapsed":1748911,"internal_node_id":"0.0-6.0"},{"rt":33794,"responses":"{\"Q0\":\"Very, very complex rules. Still not really getting it, with very heavy emphasis on section 2.\"}","trial_type":"survey-text","trial_index":75,"time_elapsed":1783714,"internal_node_id":"0.0-7.0"}]