[{"view_history":"[{\"page_index\":0,\"viewing_time\":1547},{\"page_index\":1,\"viewing_time\":3687}]","rt":5235,"trial_type":"instructions","trial_index":0,"time_elapsed":5237,"internal_node_id":"0.0-0.0"},{"view_history":"[{\"page_index\":0,\"viewing_time\":4301},{\"page_index\":1,\"viewing_time\":2560}]","rt":6862,"trial_type":"instructions","trial_index":1,"time_elapsed":13100,"internal_node_id":"0.0-1.0"},{"group":"dicyclic group of order 12","room_assignment":["cyan","green","orange","blue","yellow","olive","purple","red","grey","ivory","pink","brown"],"door_color_assignment":["white","black"],"door_generator_assignment":[1,0],"goal":7,"start":11,"action_noise":0.15,"location_history":"[11,3,0,1,2,6,11,4,8,5,10,2,6,11,3,0,1,5,10,7]","action_history":"[1,0,0,0,0,0,0,1,0,0,1,0,0,0,0,1,1,1,1]","door_history":"[0,1,1,1,1,1,1,0,1,1,0,1,1,1,1,0,0,0,0]","location_rts":"[2019,783,441,350,320,369,218,449,354,457,290,507,841,466,346,303,306,397,391]","trial_type":"two-door-navigation","trial_index":2,"time_elapsed":45349,"internal_node_id":"0.0-2.0-0.0"},{"group":"dicyclic group of order 12","room_assignment":["cyan","green","orange","blue","yellow","olive","purple","red","grey","ivory","pink","brown"],"door_color_assignment":["white","black"],"door_generator_assignment":[1,0],"goal":8,"start":7,"action_noise":0.15,"location_history":"[7,11,3,7,11,4,9,6,11,4,8]","action_history":"[1,1,1,1,0,0,0,0,0,0]","door_history":"[0,0,0,0,1,1,1,1,1,1]","location_rts":"[2201,351,538,339,201,336,948,588,241,215]","trial_type":"two-door-navigation","trial_index":3,"time_elapsed":64877,"internal_node_id":"0.0-2.0-1.0"},{"group":"dicyclic group of order 12","room_assignment":["cyan","green","orange","blue","yellow","olive","purple","red","grey","ivory","pink","brown"],"door_color_assignment":["white","black"],"door_generator_assignment":[1,0],"goal":4,"start":8,"action_noise":0.15,"location_history":"[8,0,4]","action_history":"[1,1]","door_history":"[0,0]","location_rts":"[1780,343]","trial_type":"two-door-navigation","trial_index":4,"time_elapsed":72518,"internal_node_id":"0.0-2.0-2.0"},{"group":"dicyclic group of order 12","room_assignment":["cyan","green","orange","blue","yellow","olive","purple","red","grey","ivory","pink","brown"],"door_color_assignment":["white","black"],"door_generator_assignment":[1,0],"goal":5,"start":4,"action_noise":0.15,"location_history":"[4,8,5]","action_history":"[1,0]","door_history":"[0,1]","location_rts":"[1332,330]","trial_type":"two-door-navigation","trial_index":5,"time_elapsed":79698,"internal_node_id":"0.0-2.0-3.0"},{"group":"dicyclic group of order 12","room_assignment":["cyan","green","orange","blue","yellow","olive","purple","red","grey","ivory","pink","brown"],"door_color_assignment":["white","black"],"door_generator_assignment":[1,0],"goal":10,"start":5,"action_noise":0.15,"location_history":"[5,10]","action_history":"[0]","door_history":"[1]","location_rts":"[681]","trial_type":"two-door-navigation","trial_index":6,"time_elapsed":84890,"internal_node_id":"0.0-2.0-4.0"},{"group":"dicyclic group of order 12","room_assignment":["cyan","green","orange","blue","yellow","olive","purple","red","grey","ivory","pink","brown"],"door_color_assignment":["white","black"],"door_generator_assignment":[1,0],"goal":1,"start":10,"action_noise":0.15,"location_history":"[10,7,11,4,8,0,4,8,5,10,7,8,5,10,7,8,5,10,7,8,5,10,2,3,7,11,4,9,6,11,4,9,6,11,4,9,6,10,2,3,7,8,0,4,8,5,9,6,10,7,11,4,8,5,10,7,8,5,10,7,8,0,4,9,1]","action_history":"[0,0,0,1,1,1,1,0,1,0,0,0,0,0,0,0,0,0,0,0,0,0,0,1,1,0,0,0,0,0,0,0,0,0,0,0,1,1,0,1,0,1,0,1,0,1,0,1,0,1,0,1,0,0,0,0,0,0,0,0,1,1,1,1]","door_history":"[1,1,1,0,0,0,0,1,0,1,1,1,1,1,1,1,1,1,1,1,1,1,1,0,0,1,1,1,1,1,1,1,1,1,1,1,0,0,1,0,1,0,1,0,1,0,1,0,1,0,1,0,1,1,1,1,1,1,1,1,0,0,0,0]","location_rts":"[1619,1846,1329,474,425,1306,440,259,344,310,324,693,383,534,2612,690,2770,1349,424,1189,687,406,399,375,279,8469,915,695,314,362,282,320,589,321,322,762,583,278,498,280,274,476,328,221,287,302,289,227,72,569,278,336,279,451,249,324,551,690,313,265,321,225,273,263]","trial_type":"two-door-navigation","trial_index":7,"time_elapsed":197166,"internal_node_id":"0.0-2.0-5.0"},{"group":"dicyclic group of order 12","room_assignment":["cyan","green","orange","blue","yellow","olive","purple","red","grey","ivory","pink","brown"],"door_color_assignment":["white","black"],"door_generator_assignment":[1,0],"goal":6,"start":1,"action_noise":0.15,"location_history":"[1,2,3,0,4,9,1,2,3,0,1,2,3,0,1,2,6]","action_history":"[0,1,0,0,0,0,0,0,0,0,0,0,0,0,0,0]","door_history":"[1,0,1,1,1,1,1,1,1,1,1,1,1,1,1,1]","location_rts":"[1827,376,366,314,498,176,269,343,248,300,247,295,300,577,258,673]","trial_type":"two-door-navigation","trial_index":8,"time_elapsed":223856,"internal_node_id":"0.0-2.0-6.0"},{"group":"dicyclic group of order 12","room_assignment":["cyan","green","orange","blue","yellow","olive","purple","red","grey","ivory","pink","brown"],"door_color_assignment":["white","black"],"door_generator_assignment":[1,0],"goal":9,"start":6,"action_noise":0.15,"location_history":"[6,10,7,11,4,8,5,9]","action_history":"[1,0,1,0,1,0,1]","door_history":"[0,1,0,1,0,1,0]","location_rts":"[2484,505,266,214,242,1106,353]","trial_type":"two-door-navigation","trial_index":9,"time_elapsed":239577,"internal_node_id":"0.0-2.0-7.0"},{"group":"dicyclic group of order 12","room_assignment":["cyan","green","orange","blue","yellow","olive","purple","red","grey","ivory","pink","brown"],"door_color_assignment":["white","black"],"door_generator_assignment":[1,0],"goal":2,"start":9,"action_noise":0.15,"location_history":"[9,6,10,2]","action_history":"[0,1,1]","door_history":"[1,0,0]","location_rts":"[1366,306,274]","trial_type":"two-door-navigation","trial_index":10,"time_elapsed":248043,"internal_node_id":"0.0-2.0-8.0"},{"group":"dicyclic group of order 12","room_assignment":["cyan","green","orange","blue","yellow","olive","purple","red","grey","ivory","pink","brown"],"door_color_assignment":["white","black"],"door_generator_assignment":[1,0],"goal":0,"start":2,"action_noise":0.15,"location_history":"[2,3,0]","action_history":"[0,0]","door_history":"[1,1]","location_rts":"[1835,715]","trial_type":"two-door-navigation","trial_index":11,"time_elapsed":256103,"internal_node_id":"0.0-2.0-9.0"},{"group":"dicyclic group of order 12","room_assignment":["cyan","green","orange","blue","yellow","olive","purple","red","grey","ivory","pink","brown"],"door_color_assignment":["white","black"],"door_generator_assignment":[1,0],"goal":3,"start":0,"action_noise":0.15,"location_history":"[0,1,2,6,10,7,8,5,10,7,8,5,10,7,8,5,10,2,3]","action_history":"[0,0,0,0,0,0,0,0,0,0,0,0,0,0,0,0,0,0]","door_history":"[1,1,1,1,1,1,1,1,1,1,1,1,1,1,1,1,1,1]","location_rts":"[784,293,247,331,359,407,339,479,315,705,448,675,303,264,535,318,497,290]","trial_type":"two-door-navigation","trial_index":12,"time_elapsed":285326,"internal_node_id":"0.0-2.0-10.0"},{"group":"dicyclic group of order 12","room_assignment":["cyan","green","orange","blue","yellow","olive","purple","red","grey","ivory","pink","brown"],"door_color_assignment":["white","black"],"door_generator_assignment":[1,0],"goal":10,"start":3,"action_noise":0.15,"location_history":"[3,7,8,5,9,1,5,10]","action_history":"[1,1,0,1,1,1,1]","door_history":"[0,0,1,0,0,0,0]","location_rts":"[3581,261,388,276,489,389,398]","trial_type":"two-door-navigation","trial_index":13,"time_elapsed":302526,"internal_node_id":"0.0-2.0-11.0"},{"group":"dicyclic group of order 12","room_assignment":["cyan","green","orange","blue","yellow","olive","purple","red","grey","ivory","pink","brown"],"door_color_assignment":["white","black"],"door_generator_assignment":[1,0],"goal":8,"start":10,"action_noise":0.15,"location_history":"[10,2,6,10,2,6,10,2,6,11,3,7,11,3,7,11,4,9,6,11,4,8]","action_history":"[0,1,1,1,1,1,1,1,1,1,1,1,1,1,1,1,0,0,0,0,0]","door_history":"[1,0,0,0,0,0,0,0,0,0,0,0,0,0,0,0,1,1,1,1,1]","location_rts":"[8255,434,483,298,292,321,292,237,371,354,256,369,256,240,374,385,344,287,378,345,428]","trial_type":"two-door-navigation","trial_index":14,"time_elapsed":342195,"internal_node_id":"0.0-2.0-12.0"},{"group":"dicyclic group of order 12","room_assignment":["cyan","green","orange","blue","yellow","olive","purple","red","grey","ivory","pink","brown"],"door_color_assignment":["white","black"],"door_generator_assignment":[1,0],"goal":4,"start":8,"action_noise":0.15,"location_history":"[8,0,4]","action_history":"[1,1]","door_history":"[0,0]","location_rts":"[1992,348]","trial_type":"two-door-navigation","trial_index":15,"time_elapsed":350049,"internal_node_id":"0.0-2.0-13.0"},{"group":"dicyclic group of order 12","room_assignment":["cyan","green","orange","blue","yellow","olive","purple","red","grey","ivory","pink","brown"],"door_color_assignment":["white","black"],"door_generator_assignment":[1,0],"goal":0,"start":4,"action_noise":0.15,"location_history":"[4,9,6,11,4,9,6,11,4,9,1,2,6,11,4,9,6,11,4,9,6,11,4,9,6,11,4,9,6,11,3,0]","action_history":"[0,0,0,0,0,0,0,0,0,0,0,0,0,0,0,0,0,0,0,0,0,0,0,0,0,0,0,0,0,0,0]","door_history":"[1,1,1,1,1,1,1,1,1,1,1,1,1,1,1,1,1,1,1,1,1,1,1,1,1,1,1,1,1,1,1]","location_rts":"[1603,652,1169,995,786,422,384,852,496,882,1099,516,916,401,569,446,987,685,443,697,641,565,2082,780,339,258,228,288,272,299,271]","trial_type":"two-door-navigation","trial_index":16,"time_elapsed":405773,"internal_node_id":"0.0-2.0-14.0"},{"group":"dicyclic group of order 12","room_assignment":["cyan","green","orange","blue","yellow","olive","purple","red","grey","ivory","pink","brown"],"door_color_assignment":["white","black"],"door_generator_assignment":[1,0],"goal":11,"start":0,"action_noise":0.15,"location_history":"[0,4,9,6,11]","action_history":"[1,0,0,0]","door_history":"[0,1,1,1]","location_rts":"[1644,354,329,290]","trial_type":"two-door-navigation","trial_index":17,"time_elapsed":415921,"internal_node_id":"0.0-2.0-15.0"},{"group":"dicyclic group of order 12","room_assignment":["cyan","green","orange","blue","yellow","olive","purple","red","grey","ivory","pink","brown"],"door_color_assignment":["white","black"],"door_generator_assignment":[1,0],"goal":2,"start":11,"action_noise":0.15,"location_history":"[11,3,7,11,3,7,11,3,7,11,3,7,8,5,10,2]","action_history":"[1,1,1,1,1,1,1,1,1,1,1,1,0,0,0]","door_history":"[0,0,0,0,0,0,0,0,0,0,0,0,1,1,1]","location_rts":"[1545,280,426,178,562,794,377,744,281,475,375,105,458,170,256]","trial_type":"two-door-navigation","trial_index":18,"time_elapsed":441552,"internal_node_id":"0.0-2.0-16.0"},{"group":"dicyclic group of order 12","room_assignment":["cyan","green","orange","blue","yellow","olive","purple","red","grey","ivory","pink","brown"],"door_color_assignment":["white","black"],"door_generator_assignment":[1,0],"goal":7,"start":2,"action_noise":0.15,"location_history":"[2,6,10,2,6,10,2,6,10,2,6,11,4,9,1,2,6,10,7]","action_history":"[1,1,1,1,1,1,1,1,1,1,0,0,0,0,0,0,0,0]","door_history":"[0,0,0,0,0,0,0,0,0,0,1,1,1,1,1,1,1,1]","location_rts":"[3030,307,167,230,194,304,681,305,257,245,271,8331,404,688,351,343,329,483]","trial_type":"two-door-navigation","trial_index":19,"time_elapsed":480103,"internal_node_id":"0.0-2.0-17.0"},{"group":"dicyclic group of order 12","room_assignment":["cyan","green","orange","blue","yellow","olive","purple","red","grey","ivory","pink","brown"],"door_color_assignment":["white","black"],"door_generator_assignment":[1,0],"goal":5,"start":7,"action_noise":0.15,"location_history":"[7,8,5]","action_history":"[0,0]","door_history":"[1,1]","location_rts":"[2107,336]","trial_type":"two-door-navigation","trial_index":20,"time_elapsed":488065,"internal_node_id":"0.0-2.0-18.0"},{"group":"dicyclic group of order 12","room_assignment":["cyan","green","orange","blue","yellow","olive","purple","red","grey","ivory","pink","brown"],"door_color_assignment":["white","black"],"door_generator_assignment":[1,0],"goal":6,"start":5,"action_noise":0.15,"location_history":"[5,9,1,2,6]","action_history":"[1,1,0,1]","door_history":"[0,0,1,0]","location_rts":"[2178,450,264,265]","trial_type":"two-door-navigation","trial_index":21,"time_elapsed":498750,"internal_node_id":"0.0-2.0-19.0"},{"group":"dicyclic group of order 12","room_assignment":["cyan","green","orange","blue","yellow","olive","purple","red","grey","ivory","pink","brown"],"door_color_assignment":["white","black"],"door_generator_assignment":[1,0],"goal":3,"start":6,"action_noise":0.15,"location_history":"[6,11,4,9,1,2,3]","action_history":"[0,1,0,0,0,0]","door_history":"[1,0,1,1,1,1]","location_rts":"[1583,520,290,258,137,177]","trial_type":"two-door-navigation","trial_index":22,"time_elapsed":511260,"internal_node_id":"0.0-2.0-20.0"},{"group":"dicyclic group of order 12","room_assignment":["cyan","green","orange","blue","yellow","olive","purple","red","grey","ivory","pink","brown"],"door_color_assignment":["white","black"],"door_generator_assignment":[1,0],"goal":1,"start":3,"action_noise":0.15,"location_history":"[3,0,1]","action_history":"[1,0]","door_history":"[0,1]","location_rts":"[1499,577]","trial_type":"two-door-navigation","trial_index":23,"time_elapsed":518850,"internal_node_id":"0.0-2.0-21.0"},{"group":"dicyclic group of order 12","room_assignment":["cyan","green","orange","blue","yellow","olive","purple","red","grey","ivory","pink","brown"],"door_color_assignment":["white","black"],"door_generator_assignment":[1,0],"goal":9,"start":1,"action_noise":0.15,"location_history":"[1,2,3,0,4,9]","action_history":"[0,1,0,1,0]","door_history":"[1,0,1,0,1]","location_rts":"[1726,304,299,250,104]","trial_type":"two-door-navigation","trial_index":24,"time_elapsed":530072,"internal_node_id":"0.0-2.0-22.0"},{"group":"dicyclic group of order 12","room_assignment":["cyan","green","orange","blue","yellow","olive","purple","red","grey","ivory","pink","brown"],"door_color_assignment":["white","black"],"door_generator_assignment":[1,0],"goal":3,"start":9,"action_noise":0.15,"location_history":"[9,6,11,3]","action_history":"[0,0,0]","door_history":"[1,1,1]","location_rts":"[2161,390,364]","trial_type":"two-door-navigation","trial_index":25,"time_elapsed":539529,"internal_node_id":"0.0-2.0-23.0"},{"group":"dicyclic group of order 12","room_assignment":["cyan","green","orange","blue","yellow","olive","purple","red","grey","ivory","pink","brown"],"door_color_assignment":["white","black"],"door_generator_assignment":[1,0],"goal":4,"start":3,"action_noise":0.15,"location_history":"[3,7,11,3,7,8,0,1,5,10,2,6,11,4]","action_history":"[1,1,1,1,1,1,1,1,1,1,1,0,0]","door_history":"[0,0,0,0,0,0,0,0,0,0,0,1,1]","location_rts":"[7941,313,334,203,305,377,415,429,604,418,218,283,296]","trial_type":"two-door-navigation","trial_index":26,"time_elapsed":569254,"internal_node_id":"0.0-2.0-24.0"},{"group":"dicyclic group of order 12","room_assignment":["cyan","green","orange","blue","yellow","olive","purple","red","grey","ivory","pink","brown"],"door_color_assignment":["white","black"],"door_generator_assignment":[1,0],"goal":2,"start":4,"action_noise":0.15,"location_history":"[4,8,0,1,5,9,1,5,10,2]","action_history":"[1,0,0,1,1,1,1,1,1]","door_history":"[0,1,1,0,0,0,0,0,0]","location_rts":"[1511,512,154,361,283,215,298,18,160]","trial_type":"two-door-navigation","trial_index":27,"time_elapsed":585342,"internal_node_id":"0.0-2.0-25.0"},{"group":"dicyclic group of order 12","room_assignment":["cyan","green","orange","blue","yellow","olive","purple","red","grey","ivory","pink","brown"],"door_color_assignment":["white","black"],"door_generator_assignment":[1,0],"goal":1,"start":2,"action_noise":0.15,"location_history":"[2,6,11,4,9,6,11,4,9,6,11,4,9,1]","action_history":"[0,0,0,0,0,0,0,0,0,0,0,0,1]","door_history":"[1,1,1,1,1,1,1,1,1,1,1,1,0]","location_rts":"[1288,284,235,237,602,254,425,267,347,303,316,328,128]","trial_type":"two-door-navigation","trial_index":28,"time_elapsed":606943,"internal_node_id":"0.0-2.0-26.0"},{"group":"dicyclic group of order 12","room_assignment":["cyan","green","orange","blue","yellow","olive","purple","red","grey","ivory","pink","brown"],"door_color_assignment":["white","black"],"door_generator_assignment":[1,0],"goal":8,"start":1,"action_noise":0.15,"location_history":"[1,5,9,1,5,10,2,6,11,3,7,11,3,7,11,4,9,1,2,6,10,7,8]","action_history":"[1,1,1,1,1,1,1,1,1,1,1,1,1,1,0,0,0,0,0,0,0,0]","door_history":"[0,0,0,0,0,0,0,0,0,0,0,0,0,0,1,1,1,1,1,1,1,1]","location_rts":"[2299,336,282,250,265,298,312,291,225,280,234,294,285,268,240,273,381,274,287,330,287,263]","trial_type":"two-door-navigation","trial_index":29,"time_elapsed":640846,"internal_node_id":"0.0-2.0-27.0"},{"group":"dicyclic group of order 12","room_assignment":["cyan","green","orange","blue","yellow","olive","purple","red","grey","ivory","pink","brown"],"door_color_assignment":["white","black"],"door_generator_assignment":[1,0],"goal":10,"start":8,"action_noise":0.15,"location_history":"[8,0,4,9,1,5,9,1,5,9,1,5,9,1,5,9,1,2,3,0,1,2,3,0,4,9,1,5,10]","action_history":"[1,1,1,1,1,1,1,1,1,1,1,1,1,1,1,1,0,0,0,0,0,0,0,1,0,1,1,1]","door_history":"[0,0,0,0,0,0,0,0,0,0,0,0,0,0,0,0,1,1,1,1,1,1,1,0,1,0,0,0]","location_rts":"[1424,329,242,269,66,178,127,262,305,145,131,199,40,473,495,292,257,419,305,322,248,298,926,330,348,299,282,276]","trial_type":"two-door-navigation","trial_index":30,"time_elapsed":681832,"internal_node_id":"0.0-2.0-28.0"},{"group":"dicyclic group of order 12","room_assignment":["cyan","green","orange","blue","yellow","olive","purple","red","grey","ivory","pink","brown"],"door_color_assignment":["white","black"],"door_generator_assignment":[1,0],"goal":7,"start":10,"action_noise":0.15,"location_history":"[10,2,3,7]","action_history":"[1,0,1]","door_history":"[0,1,0]","location_rts":"[994,435,1096]","trial_type":"two-door-navigation","trial_index":31,"time_elapsed":690880,"internal_node_id":"0.0-2.0-29.0"},{"group":"dicyclic group of order 12","room_assignment":["cyan","green","orange","blue","yellow","olive","purple","red","grey","ivory","pink","brown"],"door_color_assignment":["white","black"],"door_generator_assignment":[1,0],"goal":6,"start":7,"action_noise":0.15,"location_history":"[7,11,3,7,8,0,4,8,0,1,2,3,0,1,2,6]","action_history":"[1,1,1,1,1,1,1,1,0,0,0,0,0,0,0]","door_history":"[0,0,0,0,0,0,0,0,1,1,1,1,1,1,1]","location_rts":"[2651,256,181,225,285,274,407,251,306,537,494,531,851,280,297]","trial_type":"two-door-navigation","trial_index":32,"time_elapsed":717304,"internal_node_id":"0.0-2.0-30.0"},{"group":"dicyclic group of order 12","room_assignment":["cyan","green","orange","blue","yellow","olive","purple","red","grey","ivory","pink","brown"],"door_color_assignment":["white","black"],"door_generator_assignment":[1,0],"goal":0,"start":6,"action_noise":0.15,"location_history":"[6,11,4,9,6,11,4,9,6,11,4,9,6,10,2,3,0]","action_history":"[0,0,0,0,0,0,0,0,0,0,0,0,0,0,0,0]","door_history":"[1,1,1,1,1,1,1,1,1,1,1,1,1,1,1,1]","location_rts":"[1023,231,345,715,548,321,386,238,325,357,525,285,227,202,257,162]","trial_type":"two-door-navigation","trial_index":33,"time_elapsed":743062,"internal_node_id":"0.0-2.0-31.0"},{"group":"dicyclic group of order 12","room_assignment":["cyan","green","orange","blue","yellow","olive","purple","red","grey","ivory","pink","brown"],"door_color_assignment":["white","black"],"door_generator_assignment":[1,0],"goal":11,"start":0,"action_noise":0.15,"location_history":"[0,4,9,6,11]","action_history":"[1,0,0,0]","door_history":"[0,1,1,1]","location_rts":"[9404,360,264,305]","trial_type":"two-door-navigation","trial_index":34,"time_elapsed":761391,"internal_node_id":"0.0-2.0-32.0"},{"group":"dicyclic group of order 12","room_assignment":["cyan","green","orange","blue","yellow","olive","purple","red","grey","ivory","pink","brown"],"door_color_assignment":["white","black"],"door_generator_assignment":[1,0],"goal":9,"start":11,"action_noise":0.15,"location_history":"[11,4,8,5,9]","action_history":"[0,1,0,1]","door_history":"[1,0,1,0]","location_rts":"[1244,375,228,286]","trial_type":"two-door-navigation","trial_index":35,"time_elapsed":771056,"internal_node_id":"0.0-2.0-33.0"},{"group":"dicyclic group of order 12","room_assignment":["cyan","green","orange","blue","yellow","olive","purple","red","grey","ivory","pink","brown"],"door_color_assignment":["white","black"],"door_generator_assignment":[1,0],"goal":5,"start":9,"action_noise":0.15,"location_history":"[9,1,5]","action_history":"[0,1]","door_history":"[1,0]","location_rts":"[1043,619]","trial_type":"two-door-navigation","trial_index":36,"time_elapsed":778236,"internal_node_id":"0.0-2.0-34.0"},{"view_history":"[{\"page_index\":0,\"viewing_time\":2315}]","rt":2315,"trial_type":"instructions","trial_index":37,"time_elapsed":781551,"internal_node_id":"0.0-3.0"},{"view_history":"[{\"page_index\":0,\"viewing_time\":1615},{\"page_index\":1,\"viewing_time\":4255}]","rt":5870,"trial_type":"instructions","trial_index":38,"time_elapsed":788422,"internal_node_id":"0.0-4.0"},{"group":"dicyclic group of order 12","fractal_assignment":["../images/grn_blu.png","../images/ylw_slt.png","../images/blu_wht.png","../images/ylw_pnk.png","../images/grn_prp.png","../images/red_prp.png","../images/org_blu.png","../images/cyn_red.png","../images/pnk_blu.png","../images/gry_blk.png","../images/grn_red.png","../images/wht_red.png"],"mutagen_generator_assignment":[1,0],"goal":7,"start":11,"action_noise":0.15,"location_history":"[11,4,8,5,10,7]","action_history":"[0,0,0,0,0]","mutagen_history":"[1,1,1,1,1]","location_rts":"[14843,363,354,350,355]","trial_type":"fractal-mutation","trial_index":39,"time_elapsed":814263,"internal_node_id":"0.0-5.0-0.0"},{"group":"dicyclic group of order 12","fractal_assignment":["../images/grn_blu.png","../images/ylw_slt.png","../images/blu_wht.png","../images/ylw_pnk.png","../images/grn_prp.png","../images/red_prp.png","../images/org_blu.png","../images/cyn_red.png","../images/pnk_blu.png","../images/gry_blk.png","../images/grn_red.png","../images/wht_red.png"],"mutagen_generator_assignment":[1,0],"goal":8,"start":7,"action_noise":0.15,"location_history":"[7,11,4,9,1,5,10,2,6,10,7,11,3,0,1,2,3,7,8]","action_history":"[1,1,1,1,1,1,1,1,1,0,0,0,0,0,0,0,0,0]","mutagen_history":"[0,0,0,0,0,0,0,0,0,1,1,1,1,1,1,1,1,1]","location_rts":"[1101,282,3,374,67,247,388,412,738,425,460,388,366,446,586,405,363,296]","trial_type":"fractal-mutation","trial_index":40,"time_elapsed":845668,"internal_node_id":"0.0-5.0-1.0"},{"group":"dicyclic group of order 12","fractal_assignment":["../images/grn_blu.png","../images/ylw_slt.png","../images/blu_wht.png","../images/ylw_pnk.png","../images/grn_prp.png","../images/red_prp.png","../images/org_blu.png","../images/cyn_red.png","../images/pnk_blu.png","../images/gry_blk.png","../images/grn_red.png","../images/wht_red.png"],"mutagen_generator_assignment":[1,0],"goal":4,"start":8,"action_noise":0.15,"location_history":"[8,5,9,6,11,4]","action_history":"[0,0,0,0,1]","mutagen_history":"[1,1,1,1,0]","location_rts":"[983,648,2245,693,504]","trial_type":"fractal-mutation","trial_index":41,"time_elapsed":860107,"internal_node_id":"0.0-5.0-2.0"},{"group":"dicyclic group of order 12","fractal_assignment":["../images/grn_blu.png","../images/ylw_slt.png","../images/blu_wht.png","../images/ylw_pnk.png","../images/grn_prp.png","../images/red_prp.png","../images/org_blu.png","../images/cyn_red.png","../images/pnk_blu.png","../images/gry_blk.png","../images/grn_red.png","../images/wht_red.png"],"mutagen_generator_assignment":[1,0],"goal":5,"start":4,"action_noise":0.15,"location_history":"[4,9,6,11,4,8,5]","action_history":"[0,0,0,0,0,0]","mutagen_history":"[1,1,1,1,1,1]","location_rts":"[1545,719,990,357,832,428]","trial_type":"fractal-mutation","trial_index":42,"time_elapsed":875660,"internal_node_id":"0.0-5.0-3.0"},{"group":"dicyclic group of order 12","fractal_assignment":["../images/grn_blu.png","../images/ylw_slt.png","../images/blu_wht.png","../images/ylw_pnk.png","../images/grn_prp.png","../images/red_prp.png","../images/org_blu.png","../images/cyn_red.png","../images/pnk_blu.png","../images/gry_blk.png","../images/grn_red.png","../images/wht_red.png"],"mutagen_generator_assignment":[1,0],"goal":10,"start":5,"action_noise":0.15,"location_history":"[5,10]","action_history":"[0]","mutagen_history":"[1]","location_rts":"[767]","trial_type":"fractal-mutation","trial_index":43,"time_elapsed":881113,"internal_node_id":"0.0-5.0-4.0"},{"group":"dicyclic group of order 12","fractal_assignment":["../images/grn_blu.png","../images/ylw_slt.png","../images/blu_wht.png","../images/ylw_pnk.png","../images/grn_prp.png","../images/red_prp.png","../images/org_blu.png","../images/cyn_red.png","../images/pnk_blu.png","../images/gry_blk.png","../images/grn_red.png","../images/wht_red.png"],"mutagen_generator_assignment":[1,0],"goal":1,"start":10,"action_noise":0.15,"location_history":"[10,2,3,7,11,4,8,5,9,6,10,2,6,10,2,6,11,4,9,6,11,4,9,1]","action_history":"[1,1,1,1,1,1,1,1,1,1,1,1,1,1,1,0,0,0,0,0,0,0,0]","mutagen_history":"[0,0,0,0,0,0,0,0,0,0,0,0,0,0,0,1,1,1,1,1,1,1,1]","location_rts":"[993,480,396,421,477,467,539,452,420,473,1623,887,314,515,415,313,345,350,306,393,282,241,349]","trial_type":"fractal-mutation","trial_index":44,"time_elapsed":920773,"internal_node_id":"0.0-5.0-5.0"},{"group":"dicyclic group of order 12","fractal_assignment":["../images/grn_blu.png","../images/ylw_slt.png","../images/blu_wht.png","../images/ylw_pnk.png","../images/grn_prp.png","../images/red_prp.png","../images/org_blu.png","../images/cyn_red.png","../images/pnk_blu.png","../images/gry_blk.png","../images/grn_red.png","../images/wht_red.png"],"mutagen_generator_assignment":[1,0],"goal":6,"start":1,"action_noise":0.15,"location_history":"[1,5,9,1,2,6]","action_history":"[1,1,1,1,1]","mutagen_history":"[0,0,0,0,0]","location_rts":"[1271,1015,358,775,1408]","trial_type":"fractal-mutation","trial_index":45,"time_elapsed":934151,"internal_node_id":"0.0-5.0-6.0"},{"group":"dicyclic group of order 12","fractal_assignment":["../images/grn_blu.png","../images/ylw_slt.png","../images/blu_wht.png","../images/ylw_pnk.png","../images/grn_prp.png","../images/red_prp.png","../images/org_blu.png","../images/cyn_red.png","../images/pnk_blu.png","../images/gry_blk.png","../images/grn_red.png","../images/wht_red.png"],"mutagen_generator_assignment":[1,0],"goal":9,"start":6,"action_noise":0.15,"location_history":"[6,10,2,6,11,3,0,4,9]","action_history":"[1,1,0,1,1,1,1,1]","mutagen_history":"[0,0,1,0,0,0,0,0]","location_rts":"[1149,360,320,332,413,285,280,343]","trial_type":"fractal-mutation","trial_index":46,"time_elapsed":949839,"internal_node_id":"0.0-5.0-7.0"},{"group":"dicyclic group of order 12","fractal_assignment":["../images/grn_blu.png","../images/ylw_slt.png","../images/blu_wht.png","../images/ylw_pnk.png","../images/grn_prp.png","../images/red_prp.png","../images/org_blu.png","../images/cyn_red.png","../images/pnk_blu.png","../images/gry_blk.png","../images/grn_red.png","../images/wht_red.png"],"mutagen_generator_assignment":[1,0],"goal":2,"start":9,"action_noise":0.15,"location_history":"[9,1,5,9,1,2]","action_history":"[1,1,1,1,1]","mutagen_history":"[0,0,0,0,0]","location_rts":"[1367,477,370,896,607]","trial_type":"fractal-mutation","trial_index":47,"time_elapsed":962096,"internal_node_id":"0.0-5.0-8.0"},{"group":"dicyclic group of order 12","fractal_assignment":["../images/grn_blu.png","../images/ylw_slt.png","../images/blu_wht.png","../images/ylw_pnk.png","../images/grn_prp.png","../images/red_prp.png","../images/org_blu.png","../images/cyn_red.png","../images/pnk_blu.png","../images/gry_blk.png","../images/grn_red.png","../images/wht_red.png"],"mutagen_generator_assignment":[1,0],"goal":0,"start":2,"action_noise":0.15,"location_history":"[2,3,0]","action_history":"[0,0]","mutagen_history":"[1,1]","location_rts":"[1292,356]","trial_type":"fractal-mutation","trial_index":48,"time_elapsed":969623,"internal_node_id":"0.0-5.0-9.0"},{"group":"dicyclic group of order 12","fractal_assignment":["../images/grn_blu.png","../images/ylw_slt.png","../images/blu_wht.png","../images/ylw_pnk.png","../images/grn_prp.png","../images/red_prp.png","../images/org_blu.png","../images/cyn_red.png","../images/pnk_blu.png","../images/gry_blk.png","../images/grn_red.png","../images/wht_red.png"],"mutagen_generator_assignment":[1,0],"goal":3,"start":0,"action_noise":0.15,"location_history":"[0,1,2,6,11,4,9,6,11,4,8,5,10,7,11,3]","action_history":"[0,0,0,0,0,0,0,0,0,0,0,0,0,1,1]","mutagen_history":"[1,1,1,1,1,1,1,1,1,1,1,1,1,0,0]","location_rts":"[1214,2194,606,262,357,296,342,482,457,420,638,993,580,375,550]","trial_type":"fractal-mutation","trial_index":49,"time_elapsed":1000620,"internal_node_id":"0.0-5.0-10.0"},{"group":"dicyclic group of order 12","fractal_assignment":["../images/grn_blu.png","../images/ylw_slt.png","../images/blu_wht.png","../images/ylw_pnk.png","../images/grn_prp.png","../images/red_prp.png","../images/org_blu.png","../images/cyn_red.png","../images/pnk_blu.png","../images/gry_blk.png","../images/grn_red.png","../images/wht_red.png"],"mutagen_generator_assignment":[1,0],"goal":10,"start":3,"action_noise":0.15,"location_history":"[3,7,11,3,7,11,3,0,4,8,0,4,8,5,10]","action_history":"[1,1,1,1,1,1,1,1,1,1,1,1,0,0]","mutagen_history":"[0,0,0,0,0,0,0,0,0,0,0,0,1,1]","location_rts":"[1087,341,276,481,312,290,309,171,265,419,443,561,344,309]","trial_type":"fractal-mutation","trial_index":50,"time_elapsed":1024225,"internal_node_id":"0.0-5.0-11.0"},{"group":"dicyclic group of order 12","fractal_assignment":["../images/grn_blu.png","../images/ylw_slt.png","../images/blu_wht.png","../images/ylw_pnk.png","../images/grn_prp.png","../images/red_prp.png","../images/org_blu.png","../images/cyn_red.png","../images/pnk_blu.png","../images/gry_blk.png","../images/grn_red.png","../images/wht_red.png"],"mutagen_generator_assignment":[1,0],"goal":8,"start":10,"action_noise":0.15,"location_history":"[10,7,8]","action_history":"[0,0]","mutagen_history":"[1,1]","location_rts":"[1222,248]","trial_type":"fractal-mutation","trial_index":51,"time_elapsed":1031578,"internal_node_id":"0.0-5.0-12.0"},{"group":"dicyclic group of order 12","fractal_assignment":["../images/grn_blu.png","../images/ylw_slt.png","../images/blu_wht.png","../images/ylw_pnk.png","../images/grn_prp.png","../images/red_prp.png","../images/org_blu.png","../images/cyn_red.png","../images/pnk_blu.png","../images/gry_blk.png","../images/grn_red.png","../images/wht_red.png"],"mutagen_generator_assignment":[1,0],"goal":4,"start":8,"action_noise":0.15,"location_history":"[8,0,4]","action_history":"[1,1]","mutagen_history":"[0,0]","location_rts":"[789,1198]","trial_type":"fractal-mutation","trial_index":52,"time_elapsed":1039093,"internal_node_id":"0.0-5.0-13.0"},{"group":"dicyclic group of order 12","fractal_assignment":["../images/grn_blu.png","../images/ylw_slt.png","../images/blu_wht.png","../images/ylw_pnk.png","../images/grn_prp.png","../images/red_prp.png","../images/org_blu.png","../images/cyn_red.png","../images/pnk_blu.png","../images/gry_blk.png","../images/grn_red.png","../images/wht_red.png"],"mutagen_generator_assignment":[1,0],"goal":0,"start":4,"action_noise":0.15,"location_history":"[4,8,0]","action_history":"[1,1]","mutagen_history":"[0,0]","location_rts":"[660,357]","trial_type":"fractal-mutation","trial_index":53,"time_elapsed":1045639,"internal_node_id":"0.0-5.0-14.0"},{"group":"dicyclic group of order 12","fractal_assignment":["../images/grn_blu.png","../images/ylw_slt.png","../images/blu_wht.png","../images/ylw_pnk.png","../images/grn_prp.png","../images/red_prp.png","../images/org_blu.png","../images/cyn_red.png","../images/pnk_blu.png","../images/gry_blk.png","../images/grn_red.png","../images/wht_red.png"],"mutagen_generator_assignment":[1,0],"goal":11,"start":0,"action_noise":0.15,"location_history":"[0,4,8,5,9,1,2,3,7,8,0,4,9,6,11]","action_history":"[1,1,1,1,1,1,0,0,0,0,0,0,0,0]","mutagen_history":"[0,0,0,0,0,0,1,1,1,1,1,1,1,1]","location_rts":"[1217,353,229,118,249,353,341,315,326,422,709,397,600,859]","trial_type":"fractal-mutation","trial_index":54,"time_elapsed":1071240,"internal_node_id":"0.0-5.0-15.0"},{"group":"dicyclic group of order 12","fractal_assignment":["../images/grn_blu.png","../images/ylw_slt.png","../images/blu_wht.png","../images/ylw_pnk.png","../images/grn_prp.png","../images/red_prp.png","../images/org_blu.png","../images/cyn_red.png","../images/pnk_blu.png","../images/gry_blk.png","../images/grn_red.png","../images/wht_red.png"],"mutagen_generator_assignment":[1,0],"goal":2,"start":11,"action_noise":0.15,"location_history":"[11,3,7,11,3,0,1,5,9,1,5,9,1,5,9,1,2]","action_history":"[1,1,1,1,1,1,1,1,1,1,1,1,1,1,1,0]","mutagen_history":"[0,0,0,0,0,0,0,0,0,0,0,0,0,0,0,1]","location_rts":"[935,904,555,431,785,561,996,602,399,462,496,835,1520,772,334,368]","trial_type":"fractal-mutation","trial_index":55,"time_elapsed":1102022,"internal_node_id":"0.0-5.0-16.0"},{"group":"dicyclic group of order 12","fractal_assignment":["../images/grn_blu.png","../images/ylw_slt.png","../images/blu_wht.png","../images/ylw_pnk.png","../images/grn_prp.png","../images/red_prp.png","../images/org_blu.png","../images/cyn_red.png","../images/pnk_blu.png","../images/gry_blk.png","../images/grn_red.png","../images/wht_red.png"],"mutagen_generator_assignment":[1,0],"goal":7,"start":2,"action_noise":0.15,"location_history":"[2,3,0,1,2,3,0,1,2,6,11,3,7]","action_history":"[0,0,0,0,0,0,0,0,0,0,1,1]","mutagen_history":"[1,1,1,1,1,1,1,1,1,1,0,0]","location_rts":"[892,429,309,623,373,360,521,265,360,550,349,2383]","trial_type":"fractal-mutation","trial_index":56,"time_elapsed":1127063,"internal_node_id":"0.0-5.0-17.0"},{"group":"dicyclic group of order 12","fractal_assignment":["../images/grn_blu.png","../images/ylw_slt.png","../images/blu_wht.png","../images/ylw_pnk.png","../images/grn_prp.png","../images/red_prp.png","../images/org_blu.png","../images/cyn_red.png","../images/pnk_blu.png","../images/gry_blk.png","../images/grn_red.png","../images/wht_red.png"],"mutagen_generator_assignment":[1,0],"goal":5,"start":7,"action_noise":0.15,"location_history":"[7,11,3,7,11,3,0,1,5]","action_history":"[1,1,1,1,1,1,1,1]","mutagen_history":"[0,0,0,0,0,0,0,0]","location_rts":"[1942,347,732,433,423,366,341,329]","trial_type":"fractal-mutation","trial_index":57,"time_elapsed":1143553,"internal_node_id":"0.0-5.0-18.0"},{"group":"dicyclic group of order 12","fractal_assignment":["../images/grn_blu.png","../images/ylw_slt.png","../images/blu_wht.png","../images/ylw_pnk.png","../images/grn_prp.png","../images/red_prp.png","../images/org_blu.png","../images/cyn_red.png","../images/pnk_blu.png","../images/gry_blk.png","../images/grn_red.png","../images/wht_red.png"],"mutagen_generator_assignment":[1,0],"goal":6,"start":5,"action_noise":0.15,"location_history":"[5,10,2,6]","action_history":"[0,1,1]","mutagen_history":"[1,0,0]","location_rts":"[1257,355,658]","trial_type":"fractal-mutation","trial_index":58,"time_elapsed":1152720,"internal_node_id":"0.0-5.0-19.0"},{"group":"dicyclic group of order 12","fractal_assignment":["../images/grn_blu.png","../images/ylw_slt.png","../images/blu_wht.png","../images/ylw_pnk.png","../images/grn_prp.png","../images/red_prp.png","../images/org_blu.png","../images/cyn_red.png","../images/pnk_blu.png","../images/gry_blk.png","../images/grn_red.png","../images/wht_red.png"],"mutagen_generator_assignment":[1,0],"goal":3,"start":6,"action_noise":0.15,"location_history":"[6,10,2,3]","action_history":"[1,1,1]","mutagen_history":"[0,0,0]","location_rts":"[996,365,685]","trial_type":"fractal-mutation","trial_index":59,"time_elapsed":1161298,"internal_node_id":"0.0-5.0-20.0"},{"group":"dicyclic group of order 12","fractal_assignment":["../images/grn_blu.png","../images/ylw_slt.png","../images/blu_wht.png","../images/ylw_pnk.png","../images/grn_prp.png","../images/red_prp.png","../images/org_blu.png","../images/cyn_red.png","../images/pnk_blu.png","../images/gry_blk.png","../images/grn_red.png","../images/wht_red.png"],"mutagen_generator_assignment":[1,0],"goal":1,"start":3,"action_noise":0.15,"location_history":"[3,0,1]","action_history":"[0,0]","mutagen_history":"[1,1]","location_rts":"[1126,421]","trial_type":"fractal-mutation","trial_index":60,"time_elapsed":1168716,"internal_node_id":"0.0-5.0-21.0"},{"group":"dicyclic group of order 12","fractal_assignment":["../images/grn_blu.png","../images/ylw_slt.png","../images/blu_wht.png","../images/ylw_pnk.png","../images/grn_prp.png","../images/red_prp.png","../images/org_blu.png","../images/cyn_red.png","../images/pnk_blu.png","../images/gry_blk.png","../images/grn_red.png","../images/wht_red.png"],"mutagen_generator_assignment":[1,0],"goal":9,"start":1,"action_noise":0.15,"location_history":"[1,5,9]","action_history":"[1,1]","mutagen_history":"[0,0]","location_rts":"[1893,420]","trial_type":"fractal-mutation","trial_index":61,"time_elapsed":1176543,"internal_node_id":"0.0-5.0-22.0"},{"group":"dicyclic group of order 12","fractal_assignment":["../images/grn_blu.png","../images/ylw_slt.png","../images/blu_wht.png","../images/ylw_pnk.png","../images/grn_prp.png","../images/red_prp.png","../images/org_blu.png","../images/cyn_red.png","../images/pnk_blu.png","../images/gry_blk.png","../images/grn_red.png","../images/wht_red.png"],"mutagen_generator_assignment":[1,0],"goal":3,"start":9,"action_noise":0.15,"location_history":"[9,6,10,2,3]","action_history":"[0,1,0,0]","mutagen_history":"[1,0,1,1]","location_rts":"[752,346,361,650]","trial_type":"fractal-mutation","trial_index":62,"time_elapsed":1186838,"internal_node_id":"0.0-5.0-23.0"},{"group":"dicyclic group of order 12","fractal_assignment":["../images/grn_blu.png","../images/ylw_slt.png","../images/blu_wht.png","../images/ylw_pnk.png","../images/grn_prp.png","../images/red_prp.png","../images/org_blu.png","../images/cyn_red.png","../images/pnk_blu.png","../images/gry_blk.png","../images/grn_red.png","../images/wht_red.png"],"mutagen_generator_assignment":[1,0],"goal":4,"start":3,"action_noise":0.15,"location_history":"[3,0,4]","action_history":"[0,1]","mutagen_history":"[1,0]","location_rts":"[679,518]","trial_type":"fractal-mutation","trial_index":63,"time_elapsed":1193833,"internal_node_id":"0.0-5.0-24.0"},{"group":"dicyclic group of order 12","fractal_assignment":["../images/grn_blu.png","../images/ylw_slt.png","../images/blu_wht.png","../images/ylw_pnk.png","../images/grn_prp.png","../images/red_prp.png","../images/org_blu.png","../images/cyn_red.png","../images/pnk_blu.png","../images/gry_blk.png","../images/grn_red.png","../images/wht_red.png"],"mutagen_generator_assignment":[1,0],"goal":2,"start":4,"action_noise":0.15,"location_history":"[4,8,0,4,8,0,4,8,5,10,7,11,3,7,11,3,0,1,2]","action_history":"[1,1,1,1,1,1,1,1,1,1,1,1,1,1,1,0,0,0]","mutagen_history":"[0,0,0,0,0,0,0,0,0,0,0,0,0,0,0,1,1,1]","location_rts":"[1198,852,879,782,548,636,785,777,599,588,449,916,664,932,132,860,638,456]","trial_type":"fractal-mutation","trial_index":64,"time_elapsed":1228758,"internal_node_id":"0.0-5.0-25.0"},{"group":"dicyclic group of order 12","fractal_assignment":["../images/grn_blu.png","../images/ylw_slt.png","../images/blu_wht.png","../images/ylw_pnk.png","../images/grn_prp.png","../images/red_prp.png","../images/org_blu.png","../images/cyn_red.png","../images/pnk_blu.png","../images/gry_blk.png","../images/grn_red.png","../images/wht_red.png"],"mutagen_generator_assignment":[1,0],"goal":1,"start":2,"action_noise":0.15,"location_history":"[2,6,10,7,11,3,7,11,4,9,6,11,3,0,1]","action_history":"[1,1,1,1,1,1,1,0,0,0,0,0,0,0]","mutagen_history":"[0,0,0,0,0,0,0,1,1,1,1,1,1,1]","location_rts":"[881,583,310,767,599,369,313,205,392,668,269,376,432,721]","trial_type":"fractal-mutation","trial_index":65,"time_elapsed":1254565,"internal_node_id":"0.0-5.0-26.0"},{"group":"dicyclic group of order 12","fractal_assignment":["../images/grn_blu.png","../images/ylw_slt.png","../images/blu_wht.png","../images/ylw_pnk.png","../images/grn_prp.png","../images/red_prp.png","../images/org_blu.png","../images/cyn_red.png","../images/pnk_blu.png","../images/gry_blk.png","../images/grn_red.png","../images/wht_red.png"],"mutagen_generator_assignment":[1,0],"goal":8,"start":1,"action_noise":0.15,"location_history":"[1,2,3,7,8]","action_history":"[0,0,0,0]","mutagen_history":"[1,1,1,1]","location_rts":"[1182,204,334,831]","trial_type":"fractal-mutation","trial_index":66,"time_elapsed":1265371,"internal_node_id":"0.0-5.0-27.0"},{"group":"dicyclic group of order 12","fractal_assignment":["../images/grn_blu.png","../images/ylw_slt.png","../images/blu_wht.png","../images/ylw_pnk.png","../images/grn_prp.png","../images/red_prp.png","../images/org_blu.png","../images/cyn_red.png","../images/pnk_blu.png","../images/gry_blk.png","../images/grn_red.png","../images/wht_red.png"],"mutagen_generator_assignment":[1,0],"goal":10,"start":8,"action_noise":0.15,"location_history":"[8,0,4,8,0,1,5,9,1,2,6,10]","action_history":"[1,1,1,1,1,1,1,1,1,1,1]","mutagen_history":"[0,0,0,0,0,0,0,0,0,0,0]","location_rts":"[1231,1220,1943,1414,1080,353,610,329,289,376,741]","trial_type":"fractal-mutation","trial_index":67,"time_elapsed":1289555,"internal_node_id":"0.0-5.0-28.0"},{"group":"dicyclic group of order 12","fractal_assignment":["../images/grn_blu.png","../images/ylw_slt.png","../images/blu_wht.png","../images/ylw_pnk.png","../images/grn_prp.png","../images/red_prp.png","../images/org_blu.png","../images/cyn_red.png","../images/pnk_blu.png","../images/gry_blk.png","../images/grn_red.png","../images/wht_red.png"],"mutagen_generator_assignment":[1,0],"goal":7,"start":10,"action_noise":0.15,"location_history":"[10,2,3,7]","action_history":"[0,0,1]","mutagen_history":"[1,1,0]","location_rts":"[28299,1432,1357]","trial_type":"fractal-mutation","trial_index":68,"time_elapsed":1327630,"internal_node_id":"0.0-5.0-29.0"},{"group":"dicyclic group of order 12","fractal_assignment":["../images/grn_blu.png","../images/ylw_slt.png","../images/blu_wht.png","../images/ylw_pnk.png","../images/grn_prp.png","../images/red_prp.png","../images/org_blu.png","../images/cyn_red.png","../images/pnk_blu.png","../images/gry_blk.png","../images/grn_red.png","../images/wht_red.png"],"mutagen_generator_assignment":[1,0],"goal":6,"start":7,"action_noise":0.15,"location_history":"[7,11,3,7,11,3,7,8,0,4,8,0,1,5,10,7,8,5,10,7,8,0,4,9,6]","action_history":"[1,1,1,1,1,1,1,1,1,1,1,0,0,0,0,0,0,0,0,0,1,1,1,1]","mutagen_history":"[0,0,0,0,0,0,0,0,0,0,0,1,1,1,1,1,1,1,1,1,0,0,0,0]","location_rts":"[875,521,460,431,401,566,393,398,669,826,507,981,411,1188,721,389,1375,1286,363,601,111,1060,261,536]","trial_type":"fractal-mutation","trial_index":69,"time_elapsed":1372711,"internal_node_id":"0.0-5.0-30.0"},{"group":"dicyclic group of order 12","fractal_assignment":["../images/grn_blu.png","../images/ylw_slt.png","../images/blu_wht.png","../images/ylw_pnk.png","../images/grn_prp.png","../images/red_prp.png","../images/org_blu.png","../images/cyn_red.png","../images/pnk_blu.png","../images/gry_blk.png","../images/grn_red.png","../images/wht_red.png"],"mutagen_generator_assignment":[1,0],"goal":0,"start":6,"action_noise":0.15,"location_history":"[6,11,4,9,6,11,4,9,6,11,4,9,6,11,4,9,6,11,4,9,1,5,9,6,10,7,11,3,7,8,0]","action_history":"[0,0,0,0,0,0,0,0,0,0,0,0,0,0,0,0,0,0,0,0,1,1,1,1,1,1,1,1,1,1]","mutagen_history":"[1,1,1,1,1,1,1,1,1,1,1,1,1,1,1,1,1,1,1,1,0,0,0,0,0,0,0,0,0,0]","location_rts":"[761,312,460,448,794,395,239,820,1290,437,711,519,893,578,772,457,314,307,740,807,289,342,374,366,329,567,316,294,298,314]","trial_type":"fractal-mutation","trial_index":70,"time_elapsed":1426612,"internal_node_id":"0.0-5.0-31.0"},{"group":"dicyclic group of order 12","fractal_assignment":["../images/grn_blu.png","../images/ylw_slt.png","../images/blu_wht.png","../images/ylw_pnk.png","../images/grn_prp.png","../images/red_prp.png","../images/org_blu.png","../images/cyn_red.png","../images/pnk_blu.png","../images/gry_blk.png","../images/grn_red.png","../images/wht_red.png"],"mutagen_generator_assignment":[1,0],"goal":11,"start":0,"action_noise":0.15,"location_history":"[0,4,8,0,4,9,1,5,9,1,5,10,2,6,10,7,8,5,9,6,11]","action_history":"[1,0,1,1,1,1,1,1,1,1,1,1,1,1,0,0,0,0,0,0]","mutagen_history":"[0,1,0,0,0,0,0,0,0,0,0,0,0,0,1,1,1,1,1,1]","location_rts":"[1867,550,307,591,614,284,389,164,361,884,564,929,341,282,190,2357,737,531,245,832]","trial_type":"fractal-mutation","trial_index":71,"time_elapsed":1465686,"internal_node_id":"0.0-5.0-32.0"},{"group":"dicyclic group of order 12","fractal_assignment":["../images/grn_blu.png","../images/ylw_slt.png","../images/blu_wht.png","../images/ylw_pnk.png","../images/grn_prp.png","../images/red_prp.png","../images/org_blu.png","../images/cyn_red.png","../images/pnk_blu.png","../images/gry_blk.png","../images/grn_red.png","../images/wht_red.png"],"mutagen_generator_assignment":[1,0],"goal":9,"start":11,"action_noise":0.15,"location_history":"[11,3,7,11,4,8,0,4,8,0,4,8,0,4,8,0,4,8,0,4,8,0,4,9]","action_history":"[1,1,1,1,1,1,1,1,1,1,1,1,1,1,1,1,1,1,1,1,1,1,0]","mutagen_history":"[0,0,0,0,0,0,0,0,0,0,0,0,0,0,0,0,0,0,0,0,0,0,1]","location_rts":"[1179,731,370,333,455,881,210,844,601,676,186,396,421,478,255,1003,765,41,139,217,531,269,325]","trial_type":"fractal-mutation","trial_index":72,"time_elapsed":1503914,"internal_node_id":"0.0-5.0-33.0"},{"group":"dicyclic group of order 12","fractal_assignment":["../images/grn_blu.png","../images/ylw_slt.png","../images/blu_wht.png","../images/ylw_pnk.png","../images/grn_prp.png","../images/red_prp.png","../images/org_blu.png","../images/cyn_red.png","../images/pnk_blu.png","../images/gry_blk.png","../images/grn_red.png","../images/wht_red.png"],"mutagen_generator_assignment":[1,0],"goal":5,"start":9,"action_noise":0.15,"location_history":"[9,1,2,3,0,1,2,3,0,4,8,0,4,9,6,11,3,0,1,2,6,10,2,6,11,4,9,1,2,3,7,8,0,1,5]","action_history":"[1,0,0,0,0,0,0,0,1,1,1,1,1,0,0,1,0,0,0,1,1,1,1,0,0,0,0,0,0,1,0,1,0,1]","mutagen_history":"[0,1,1,1,1,1,1,1,0,0,0,0,0,1,1,0,1,1,1,0,0,0,0,1,1,1,1,1,1,0,1,0,1,0]","location_rts":"[697,354,45,238,619,531,202,875,347,355,397,316,283,373,472,443,398,919,328,392,852,365,560,108,689,400,354,228,294,959,386,332,290,273]","trial_type":"fractal-mutation","trial_index":73,"time_elapsed":1561216,"internal_node_id":"0.0-5.0-34.0"},{"view_history":"[{\"page_index\":0,\"viewing_time\":10024}]","rt":10024,"trial_type":"instructions","trial_index":74,"time_elapsed":1572241,"internal_node_id":"0.0-6.0"},{"rt":1486,"responses":"{\"Q0\":\"\"}","trial_type":"survey-text","trial_index":75,"time_elapsed":1574732,"internal_node_id":"0.0-7.0"}]