[{"view_history":"[{\"page_index\":0,\"viewing_time\":496693},{\"page_index\":1,\"viewing_time\":4693}]","rt":501386,"trial_type":"instructions","trial_index":0,"time_elapsed":501387,"internal_node_id":"0.0-0.0"},{"view_history":"[{\"page_index\":0,\"viewing_time\":4803},{\"page_index\":1,\"viewing_time\":5264}]","rt":10068,"trial_type":"instructions","trial_index":1,"time_elapsed":512456,"internal_node_id":"0.0-1.0"},{"group":"dicyclic group of order 12","room_assignment":["red","purple","blue","grey","green","olive","cyan","ivory","yellow","pink","brown","orange"],"door_color_assignment":["white","black"],"door_generator_assignment":[1,0],"goal":7,"start":11,"action_noise":0.15,"location_history":"[11,3,0,1,2,6,11,4,9,1,2,6,10,2,3,0,4,9,6,10,2,3,0,4,8,0,4,9,1,5,9,1,2,3,7]","action_history":"[1,1,0,0,1,0,1,0,1,0,0,0,1,0,0,1,0,0,1,1,0,0,1,1,1,1,0,1,1,1,0,0,0,1]","door_history":"[0,0,1,1,0,1,0,1,0,1,1,1,0,1,1,0,1,1,0,0,1,1,0,0,0,0,1,0,0,0,1,1,1,0]","location_rts":"[2323,691,469,739,494,443,361,345,518,1665,297,379,424,755,322,552,461,743,836,330,494,303,688,423,309,375,348,400,370,399,378,335,605,175]","trial_type":"two-door-navigation","trial_index":2,"time_elapsed":569464,"internal_node_id":"0.0-2.0-0.0"},{"group":"dicyclic group of order 12","room_assignment":["red","purple","blue","grey","green","olive","cyan","ivory","yellow","pink","brown","orange"],"door_color_assignment":["white","black"],"door_generator_assignment":[1,0],"goal":8,"start":7,"action_noise":0.15,"location_history":"[7,11,3,0,1,5,10,2,6,10,2,6,10,7,8]","action_history":"[1,1,0,1,1,0,1,1,1,0,1,1,0,1]","door_history":"[0,0,1,0,0,1,0,0,0,1,0,0,1,0]","location_rts":"[2957,712,731,524,383,720,331,334,714,260,330,304,331,273]","trial_type":"two-door-navigation","trial_index":3,"time_elapsed":596190,"internal_node_id":"0.0-2.0-1.0"},{"group":"dicyclic group of order 12","room_assignment":["red","purple","blue","grey","green","olive","cyan","ivory","yellow","pink","brown","orange"],"door_color_assignment":["white","black"],"door_generator_assignment":[1,0],"goal":4,"start":8,"action_noise":0.15,"location_history":"[8,5,10,2,3,7,8,0,4]","action_history":"[0,0,1,1,1,0,1,1]","door_history":"[1,1,0,0,0,1,0,0]","location_rts":"[1422,341,412,431,368,623,385,370]","trial_type":"two-door-navigation","trial_index":4,"time_elapsed":612226,"internal_node_id":"0.0-2.0-2.0"},{"group":"dicyclic group of order 12","room_assignment":["red","purple","blue","grey","green","olive","cyan","ivory","yellow","pink","brown","orange"],"door_color_assignment":["white","black"],"door_generator_assignment":[1,0],"goal":5,"start":4,"action_noise":0.15,"location_history":"[4,8,0,4,9,1,5]","action_history":"[1,1,1,0,1,1]","door_history":"[0,0,0,1,0,0]","location_rts":"[2446,611,462,977,930,372]","trial_type":"two-door-navigation","trial_index":5,"time_elapsed":627667,"internal_node_id":"0.0-2.0-3.0"},{"group":"dicyclic group of order 12","room_assignment":["red","purple","blue","grey","green","olive","cyan","ivory","yellow","pink","brown","orange"],"door_color_assignment":["white","black"],"door_generator_assignment":[1,0],"goal":10,"start":5,"action_noise":0.15,"location_history":"[5,9,6,11,4,9,1,5,10]","action_history":"[1,0,0,0,1,1,1,0]","door_history":"[0,1,1,1,0,0,0,1]","location_rts":"[2513,1564,477,1024,775,431,611,690]","trial_type":"two-door-navigation","trial_index":6,"time_elapsed":647446,"internal_node_id":"0.0-2.0-4.0"},{"group":"dicyclic group of order 12","room_assignment":["red","purple","blue","grey","green","olive","cyan","ivory","yellow","pink","brown","orange"],"door_color_assignment":["white","black"],"door_generator_assignment":[1,0],"goal":1,"start":10,"action_noise":0.15,"location_history":"[10,7,8,0,4,8,0,1]","action_history":"[1,0,1,1,1,1,1]","door_history":"[0,1,0,0,0,0,0]","location_rts":"[1214,764,792,604,482,751,534]","trial_type":"two-door-navigation","trial_index":7,"time_elapsed":663257,"internal_node_id":"0.0-2.0-5.0"},{"group":"dicyclic group of order 12","room_assignment":["red","purple","blue","grey","green","olive","cyan","ivory","yellow","pink","brown","orange"],"door_color_assignment":["white","black"],"door_generator_assignment":[1,0],"goal":6,"start":1,"action_noise":0.15,"location_history":"[1,2,6]","action_history":"[0,1]","door_history":"[1,0]","location_rts":"[2097,1319]","trial_type":"two-door-navigation","trial_index":8,"time_elapsed":672227,"internal_node_id":"0.0-2.0-6.0"},{"group":"dicyclic group of order 12","room_assignment":["red","purple","blue","grey","green","olive","cyan","ivory","yellow","pink","brown","orange"],"door_color_assignment":["white","black"],"door_generator_assignment":[1,0],"goal":9,"start":6,"action_noise":0.15,"location_history":"[6,11,3,7,11,3,0,1,2,3,7,8,0,4,9]","action_history":"[0,1,1,1,1,1,0,0,0,1,1,1,1,0]","door_history":"[1,0,0,0,0,0,1,1,1,0,0,0,0,1]","location_rts":"[2224,1096,473,451,355,424,936,1359,618,1062,631,391,412,692]","trial_type":"two-door-navigation","trial_index":9,"time_elapsed":701133,"internal_node_id":"0.0-2.0-7.0"},{"group":"dicyclic group of order 12","room_assignment":["red","purple","blue","grey","green","olive","cyan","ivory","yellow","pink","brown","orange"],"door_color_assignment":["white","black"],"door_generator_assignment":[1,0],"goal":2,"start":9,"action_noise":0.15,"location_history":"[9,6,11,4,8,0,4,9,6,10,2]","action_history":"[0,0,0,1,1,1,1,0,1,1]","door_history":"[1,1,1,0,0,0,0,1,0,0]","location_rts":"[2190,737,1117,508,353,349,428,1015,547,375]","trial_type":"two-door-navigation","trial_index":10,"time_elapsed":722483,"internal_node_id":"0.0-2.0-8.0"},{"group":"dicyclic group of order 12","room_assignment":["red","purple","blue","grey","green","olive","cyan","ivory","yellow","pink","brown","orange"],"door_color_assignment":["white","black"],"door_generator_assignment":[1,0],"goal":0,"start":2,"action_noise":0.15,"location_history":"[2,3,0]","action_history":"[0,0]","door_history":"[1,1]","location_rts":"[1910,798]","trial_type":"two-door-navigation","trial_index":11,"time_elapsed":730746,"internal_node_id":"0.0-2.0-9.0"},{"group":"dicyclic group of order 12","room_assignment":["red","purple","blue","grey","green","olive","cyan","ivory","yellow","pink","brown","orange"],"door_color_assignment":["white","black"],"door_generator_assignment":[1,0],"goal":3,"start":0,"action_noise":0.15,"location_history":"[0,4,8,5,9,1,5,10,7,11,4,8,5,9,6,11,4,8,0,4,9,1,5,10,2,6,10,2,3]","action_history":"[0,0,0,1,1,1,0,1,1,1,0,1,1,0,0,0,1,1,1,0,1,1,0,1,1,1,1,0]","door_history":"[1,1,1,0,0,0,1,0,0,0,1,0,0,1,1,1,0,0,0,1,0,0,1,0,0,0,0,1]","location_rts":"[1638,364,713,415,411,381,730,360,641,382,464,321,600,433,425,379,438,309,670,490,471,380,299,439,391,377,378,382]","trial_type":"two-door-navigation","trial_index":12,"time_elapsed":776515,"internal_node_id":"0.0-2.0-10.0"},{"group":"dicyclic group of order 12","room_assignment":["red","purple","blue","grey","green","olive","cyan","ivory","yellow","pink","brown","orange"],"door_color_assignment":["white","black"],"door_generator_assignment":[1,0],"goal":10,"start":3,"action_noise":0.15,"location_history":"[3,0,4,9,1,5,10]","action_history":"[1,0,0,1,1,0]","door_history":"[0,1,1,0,0,1]","location_rts":"[1246,595,375,422,397,648]","trial_type":"two-door-navigation","trial_index":13,"time_elapsed":789839,"internal_node_id":"0.0-2.0-11.0"},{"group":"dicyclic group of order 12","room_assignment":["red","purple","blue","grey","green","olive","cyan","ivory","yellow","pink","brown","orange"],"door_color_assignment":["white","black"],"door_generator_assignment":[1,0],"goal":8,"start":10,"action_noise":0.15,"location_history":"[10,2,3,0,1,2,6,10,7,11,4,8]","action_history":"[1,1,1,0,0,1,1,0,1,0,1]","door_history":"[0,0,0,1,1,0,0,1,0,1,0]","location_rts":"[1054,360,411,344,451,184,394,340,938,1221,547]","trial_type":"two-door-navigation","trial_index":14,"time_elapsed":810796,"internal_node_id":"0.0-2.0-12.0"},{"group":"dicyclic group of order 12","room_assignment":["red","purple","blue","grey","green","olive","cyan","ivory","yellow","pink","brown","orange"],"door_color_assignment":["white","black"],"door_generator_assignment":[1,0],"goal":4,"start":8,"action_noise":0.15,"location_history":"[8,5,10,2,6,10,2,3,7,8,5,9,1,2,6,10,2,3,7,8,0,4]","action_history":"[1,1,1,1,1,1,0,1,1,0,1,1,0,1,1,1,0,1,0,1,1]","door_history":"[0,0,0,0,0,0,1,0,0,1,0,0,1,0,0,0,1,0,1,0,0]","location_rts":"[3175,458,316,377,864,854,325,340,351,318,317,806,325,418,447,358,725,836,385,482,359]","trial_type":"two-door-navigation","trial_index":15,"time_elapsed":848562,"internal_node_id":"0.0-2.0-13.0"},{"group":"dicyclic group of order 12","room_assignment":["red","purple","blue","grey","green","olive","cyan","ivory","yellow","pink","brown","orange"],"door_color_assignment":["white","black"],"door_generator_assignment":[1,0],"goal":0,"start":4,"action_noise":0.15,"location_history":"[4,8,0]","action_history":"[0,0]","door_history":"[1,1]","location_rts":"[1510,598]","trial_type":"two-door-navigation","trial_index":16,"time_elapsed":856221,"internal_node_id":"0.0-2.0-14.0"},{"group":"dicyclic group of order 12","room_assignment":["red","purple","blue","grey","green","olive","cyan","ivory","yellow","pink","brown","orange"],"door_color_assignment":["white","black"],"door_generator_assignment":[1,0],"goal":11,"start":0,"action_noise":0.15,"location_history":"[0,4,8,5,9,1,2,6,11]","action_history":"[1,1,0,1,1,0,1,1]","door_history":"[0,0,1,0,0,1,0,0]","location_rts":"[1732,418,402,318,447,317,322,285]","trial_type":"two-door-navigation","trial_index":17,"time_elapsed":872121,"internal_node_id":"0.0-2.0-15.0"},{"group":"dicyclic group of order 12","room_assignment":["red","purple","blue","grey","green","olive","cyan","ivory","yellow","pink","brown","orange"],"door_color_assignment":["white","black"],"door_generator_assignment":[1,0],"goal":2,"start":11,"action_noise":0.15,"location_history":"[11,3,0,4,9,6,10,7,8,0,4,8,0,1,2]","action_history":"[0,0,1,1,1,1,0,1,1,1,1,1,0,1]","door_history":"[1,1,0,0,0,0,1,0,0,0,0,0,1,0]","location_rts":"[1957,991,1185,377,321,813,353,483,327,329,898,288,497,395]","trial_type":"two-door-navigation","trial_index":18,"time_elapsed":899144,"internal_node_id":"0.0-2.0-16.0"},{"group":"dicyclic group of order 12","room_assignment":["red","purple","blue","grey","green","olive","cyan","ivory","yellow","pink","brown","orange"],"door_color_assignment":["white","black"],"door_generator_assignment":[1,0],"goal":7,"start":2,"action_noise":0.15,"location_history":"[2,6,10,2,3,7]","action_history":"[0,1,1,1,0]","door_history":"[1,0,0,0,1]","location_rts":"[2205,463,378,393,905]","trial_type":"two-door-navigation","trial_index":19,"time_elapsed":912102,"internal_node_id":"0.0-2.0-17.0"},{"group":"dicyclic group of order 12","room_assignment":["red","purple","blue","grey","green","olive","cyan","ivory","yellow","pink","brown","orange"],"door_color_assignment":["white","black"],"door_generator_assignment":[1,0],"goal":5,"start":7,"action_noise":0.15,"location_history":"[7,11,3,7,8,0,4,8,0,1,5]","action_history":"[1,1,1,0,1,1,1,1,0,1]","door_history":"[0,0,0,1,0,0,0,0,1,0]","location_rts":"[1942,670,407,356,376,421,447,1286,356,424]","trial_type":"two-door-navigation","trial_index":20,"time_elapsed":932491,"internal_node_id":"0.0-2.0-18.0"},{"group":"dicyclic group of order 12","room_assignment":["red","purple","blue","grey","green","olive","cyan","ivory","yellow","pink","brown","orange"],"door_color_assignment":["white","black"],"door_generator_assignment":[1,0],"goal":6,"start":5,"action_noise":0.15,"location_history":"[5,10,2,6]","action_history":"[1,1,1]","door_history":"[0,0,0]","location_rts":"[1599,259,409]","trial_type":"two-door-navigation","trial_index":21,"time_elapsed":941326,"internal_node_id":"0.0-2.0-19.0"},{"group":"dicyclic group of order 12","room_assignment":["red","purple","blue","grey","green","olive","cyan","ivory","yellow","pink","brown","orange"],"door_color_assignment":["white","black"],"door_generator_assignment":[1,0],"goal":3,"start":6,"action_noise":0.15,"location_history":"[6,10,2,6,10,2,3]","action_history":"[1,1,1,1,0,1]","door_history":"[0,0,0,0,1,0]","location_rts":"[1764,304,293,427,307,300]","trial_type":"two-door-navigation","trial_index":22,"time_elapsed":954358,"internal_node_id":"0.0-2.0-20.0"},{"group":"dicyclic group of order 12","room_assignment":["red","purple","blue","grey","green","olive","cyan","ivory","yellow","pink","brown","orange"],"door_color_assignment":["white","black"],"door_generator_assignment":[1,0],"goal":1,"start":3,"action_noise":0.15,"location_history":"[3,7,11,3,7,8,0,4,8,0,4,8,0,1]","action_history":"[1,1,1,1,0,1,1,1,1,0,1,1,0]","door_history":"[0,0,0,0,1,0,0,0,0,1,0,0,1]","location_rts":"[2051,267,294,282,277,341,337,335,336,242,479,380,217]","trial_type":"two-door-navigation","trial_index":23,"time_elapsed":976972,"internal_node_id":"0.0-2.0-21.0"},{"group":"dicyclic group of order 12","room_assignment":["red","purple","blue","grey","green","olive","cyan","ivory","yellow","pink","brown","orange"],"door_color_assignment":["white","black"],"door_generator_assignment":[1,0],"goal":9,"start":1,"action_noise":0.15,"location_history":"[1,2,3,7,11,3,0,4,8,0,1,2,6,10,7,11,3,7,8,0,4,8,5,9]","action_history":"[0,1,1,1,1,0,1,1,1,0,1,1,1,0,1,1,1,0,1,1,1,0,1]","door_history":"[1,0,0,0,0,1,0,0,0,1,0,0,0,1,0,0,0,1,0,0,0,1,0]","location_rts":"[1962,604,460,345,482,367,455,360,347,216,251,338,280,290,401,359,488,377,262,349,638,332,521]","trial_type":"two-door-navigation","trial_index":24,"time_elapsed":1014458,"internal_node_id":"0.0-2.0-22.0"},{"group":"dicyclic group of order 12","room_assignment":["red","purple","blue","grey","green","olive","cyan","ivory","yellow","pink","brown","orange"],"door_color_assignment":["white","black"],"door_generator_assignment":[1,0],"goal":3,"start":9,"action_noise":0.15,"location_history":"[9,1,5,9,1,5,9,1,5,9,6,10,2,6,11,3]","action_history":"[0,1,1,1,0,1,0,0,1,0,1,1,1,0,1]","door_history":"[1,0,0,0,1,0,1,1,0,1,0,0,0,1,0]","location_rts":"[3013,1573,298,435,61,486,446,801,888,807,1025,480,524,442,820]","trial_type":"two-door-navigation","trial_index":25,"time_elapsed":1045378,"internal_node_id":"0.0-2.0-23.0"},{"group":"dicyclic group of order 12","room_assignment":["red","purple","blue","grey","green","olive","cyan","ivory","yellow","pink","brown","orange"],"door_color_assignment":["white","black"],"door_generator_assignment":[1,0],"goal":4,"start":3,"action_noise":0.15,"location_history":"[3,0,4]","action_history":"[0,1]","door_history":"[1,0]","location_rts":"[2613,832]","trial_type":"two-door-navigation","trial_index":26,"time_elapsed":1054368,"internal_node_id":"0.0-2.0-24.0"},{"group":"dicyclic group of order 12","room_assignment":["red","purple","blue","grey","green","olive","cyan","ivory","yellow","pink","brown","orange"],"door_color_assignment":["white","black"],"door_generator_assignment":[1,0],"goal":2,"start":4,"action_noise":0.15,"location_history":"[4,9,1,5,9,6,10,2]","action_history":"[0,0,1,1,0,1,1]","door_history":"[1,1,0,0,1,0,0]","location_rts":"[1525,639,2017,350,681,1004,423]","trial_type":"two-door-navigation","trial_index":27,"time_elapsed":1071664,"internal_node_id":"0.0-2.0-25.0"},{"group":"dicyclic group of order 12","room_assignment":["red","purple","blue","grey","green","olive","cyan","ivory","yellow","pink","brown","orange"],"door_color_assignment":["white","black"],"door_generator_assignment":[1,0],"goal":1,"start":2,"action_noise":0.15,"location_history":"[2,3,0,1]","action_history":"[0,0,0]","door_history":"[1,1,1]","location_rts":"[2577,1284,647]","trial_type":"two-door-navigation","trial_index":28,"time_elapsed":1082745,"internal_node_id":"0.0-2.0-26.0"},{"group":"dicyclic group of order 12","room_assignment":["red","purple","blue","grey","green","olive","cyan","ivory","yellow","pink","brown","orange"],"door_color_assignment":["white","black"],"door_generator_assignment":[1,0],"goal":8,"start":1,"action_noise":0.15,"location_history":"[1,2,3,0,1,2,6,10,2,3,7,11,4,8]","action_history":"[0,0,0,0,0,1,1,0,1,1,1,0,1]","door_history":"[1,1,1,1,1,0,0,1,0,0,0,1,0]","location_rts":"[1419,1289,1191,2181,2974,519,413,935,511,580,337,558,1317]","trial_type":"two-door-navigation","trial_index":29,"time_elapsed":1113755,"internal_node_id":"0.0-2.0-27.0"},{"group":"dicyclic group of order 12","room_assignment":["red","purple","blue","grey","green","olive","cyan","ivory","yellow","pink","brown","orange"],"door_color_assignment":["white","black"],"door_generator_assignment":[1,0],"goal":10,"start":8,"action_noise":0.15,"location_history":"[8,5,9,1,5,9,6,11,3,7,11,3,0,1,2,6,10]","action_history":"[0,1,1,1,1,0,1,1,1,1,0,0,0,0,1,1]","door_history":"[1,0,0,0,0,1,0,0,0,0,1,1,1,1,0,0]","location_rts":"[1665,869,497,402,4111,1192,1490,1198,579,1094,591,1497,1292,3709,523,455]","trial_type":"two-door-navigation","trial_index":30,"time_elapsed":1154781,"internal_node_id":"0.0-2.0-28.0"},{"group":"dicyclic group of order 12","room_assignment":["red","purple","blue","grey","green","olive","cyan","ivory","yellow","pink","brown","orange"],"door_color_assignment":["white","black"],"door_generator_assignment":[1,0],"goal":7,"start":10,"action_noise":0.15,"location_history":"[10,7]","action_history":"[0]","door_history":"[1]","location_rts":"[1833]","trial_type":"two-door-navigation","trial_index":31,"time_elapsed":1161143,"internal_node_id":"0.0-2.0-29.0"},{"group":"dicyclic group of order 12","room_assignment":["red","purple","blue","grey","green","olive","cyan","ivory","yellow","pink","brown","orange"],"door_color_assignment":["white","black"],"door_generator_assignment":[1,0],"goal":6,"start":7,"action_noise":0.15,"location_history":"[7,8,5,10,2,3,7,11,3,0,1,5,9,1,2,3,0,1,5,9,1,2,6]","action_history":"[0,0,0,1,1,1,1,1,0,0,1,1,1,1,0,0,1,1,1,1,0,1]","door_history":"[1,1,1,0,0,0,0,0,1,1,0,0,0,0,1,1,0,0,0,0,1,0]","location_rts":"[1370,631,2523,1502,522,418,400,499,309,1490,1417,299,323,352,256,1044,1176,265,335,332,327,580]","trial_type":"two-door-navigation","trial_index":32,"time_elapsed":1203478,"internal_node_id":"0.0-2.0-30.0"},{"group":"dicyclic group of order 12","room_assignment":["red","purple","blue","grey","green","olive","cyan","ivory","yellow","pink","brown","orange"],"door_color_assignment":["white","black"],"door_generator_assignment":[1,0],"goal":0,"start":6,"action_noise":0.15,"location_history":"[6,11,3,0]","action_history":"[0,0,0]","door_history":"[1,1,1]","location_rts":"[1347,527,355]","trial_type":"two-door-navigation","trial_index":33,"time_elapsed":1212278,"internal_node_id":"0.0-2.0-31.0"},{"group":"dicyclic group of order 12","room_assignment":["red","purple","blue","grey","green","olive","cyan","ivory","yellow","pink","brown","orange"],"door_color_assignment":["white","black"],"door_generator_assignment":[1,0],"goal":11,"start":0,"action_noise":0.15,"location_history":"[0,1,2,3,7,11]","action_history":"[0,0,0,1,1]","door_history":"[1,1,1,0,0]","location_rts":"[1967,993,650,888,321]","trial_type":"two-door-navigation","trial_index":34,"time_elapsed":1225723,"internal_node_id":"0.0-2.0-32.0"},{"group":"dicyclic group of order 12","room_assignment":["red","purple","blue","grey","green","olive","cyan","ivory","yellow","pink","brown","orange"],"door_color_assignment":["white","black"],"door_generator_assignment":[1,0],"goal":9,"start":11,"action_noise":0.15,"location_history":"[11,3,0,4,9]","action_history":"[1,1,1,0]","door_history":"[0,0,0,1]","location_rts":"[2825,384,352,1035]","trial_type":"two-door-navigation","trial_index":35,"time_elapsed":1237911,"internal_node_id":"0.0-2.0-33.0"},{"group":"dicyclic group of order 12","room_assignment":["red","purple","blue","grey","green","olive","cyan","ivory","yellow","pink","brown","orange"],"door_color_assignment":["white","black"],"door_generator_assignment":[1,0],"goal":5,"start":9,"action_noise":0.15,"location_history":"[9,6,11,4,9,6,10,2,3,0,4,8,0,1,5]","action_history":"[0,0,0,0,0,1,1,1,0,1,1,1,0,1]","door_history":"[1,1,1,1,1,0,0,0,1,0,0,0,1,0]","location_rts":"[1592,1306,1419,1703,780,729,358,367,546,1064,364,421,355,812]","trial_type":"two-door-navigation","trial_index":36,"time_elapsed":1267556,"internal_node_id":"0.0-2.0-34.0"},{"view_history":"[{\"page_index\":0,\"viewing_time\":300579}]","rt":300579,"trial_type":"instructions","trial_index":37,"time_elapsed":1569137,"internal_node_id":"0.0-3.0"},{"view_history":"[{\"page_index\":0,\"viewing_time\":1413},{\"page_index\":1,\"viewing_time\":2279}]","rt":3693,"trial_type":"instructions","trial_index":38,"time_elapsed":1573831,"internal_node_id":"0.0-4.0"},{"group":"dihedral group of order 12","fractal_assignment":["../images/gry_blk.png","../images/org_blu.png","../images/cyn_red.png","../images/ylw_slt.png","../images/blu_wht.png","../images/red_prp.png","../images/pnk_blu.png","../images/ylw_pnk.png","../images/grn_red.png","../images/wht_red.png","../images/grn_blu.png","../images/grn_prp.png"],"mutagen_generator_assignment":[0,1],"goal":7,"start":11,"action_noise":0.15,"location_history":"[11,10,4,10,9,3,9,8,7]","action_history":"[0,1,1,1,1,1,0,0]","mutagen_history":"[0,1,1,1,1,1,0,0]","location_rts":"[6421,1237,1561,741,932,634,1081,2840]","trial_type":"fractal-mutation","trial_index":39,"time_elapsed":1601873,"internal_node_id":"0.0-5.0-0.0"},{"group":"dihedral group of order 12","fractal_assignment":["../images/gry_blk.png","../images/org_blu.png","../images/cyn_red.png","../images/ylw_slt.png","../images/blu_wht.png","../images/red_prp.png","../images/pnk_blu.png","../images/ylw_pnk.png","../images/grn_red.png","../images/wht_red.png","../images/grn_blu.png","../images/grn_prp.png"],"mutagen_generator_assignment":[0,1],"goal":8,"start":7,"action_noise":0.15,"location_history":"[7,1,2,3,9,8]","action_history":"[1,0,0,0,0]","mutagen_history":"[1,0,0,0,0]","location_rts":"[2400,1336,520,490,669]","trial_type":"fractal-mutation","trial_index":40,"time_elapsed":1616329,"internal_node_id":"0.0-5.0-1.0"},{"group":"dihedral group of order 12","fractal_assignment":["../images/gry_blk.png","../images/org_blu.png","../images/cyn_red.png","../images/ylw_slt.png","../images/blu_wht.png","../images/red_prp.png","../images/pnk_blu.png","../images/ylw_pnk.png","../images/grn_red.png","../images/wht_red.png","../images/grn_blu.png","../images/grn_prp.png"],"mutagen_generator_assignment":[0,1],"goal":4,"start":8,"action_noise":0.15,"location_history":"[8,2,3,4]","action_history":"[1,0,0]","mutagen_history":"[1,0,0]","location_rts":"[1932,1310,411]","trial_type":"fractal-mutation","trial_index":41,"time_elapsed":1626868,"internal_node_id":"0.0-5.0-2.0"},{"group":"dihedral group of order 12","fractal_assignment":["../images/gry_blk.png","../images/org_blu.png","../images/cyn_red.png","../images/ylw_slt.png","../images/blu_wht.png","../images/red_prp.png","../images/pnk_blu.png","../images/ylw_pnk.png","../images/grn_red.png","../images/wht_red.png","../images/grn_blu.png","../images/grn_prp.png"],"mutagen_generator_assignment":[0,1],"goal":5,"start":4,"action_noise":0.15,"location_history":"[4,5]","action_history":"[0]","mutagen_history":"[0]","location_rts":"[1768]","trial_type":"fractal-mutation","trial_index":42,"time_elapsed":1633172,"internal_node_id":"0.0-5.0-3.0"},{"group":"dihedral group of order 12","fractal_assignment":["../images/gry_blk.png","../images/org_blu.png","../images/cyn_red.png","../images/ylw_slt.png","../images/blu_wht.png","../images/red_prp.png","../images/pnk_blu.png","../images/ylw_pnk.png","../images/grn_red.png","../images/wht_red.png","../images/grn_blu.png","../images/grn_prp.png"],"mutagen_generator_assignment":[0,1],"goal":10,"start":5,"action_noise":0.15,"location_history":"[5,11,10]","action_history":"[1,0]","mutagen_history":"[1,0]","location_rts":"[2561,1177]","trial_type":"fractal-mutation","trial_index":43,"time_elapsed":1642725,"internal_node_id":"0.0-5.0-4.0"},{"group":"dihedral group of order 12","fractal_assignment":["../images/gry_blk.png","../images/org_blu.png","../images/cyn_red.png","../images/ylw_slt.png","../images/blu_wht.png","../images/red_prp.png","../images/pnk_blu.png","../images/ylw_pnk.png","../images/grn_red.png","../images/wht_red.png","../images/grn_blu.png","../images/grn_prp.png"],"mutagen_generator_assignment":[0,1],"goal":1,"start":10,"action_noise":0.15,"location_history":"[10,9,8,2,3,4,5,11,10,9,3,4,10,9,8,7,6,11,10,4,5,0,1]","action_history":"[0,0,1,0,0,0,0,0,0,0,0,1,0,0,0,0,0,0,1,1,0,0]","mutagen_history":"[0,0,1,0,0,0,0,0,0,0,0,1,0,0,0,0,0,0,1,1,0,0]","location_rts":"[3193,2242,673,1143,899,1535,999,977,2258,750,612,462,519,657,823,699,635,481,4219,2702,981,2189]","trial_type":"fractal-mutation","trial_index":44,"time_elapsed":1700350,"internal_node_id":"0.0-5.0-5.0"},{"group":"dihedral group of order 12","fractal_assignment":["../images/gry_blk.png","../images/org_blu.png","../images/cyn_red.png","../images/ylw_slt.png","../images/blu_wht.png","../images/red_prp.png","../images/pnk_blu.png","../images/ylw_pnk.png","../images/grn_red.png","../images/wht_red.png","../images/grn_blu.png","../images/grn_prp.png"],"mutagen_generator_assignment":[0,1],"goal":6,"start":1,"action_noise":0.15,"location_history":"[1,2,3,9,3,9,8,2,3,9,8,2,8,7,6]","action_history":"[0,0,1,1,1,0,0,0,0,0,1,1,0,0]","mutagen_history":"[0,0,1,1,1,0,0,0,0,0,1,1,0,0]","location_rts":"[2859,686,2107,394,973,680,405,466,513,503,406,2677,1537,553]","trial_type":"fractal-mutation","trial_index":45,"time_elapsed":1734200,"internal_node_id":"0.0-5.0-6.0"},{"group":"dihedral group of order 12","fractal_assignment":["../images/gry_blk.png","../images/org_blu.png","../images/cyn_red.png","../images/ylw_slt.png","../images/blu_wht.png","../images/red_prp.png","../images/pnk_blu.png","../images/ylw_pnk.png","../images/grn_red.png","../images/wht_red.png","../images/grn_blu.png","../images/grn_prp.png"],"mutagen_generator_assignment":[0,1],"goal":9,"start":6,"action_noise":0.15,"location_history":"[6,0,6,0,1,7,1,2,8,7,6,0,6,11,5,0,1,2,8,7,6,11,5,11,5,11,10,9]","action_history":"[1,1,1,0,1,1,0,0,0,0,1,0,1,0,0,0,0,1,0,0,0,0,1,1,1,0,0]","mutagen_history":"[1,1,1,0,1,1,0,0,0,0,1,0,1,0,0,0,0,1,0,0,0,0,1,1,1,0,0]","location_rts":"[2216,695,1021,1164,2974,1660,986,501,570,732,1033,1505,720,1181,549,579,569,776,1198,652,397,478,851,544,1066,891,496]","trial_type":"fractal-mutation","trial_index":46,"time_elapsed":1794369,"internal_node_id":"0.0-5.0-7.0"},{"group":"dihedral group of order 12","fractal_assignment":["../images/gry_blk.png","../images/org_blu.png","../images/cyn_red.png","../images/ylw_slt.png","../images/blu_wht.png","../images/red_prp.png","../images/pnk_blu.png","../images/ylw_pnk.png","../images/grn_red.png","../images/wht_red.png","../images/grn_blu.png","../images/grn_prp.png"],"mutagen_generator_assignment":[0,1],"goal":2,"start":9,"action_noise":0.15,"location_history":"[9,3,4,10,9,3,9,3,9,8,7,6,11,10,9,8,7,6,11,10,4,5,0,1,2]","action_history":"[1,0,0,0,1,1,1,1,0,0,0,0,0,0,0,1,0,0,0,1,0,0,0,0]","mutagen_history":"[1,0,0,0,1,1,1,1,0,0,0,0,0,0,0,1,0,0,0,1,0,0,0,0]","location_rts":"[2126,921,550,890,796,495,685,671,1706,2109,414,503,513,903,620,583,629,541,456,510,836,1009,560,1346]","trial_type":"fractal-mutation","trial_index":47,"time_elapsed":1845186,"internal_node_id":"0.0-5.0-8.0"},{"group":"dihedral group of order 12","fractal_assignment":["../images/gry_blk.png","../images/org_blu.png","../images/cyn_red.png","../images/ylw_slt.png","../images/blu_wht.png","../images/red_prp.png","../images/pnk_blu.png","../images/ylw_pnk.png","../images/grn_red.png","../images/wht_red.png","../images/grn_blu.png","../images/grn_prp.png"],"mutagen_generator_assignment":[0,1],"goal":0,"start":2,"action_noise":0.15,"location_history":"[2,8,2,8,7,1,7,1,7,6,11,10,9,3,9,3,9,8,7,6,11,10,9,3,4,10,9,3,9,8,2,3,4,10,4,5,0]","action_history":"[1,1,1,0,1,1,1,1,0,0,0,0,1,1,1,0,0,0,0,1,0,0,1,0,1,0,1,1,0,0,0,0,1,1,0,0]","mutagen_history":"[1,1,1,0,1,1,1,1,0,0,0,0,1,1,1,0,0,0,0,1,0,0,1,0,1,0,1,1,0,0,0,0,1,1,0,0]","location_rts":"[1253,372,710,532,684,636,659,897,2366,424,388,403,883,1800,964,452,571,448,852,891,778,517,751,1356,1828,542,798,721,565,462,1506,447,568,436,504,511]","trial_type":"fractal-mutation","trial_index":48,"time_elapsed":1918140,"internal_node_id":"0.0-5.0-9.0"},{"group":"dihedral group of order 12","fractal_assignment":["../images/gry_blk.png","../images/org_blu.png","../images/cyn_red.png","../images/ylw_slt.png","../images/blu_wht.png","../images/red_prp.png","../images/pnk_blu.png","../images/ylw_pnk.png","../images/grn_red.png","../images/wht_red.png","../images/grn_blu.png","../images/grn_prp.png"],"mutagen_generator_assignment":[0,1],"goal":3,"start":0,"action_noise":0.15,"location_history":"[0,6,0,6,0,1,7,1,2,3]","action_history":"[1,1,1,0,1,1,0,0,0]","mutagen_history":"[1,1,1,0,1,1,0,0,0]","location_rts":"[1354,509,587,451,1546,1138,529,384,585]","trial_type":"fractal-mutation","trial_index":49,"time_elapsed":1939100,"internal_node_id":"0.0-5.0-10.0"},{"group":"dihedral group of order 12","fractal_assignment":["../images/gry_blk.png","../images/org_blu.png","../images/cyn_red.png","../images/ylw_slt.png","../images/blu_wht.png","../images/red_prp.png","../images/pnk_blu.png","../images/ylw_pnk.png","../images/grn_red.png","../images/wht_red.png","../images/grn_blu.png","../images/grn_prp.png"],"mutagen_generator_assignment":[0,1],"goal":10,"start":3,"action_noise":0.15,"location_history":"[3,9,8,7,6,11,10]","action_history":"[1,0,0,0,0,1]","mutagen_history":"[1,0,0,0,0,1]","location_rts":"[2634,725,460,403,523,618]","trial_type":"fractal-mutation","trial_index":50,"time_elapsed":1954728,"internal_node_id":"0.0-5.0-11.0"},{"group":"dihedral group of order 12","fractal_assignment":["../images/gry_blk.png","../images/org_blu.png","../images/cyn_red.png","../images/ylw_slt.png","../images/blu_wht.png","../images/red_prp.png","../images/pnk_blu.png","../images/ylw_pnk.png","../images/grn_red.png","../images/wht_red.png","../images/grn_blu.png","../images/grn_prp.png"],"mutagen_generator_assignment":[0,1],"goal":8,"start":10,"action_noise":0.15,"location_history":"[10,4,10,9,8]","action_history":"[1,0,0,0]","mutagen_history":"[1,0,0,0]","location_rts":"[1652,908,436,351]","trial_type":"fractal-mutation","trial_index":51,"time_elapsed":1966113,"internal_node_id":"0.0-5.0-12.0"},{"group":"dihedral group of order 12","fractal_assignment":["../images/gry_blk.png","../images/org_blu.png","../images/cyn_red.png","../images/ylw_slt.png","../images/blu_wht.png","../images/red_prp.png","../images/pnk_blu.png","../images/ylw_pnk.png","../images/grn_red.png","../images/wht_red.png","../images/grn_blu.png","../images/grn_prp.png"],"mutagen_generator_assignment":[0,1],"goal":4,"start":8,"action_noise":0.15,"location_history":"[8,2,8,7,6,0,6,0,1,7,1,7,6,11,10,4]","action_history":"[1,0,0,0,0,1,0,0,1,1,1,1,0,0,0]","mutagen_history":"[1,0,0,0,0,1,0,0,1,1,1,1,0,0,0]","location_rts":"[1560,785,502,385,389,1067,632,381,620,432,379,379,361,1070,392]","trial_type":"fractal-mutation","trial_index":52,"time_elapsed":1996111,"internal_node_id":"0.0-5.0-13.0"},{"group":"dihedral group of order 12","fractal_assignment":["../images/gry_blk.png","../images/org_blu.png","../images/cyn_red.png","../images/ylw_slt.png","../images/blu_wht.png","../images/red_prp.png","../images/pnk_blu.png","../images/ylw_pnk.png","../images/grn_red.png","../images/wht_red.png","../images/grn_blu.png","../images/grn_prp.png"],"mutagen_generator_assignment":[0,1],"goal":0,"start":4,"action_noise":0.15,"location_history":"[4,10,4,10,9,8,2,8,2,3,4,5,11,10,4,10,4,5,11,5,0]","action_history":"[1,1,1,0,0,1,1,1,0,0,0,1,0,1,1,1,0,1,0,0]","mutagen_history":"[1,1,1,0,0,1,1,1,0,0,0,1,0,1,1,1,0,1,0,0]","location_rts":"[1624,613,766,323,416,992,1297,410,479,375,428,1299,1156,670,1695,667,854,823,595,421]","trial_type":"fractal-mutation","trial_index":53,"time_elapsed":2038479,"internal_node_id":"0.0-5.0-14.0"},{"group":"dihedral group of order 12","fractal_assignment":["../images/gry_blk.png","../images/org_blu.png","../images/cyn_red.png","../images/ylw_slt.png","../images/blu_wht.png","../images/red_prp.png","../images/pnk_blu.png","../images/ylw_pnk.png","../images/grn_red.png","../images/wht_red.png","../images/grn_blu.png","../images/grn_prp.png"],"mutagen_generator_assignment":[0,1],"goal":11,"start":0,"action_noise":0.15,"location_history":"[0,6,0,6,0,1,2,3,4,10,9,8,7,1,2,3,9,8,7,1,7,1,2,3,4,5,0,1,7,6,11]","action_history":"[1,1,1,0,0,1,0,0,0,0,0,0,1,0,0,1,0,0,0,1,1,1,0,1,0,0,0,1,0,0]","mutagen_history":"[1,1,1,0,0,1,0,0,0,0,0,0,1,0,0,1,0,0,0,1,1,1,0,1,0,0,0,1,0,0]","location_rts":"[1110,1049,511,309,1373,816,717,527,574,600,512,903,661,537,683,786,432,438,660,368,805,704,530,1240,2011,606,1524,1285,1102,474]","trial_type":"fractal-mutation","trial_index":54,"time_elapsed":2099585,"internal_node_id":"0.0-5.0-15.0"},{"group":"dihedral group of order 12","fractal_assignment":["../images/gry_blk.png","../images/org_blu.png","../images/cyn_red.png","../images/ylw_slt.png","../images/blu_wht.png","../images/red_prp.png","../images/pnk_blu.png","../images/ylw_pnk.png","../images/grn_red.png","../images/wht_red.png","../images/grn_blu.png","../images/grn_prp.png"],"mutagen_generator_assignment":[0,1],"goal":2,"start":11,"action_noise":0.15,"location_history":"[11,5,11,5,11,5,11,10,9,8,7,6,0,1,2]","action_history":"[1,1,1,1,0,1,1,0,0,0,0,1,0,0]","mutagen_history":"[1,1,1,1,0,1,1,0,0,0,0,1,0,0]","location_rts":"[1052,894,1386,756,1440,737,1444,834,820,431,409,642,619,603]","trial_type":"fractal-mutation","trial_index":55,"time_elapsed":2131239,"internal_node_id":"0.0-5.0-16.0"},{"group":"dihedral group of order 12","fractal_assignment":["../images/gry_blk.png","../images/org_blu.png","../images/cyn_red.png","../images/ylw_slt.png","../images/blu_wht.png","../images/red_prp.png","../images/pnk_blu.png","../images/ylw_pnk.png","../images/grn_red.png","../images/wht_red.png","../images/grn_blu.png","../images/grn_prp.png"],"mutagen_generator_assignment":[0,1],"goal":7,"start":2,"action_noise":0.15,"location_history":"[2,3,4,5,11,5,11,10,4,5,11,10,9,8,7]","action_history":"[0,0,0,1,1,1,0,0,0,1,0,0,0,0]","mutagen_history":"[0,0,0,1,1,1,0,0,0,1,0,0,0,0]","location_rts":"[2564,446,391,4031,520,452,299,544,1025,1162,1075,476,508,1748]","trial_type":"fractal-mutation","trial_index":56,"time_elapsed":2165352,"internal_node_id":"0.0-5.0-17.0"},{"group":"dihedral group of order 12","fractal_assignment":["../images/gry_blk.png","../images/org_blu.png","../images/cyn_red.png","../images/ylw_slt.png","../images/blu_wht.png","../images/red_prp.png","../images/pnk_blu.png","../images/ylw_pnk.png","../images/grn_red.png","../images/wht_red.png","../images/grn_blu.png","../images/grn_prp.png"],"mutagen_generator_assignment":[0,1],"goal":5,"start":7,"action_noise":0.15,"location_history":"[7,1,2,3,4,5]","action_history":"[1,0,0,0,0]","mutagen_history":"[1,0,0,0,0]","location_rts":"[1425,519,589,600,814]","trial_type":"fractal-mutation","trial_index":57,"time_elapsed":2178394,"internal_node_id":"0.0-5.0-18.0"},{"group":"dihedral group of order 12","fractal_assignment":["../images/gry_blk.png","../images/org_blu.png","../images/cyn_red.png","../images/ylw_slt.png","../images/blu_wht.png","../images/red_prp.png","../images/pnk_blu.png","../images/ylw_pnk.png","../images/grn_red.png","../images/wht_red.png","../images/grn_blu.png","../images/grn_prp.png"],"mutagen_generator_assignment":[0,1],"goal":6,"start":5,"action_noise":0.15,"location_history":"[5,11,10,9,3,9,8,7,1,2,3,4,10,4,5,11,10,4,10,9,8,7,6]","action_history":"[1,0,0,0,1,0,0,1,0,0,0,0,1,0,0,0,0,1,0,0,0,0]","mutagen_history":"[1,0,0,0,1,0,0,1,0,0,0,0,1,0,0,0,0,1,0,0,0,0]","location_rts":"[2493,481,680,433,489,1663,976,3202,504,284,565,1055,571,772,324,439,631,431,1310,482,423,407]","trial_type":"fractal-mutation","trial_index":58,"time_elapsed":2224995,"internal_node_id":"0.0-5.0-19.0"},{"group":"dihedral group of order 12","fractal_assignment":["../images/gry_blk.png","../images/org_blu.png","../images/cyn_red.png","../images/ylw_slt.png","../images/blu_wht.png","../images/red_prp.png","../images/pnk_blu.png","../images/ylw_pnk.png","../images/grn_red.png","../images/wht_red.png","../images/grn_blu.png","../images/grn_prp.png"],"mutagen_generator_assignment":[0,1],"goal":3,"start":6,"action_noise":0.15,"location_history":"[6,11,10,4,5,0,6,11,10,4,10,9,8,7,6,11,5,0,1,7,6,0,6,0,6,0,6,0,6,0,1,2,8,2,8,7,6,11,5,11,5,11,5,0,1,2,8,7,1,2,8,7,6,11,5,0,1,2,8,7,1,7,6,11,10,9,8,7,1,7,6,11,5,0,6,0,6,11,5,0,6,0,1,2,3]","action_history":"[0,0,0,0,0,0,0,0,1,1,0,0,0,0,0,1,0,0,1,0,1,1,1,1,1,1,1,1,0,0,1,1,1,1,0,0,0,1,1,1,1,1,0,0,0,1,1,0,0,1,0,0,0,1,0,0,0,0,1,1,1,0,0,0,1,0,0,0,0,0,1,1,0,1,1,0,0,0,1,1,0,0,0,0]","mutagen_history":"[0,0,0,0,0,0,0,0,1,1,0,0,0,0,0,1,0,0,1,0,1,1,1,1,1,1,1,1,0,0,1,1,1,1,0,0,0,1,1,1,1,1,0,0,0,1,1,0,0,1,0,0,0,1,0,0,0,0,1,1,1,0,0,0,1,0,0,0,0,0,1,1,0,1,1,0,0,0,1,1,0,0,0,0]","location_rts":"[2236,378,398,1824,553,939,1329,871,814,1692,546,1362,632,473,852,1244,855,1054,1356,14854,771,536,2122,2526,1627,726,1137,2327,543,554,1194,680,507,586,856,890,737,740,847,540,1357,488,469,788,687,481,477,456,402,787,879,486,481,420,2145,681,464,539,444,467,485,1141,694,448,501,404,427,490,874,1423,1151,847,688,945,785,467,636,828,574,986,484,560,564,465]","trial_type":"fractal-mutation","trial_index":59,"time_elapsed":2408115,"internal_node_id":"0.0-5.0-20.0"},{"group":"dihedral group of order 12","fractal_assignment":["../images/gry_blk.png","../images/org_blu.png","../images/cyn_red.png","../images/ylw_slt.png","../images/blu_wht.png","../images/red_prp.png","../images/pnk_blu.png","../images/ylw_pnk.png","../images/grn_red.png","../images/wht_red.png","../images/grn_blu.png","../images/grn_prp.png"],"mutagen_generator_assignment":[0,1],"goal":1,"start":3,"action_noise":0.15,"location_history":"[3,9,8,7,1]","action_history":"[1,0,0,0]","mutagen_history":"[1,0,0,0]","location_rts":"[1518,869,477,577]","trial_type":"fractal-mutation","trial_index":60,"time_elapsed":2419567,"internal_node_id":"0.0-5.0-21.0"},{"group":"dihedral group of order 12","fractal_assignment":["../images/gry_blk.png","../images/org_blu.png","../images/cyn_red.png","../images/ylw_slt.png","../images/blu_wht.png","../images/red_prp.png","../images/pnk_blu.png","../images/ylw_pnk.png","../images/grn_red.png","../images/wht_red.png","../images/grn_blu.png","../images/grn_prp.png"],"mutagen_generator_assignment":[0,1],"goal":9,"start":1,"action_noise":0.15,"location_history":"[1,2,3,9]","action_history":"[0,0,0]","mutagen_history":"[0,0,0]","location_rts":"[2039,535,1037]","trial_type":"fractal-mutation","trial_index":61,"time_elapsed":2429770,"internal_node_id":"0.0-5.0-22.0"},{"group":"dihedral group of order 12","fractal_assignment":["../images/gry_blk.png","../images/org_blu.png","../images/cyn_red.png","../images/ylw_slt.png","../images/blu_wht.png","../images/red_prp.png","../images/pnk_blu.png","../images/ylw_pnk.png","../images/grn_red.png","../images/wht_red.png","../images/grn_blu.png","../images/grn_prp.png"],"mutagen_generator_assignment":[0,1],"goal":3,"start":9,"action_noise":0.15,"location_history":"[9,8,7,1,2,8,2,3]","action_history":"[0,0,0,0,1,1,0]","mutagen_history":"[0,0,0,0,1,1,0]","location_rts":"[1892,409,411,1123,851,606,977]","trial_type":"fractal-mutation","trial_index":62,"time_elapsed":2447142,"internal_node_id":"0.0-5.0-23.0"},{"group":"dihedral group of order 12","fractal_assignment":["../images/gry_blk.png","../images/org_blu.png","../images/cyn_red.png","../images/ylw_slt.png","../images/blu_wht.png","../images/red_prp.png","../images/pnk_blu.png","../images/ylw_pnk.png","../images/grn_red.png","../images/wht_red.png","../images/grn_blu.png","../images/grn_prp.png"],"mutagen_generator_assignment":[0,1],"goal":4,"start":3,"action_noise":0.15,"location_history":"[3,9,3,9,8,7,6,11,10,9,3,9,3,9,8,2,3,9,8,2,3,4]","action_history":"[1,1,1,0,0,0,1,0,0,1,1,1,1,0,1,0,0,1,1,1,0]","mutagen_history":"[1,1,1,0,0,0,1,0,0,1,1,1,1,0,1,0,0,1,1,1,0]","location_rts":"[1393,418,633,607,529,437,536,601,736,567,789,763,732,637,1555,813,389,632,528,835,466]","trial_type":"fractal-mutation","trial_index":63,"time_elapsed":2489204,"internal_node_id":"0.0-5.0-24.0"},{"group":"dihedral group of order 12","fractal_assignment":["../images/gry_blk.png","../images/org_blu.png","../images/cyn_red.png","../images/ylw_slt.png","../images/blu_wht.png","../images/red_prp.png","../images/pnk_blu.png","../images/ylw_pnk.png","../images/grn_red.png","../images/wht_red.png","../images/grn_blu.png","../images/grn_prp.png"],"mutagen_generator_assignment":[0,1],"goal":2,"start":4,"action_noise":0.15,"location_history":"[4,10,9,8,7,6,0,1,2]","action_history":"[1,0,0,0,0,1,0,0]","mutagen_history":"[1,0,0,0,0,1,0,0]","location_rts":"[949,447,352,711,782,604,578,418]","trial_type":"fractal-mutation","trial_index":64,"time_elapsed":2506566,"internal_node_id":"0.0-5.0-25.0"},{"group":"dihedral group of order 12","fractal_assignment":["../images/gry_blk.png","../images/org_blu.png","../images/cyn_red.png","../images/ylw_slt.png","../images/blu_wht.png","../images/red_prp.png","../images/pnk_blu.png","../images/ylw_pnk.png","../images/grn_red.png","../images/wht_red.png","../images/grn_blu.png","../images/grn_prp.png"],"mutagen_generator_assignment":[0,1],"goal":1,"start":2,"action_noise":0.15,"location_history":"[2,8,7,6,0,1]","action_history":"[1,0,0,1,0]","mutagen_history":"[1,0,0,1,0]","location_rts":"[2019,424,526,676,400]","trial_type":"fractal-mutation","trial_index":65,"time_elapsed":2519802,"internal_node_id":"0.0-5.0-26.0"},{"group":"dihedral group of order 12","fractal_assignment":["../images/gry_blk.png","../images/org_blu.png","../images/cyn_red.png","../images/ylw_slt.png","../images/blu_wht.png","../images/red_prp.png","../images/pnk_blu.png","../images/ylw_pnk.png","../images/grn_red.png","../images/wht_red.png","../images/grn_blu.png","../images/grn_prp.png"],"mutagen_generator_assignment":[0,1],"goal":8,"start":1,"action_noise":0.15,"location_history":"[1,7,6,11,5,0,1,7,6,0,1,7,6,11,10,4,5,0,6,11,10,9,3,4,5,0,1,2,8]","action_history":"[0,0,0,1,1,0,0,0,1,0,0,0,0,0,1,0,0,1,0,0,1,1,0,0,0,0,0,1]","mutagen_history":"[0,0,0,1,1,0,0,0,1,0,0,0,0,0,1,0,0,1,0,0,1,1,0,0,0,0,0,1]","location_rts":"[828,555,508,731,569,664,460,716,620,599,793,456,516,700,533,777,437,703,1901,673,788,1141,980,751,657,825,506,1000]","trial_type":"fractal-mutation","trial_index":66,"time_elapsed":2574901,"internal_node_id":"0.0-5.0-27.0"},{"group":"dihedral group of order 12","fractal_assignment":["../images/gry_blk.png","../images/org_blu.png","../images/cyn_red.png","../images/ylw_slt.png","../images/blu_wht.png","../images/red_prp.png","../images/pnk_blu.png","../images/ylw_pnk.png","../images/grn_red.png","../images/wht_red.png","../images/grn_blu.png","../images/grn_prp.png"],"mutagen_generator_assignment":[0,1],"goal":10,"start":8,"action_noise":0.15,"location_history":"[8,2,8,2,3,4,5,0,6,11,10]","action_history":"[0,0,1,1,0,0,1,1,0,0]","mutagen_history":"[0,0,1,1,0,0,1,1,0,0]","location_rts":"[2137,497,869,1110,859,776,1167,1286,631,403]","trial_type":"fractal-mutation","trial_index":67,"time_elapsed":2599446,"internal_node_id":"0.0-5.0-28.0"},{"group":"dihedral group of order 12","fractal_assignment":["../images/gry_blk.png","../images/org_blu.png","../images/cyn_red.png","../images/ylw_slt.png","../images/blu_wht.png","../images/red_prp.png","../images/pnk_blu.png","../images/ylw_pnk.png","../images/grn_red.png","../images/wht_red.png","../images/grn_blu.png","../images/grn_prp.png"],"mutagen_generator_assignment":[0,1],"goal":7,"start":10,"action_noise":0.15,"location_history":"[10,9,8,7]","action_history":"[0,0,0]","mutagen_history":"[0,0,0]","location_rts":"[741,589,467]","trial_type":"fractal-mutation","trial_index":68,"time_elapsed":2607828,"internal_node_id":"0.0-5.0-29.0"},{"group":"dihedral group of order 12","fractal_assignment":["../images/gry_blk.png","../images/org_blu.png","../images/cyn_red.png","../images/ylw_slt.png","../images/blu_wht.png","../images/red_prp.png","../images/pnk_blu.png","../images/ylw_pnk.png","../images/grn_red.png","../images/wht_red.png","../images/grn_blu.png","../images/grn_prp.png"],"mutagen_generator_assignment":[0,1],"goal":6,"start":7,"action_noise":0.15,"location_history":"[7,1,2,3,4,5,11,10,9,8,7,6]","action_history":"[0,0,0,0,0,1,0,0,0,0,0]","mutagen_history":"[0,0,0,0,0,1,0,0,0,0,0]","location_rts":"[752,826,959,631,663,747,450,537,427,399,342]","trial_type":"fractal-mutation","trial_index":69,"time_elapsed":2629883,"internal_node_id":"0.0-5.0-30.0"},{"group":"dihedral group of order 12","fractal_assignment":["../images/gry_blk.png","../images/org_blu.png","../images/cyn_red.png","../images/ylw_slt.png","../images/blu_wht.png","../images/red_prp.png","../images/pnk_blu.png","../images/ylw_pnk.png","../images/grn_red.png","../images/wht_red.png","../images/grn_blu.png","../images/grn_prp.png"],"mutagen_generator_assignment":[0,1],"goal":0,"start":6,"action_noise":0.15,"location_history":"[6,0]","action_history":"[1]","mutagen_history":"[1]","location_rts":"[1718]","trial_type":"fractal-mutation","trial_index":70,"time_elapsed":2636296,"internal_node_id":"0.0-5.0-31.0"},{"group":"dihedral group of order 12","fractal_assignment":["../images/gry_blk.png","../images/org_blu.png","../images/cyn_red.png","../images/ylw_slt.png","../images/blu_wht.png","../images/red_prp.png","../images/pnk_blu.png","../images/ylw_pnk.png","../images/grn_red.png","../images/wht_red.png","../images/grn_blu.png","../images/grn_prp.png"],"mutagen_generator_assignment":[0,1],"goal":11,"start":0,"action_noise":0.15,"location_history":"[0,6,11]","action_history":"[0,0]","mutagen_history":"[0,0]","location_rts":"[1935,586]","trial_type":"fractal-mutation","trial_index":71,"time_elapsed":2644382,"internal_node_id":"0.0-5.0-32.0"},{"group":"dihedral group of order 12","fractal_assignment":["../images/gry_blk.png","../images/org_blu.png","../images/cyn_red.png","../images/ylw_slt.png","../images/blu_wht.png","../images/red_prp.png","../images/pnk_blu.png","../images/ylw_pnk.png","../images/grn_red.png","../images/wht_red.png","../images/grn_blu.png","../images/grn_prp.png"],"mutagen_generator_assignment":[0,1],"goal":9,"start":11,"action_noise":0.15,"location_history":"[11,10,9]","action_history":"[0,0]","mutagen_history":"[0,0]","location_rts":"[4523,400]","trial_type":"fractal-mutation","trial_index":72,"time_elapsed":2654868,"internal_node_id":"0.0-5.0-33.0"},{"group":"dihedral group of order 12","fractal_assignment":["../images/gry_blk.png","../images/org_blu.png","../images/cyn_red.png","../images/ylw_slt.png","../images/blu_wht.png","../images/red_prp.png","../images/pnk_blu.png","../images/ylw_pnk.png","../images/grn_red.png","../images/wht_red.png","../images/grn_blu.png","../images/grn_prp.png"],"mutagen_generator_assignment":[0,1],"goal":5,"start":9,"action_noise":0.15,"location_history":"[9,8,2,3,4,10,4,5]","action_history":"[0,0,0,0,0,1,0]","mutagen_history":"[0,0,0,0,0,1,0]","location_rts":"[11074,357,358,390,888,438,562]","trial_type":"fractal-mutation","trial_index":73,"time_elapsed":2679873,"internal_node_id":"0.0-5.0-34.0"},{"view_history":"[{\"page_index\":0,\"viewing_time\":8221}]","rt":8221,"trial_type":"instructions","trial_index":74,"time_elapsed":2689094,"internal_node_id":"0.0-6.0"},{"rt":4207,"responses":"{\"Q0\":\"\"}","trial_type":"survey-text","trial_index":75,"time_elapsed":2694308,"internal_node_id":"0.0-7.0"}]