[{"view_history":"[{\"page_index\":0,\"viewing_time\":9691},{\"page_index\":1,\"viewing_time\":44491}]","rt":54183,"trial_type":"instructions","trial_index":0,"time_elapsed":54183,"internal_node_id":"0.0-0.0"},{"view_history":"[{\"page_index\":0,\"viewing_time\":2126},{\"page_index\":1,\"viewing_time\":13150}]","rt":15276,"trial_type":"instructions","trial_index":1,"time_elapsed":70460,"internal_node_id":"0.0-1.0"},{"group":"dicyclic group of order 12","room_assignment":["purple","ivory","grey","brown","green","cyan","orange","olive","red","pink","blue","yellow"],"door_color_assignment":["white","black"],"door_generator_assignment":[0,1],"goal":7,"start":11,"action_noise":0.15,"location_history":"[11,4,9,6,11,4,8,5,10,7]","action_history":"[0,0,0,0,1,1,0,0,0]","door_history":"[0,0,0,0,1,1,0,0,0]","location_rts":"[18311,30734,14072,3132,1155,2356,1115,2511,2003]","trial_type":"two-door-navigation","trial_index":2,"time_elapsed":158542,"internal_node_id":"0.0-2.0-0.0"},{"group":"dicyclic group of order 12","room_assignment":["purple","ivory","grey","brown","green","cyan","orange","olive","red","pink","blue","yellow"],"door_color_assignment":["white","black"],"door_generator_assignment":[0,1],"goal":8,"start":7,"action_noise":0.15,"location_history":"[7,8]","action_history":"[0]","door_history":"[0]","location_rts":"[4805]","trial_type":"two-door-navigation","trial_index":3,"time_elapsed":167875,"internal_node_id":"0.0-2.0-1.0"},{"group":"dicyclic group of order 12","room_assignment":["purple","ivory","grey","brown","green","cyan","orange","olive","red","pink","blue","yellow"],"door_color_assignment":["white","black"],"door_generator_assignment":[0,1],"goal":4,"start":8,"action_noise":0.15,"location_history":"[8,0,1,2,6,11,4]","action_history":"[0,0,0,0,0,0]","door_history":"[0,0,0,0,0,0]","location_rts":"[6639,1966,1578,1221,969,947]","trial_type":"two-door-navigation","trial_index":4,"time_elapsed":190826,"internal_node_id":"0.0-2.0-2.0"},{"group":"dicyclic group of order 12","room_assignment":["purple","ivory","grey","brown","green","cyan","orange","olive","red","pink","blue","yellow"],"door_color_assignment":["white","black"],"door_generator_assignment":[0,1],"goal":5,"start":4,"action_noise":0.15,"location_history":"[4,9,6,10,2,6,10,2,6,10,2,3,7,8,0,1,2,3,0,1,5]","action_history":"[0,0,1,0,1,1,1,1,1,1,1,1,1,1,1,0,0,0,1,1]","door_history":"[0,0,1,0,1,1,1,1,1,1,1,1,1,1,1,0,0,0,1,1]","location_rts":"[3930,1000,2816,3272,1845,998,2417,1596,3415,11582,1726,784,861,641,587,1282,818,2093,2101,1503]","trial_type":"two-door-navigation","trial_index":5,"time_elapsed":260021,"internal_node_id":"0.0-2.0-3.0"},{"group":"dicyclic group of order 12","room_assignment":["purple","ivory","grey","brown","green","cyan","orange","olive","red","pink","blue","yellow"],"door_color_assignment":["white","black"],"door_generator_assignment":[0,1],"goal":10,"start":5,"action_noise":0.15,"location_history":"[5,9,1,2,3,0,1,2,6,11,3,7,11,3,0,4,8,5,9,6,10]","action_history":"[1,1,0,0,0,0,0,1,0,0,1,1,1,0,1,1,0,1,0,1]","door_history":"[1,1,0,0,0,0,0,1,0,0,1,1,1,0,1,1,0,1,0,1]","location_rts":"[6803,715,900,1468,717,675,654,984,719,763,939,5095,4299,903,1237,4469,1995,2712,850,919]","trial_type":"two-door-navigation","trial_index":6,"time_elapsed":321740,"internal_node_id":"0.0-2.0-4.0"},{"group":"dicyclic group of order 12","room_assignment":["purple","ivory","grey","brown","green","cyan","orange","olive","red","pink","blue","yellow"],"door_color_assignment":["white","black"],"door_generator_assignment":[0,1],"goal":1,"start":10,"action_noise":0.15,"location_history":"[10,2,3,7,11,4,9,6,11,4,9,1]","action_history":"[0,0,0,1,0,0,0,0,0,0,0]","door_history":"[0,0,0,1,0,0,0,0,0,0,0]","location_rts":"[9378,729,742,6080,5819,599,520,12546,436,806,596]","trial_type":"two-door-navigation","trial_index":7,"time_elapsed":374706,"internal_node_id":"0.0-2.0-5.0"},{"group":"dicyclic group of order 12","room_assignment":["purple","ivory","grey","brown","green","cyan","orange","olive","red","pink","blue","yellow"],"door_color_assignment":["white","black"],"door_generator_assignment":[0,1],"goal":6,"start":1,"action_noise":0.15,"location_history":"[1,5,10,7,11,4,8,0,4,9,6]","action_history":"[1,0,0,0,0,0,0,0,0,0]","door_history":"[1,0,0,0,0,0,0,0,0,0]","location_rts":"[6095,1630,722,609,1430,562,2688,1993,1014,917]","trial_type":"two-door-navigation","trial_index":8,"time_elapsed":406100,"internal_node_id":"0.0-2.0-6.0"},{"group":"dicyclic group of order 12","room_assignment":["purple","ivory","grey","brown","green","cyan","orange","olive","red","pink","blue","yellow"],"door_color_assignment":["white","black"],"door_generator_assignment":[0,1],"goal":9,"start":6,"action_noise":0.15,"location_history":"[6,11,4,9]","action_history":"[0,0,0]","door_history":"[0,0,0]","location_rts":"[2003,2669,1321]","trial_type":"two-door-navigation","trial_index":9,"time_elapsed":418656,"internal_node_id":"0.0-2.0-7.0"},{"group":"dicyclic group of order 12","room_assignment":["purple","ivory","grey","brown","green","cyan","orange","olive","red","pink","blue","yellow"],"door_color_assignment":["white","black"],"door_generator_assignment":[0,1],"goal":2,"start":9,"action_noise":0.15,"location_history":"[9,6,11,4,8,5,10,7,8,0,1,2]","action_history":"[0,0,0,1,0,0,0,1,0,0,0]","door_history":"[0,0,0,1,0,0,0,1,0,0,0]","location_rts":"[2704,1554,1148,1505,1086,658,611,3361,1247,1015,2924]","trial_type":"two-door-navigation","trial_index":10,"time_elapsed":451197,"internal_node_id":"0.0-2.0-8.0"},{"group":"dicyclic group of order 12","room_assignment":["purple","ivory","grey","brown","green","cyan","orange","olive","red","pink","blue","yellow"],"door_color_assignment":["white","black"],"door_generator_assignment":[0,1],"goal":0,"start":2,"action_noise":0.15,"location_history":"[2,3,7,8,5,10,7,8,5,9,6,11,4,9,1,2,6,11,3,0]","action_history":"[0,1,0,0,0,0,0,0,1,0,0,0,0,1,0,1,0,1,0]","door_history":"[0,1,0,0,0,0,0,0,1,0,0,0,0,1,0,1,0,1,0]","location_rts":"[7479,1506,7562,822,1429,799,789,580,800,1417,6891,1078,1889,1712,8896,2810,3417,3379,1935]","trial_type":"two-door-navigation","trial_index":11,"time_elapsed":529282,"internal_node_id":"0.0-2.0-9.0"},{"group":"dicyclic group of order 12","room_assignment":["purple","ivory","grey","brown","green","cyan","orange","olive","red","pink","blue","yellow"],"door_color_assignment":["white","black"],"door_generator_assignment":[0,1],"goal":3,"start":0,"action_noise":0.15,"location_history":"[0,4,9,1,5,9,1,5,9,1,2,3]","action_history":"[0,0,1,1,1,1,1,1,1,0,0]","door_history":"[0,0,1,1,1,1,1,1,1,0,0]","location_rts":"[2141,2555,854,729,761,734,4422,781,701,1160,1774]","trial_type":"two-door-navigation","trial_index":12,"time_elapsed":560610,"internal_node_id":"0.0-2.0-10.0"},{"group":"dicyclic group of order 12","room_assignment":["purple","ivory","grey","brown","green","cyan","orange","olive","red","pink","blue","yellow"],"door_color_assignment":["white","black"],"door_generator_assignment":[0,1],"goal":10,"start":3,"action_noise":0.15,"location_history":"[3,0,4,8,5,9,6,11,4,9,1,2,6,10]","action_history":"[0,0,0,0,1,1,0,0,1,1,0,0,1]","door_history":"[0,0,0,0,1,1,0,0,1,1,0,0,1]","location_rts":"[4685,1111,1727,470,626,353,2822,959,742,523,509,277,1447]","trial_type":"two-door-navigation","trial_index":13,"time_elapsed":593623,"internal_node_id":"0.0-2.0-11.0"},{"group":"dicyclic group of order 12","room_assignment":["purple","ivory","grey","brown","green","cyan","orange","olive","red","pink","blue","yellow"],"door_color_assignment":["white","black"],"door_generator_assignment":[0,1],"goal":8,"start":10,"action_noise":0.15,"location_history":"[10,2,6,11,4,9,6,11,4,9,6,10,7,8]","action_history":"[0,0,0,0,0,0,0,0,0,0,1,0,0]","door_history":"[0,0,0,0,0,0,0,0,0,0,1,0,0]","location_rts":"[2028,494,357,260,501,335,318,420,636,351,416,507,407]","trial_type":"two-door-navigation","trial_index":14,"time_elapsed":617426,"internal_node_id":"0.0-2.0-12.0"},{"group":"dicyclic group of order 12","room_assignment":["purple","ivory","grey","brown","green","cyan","orange","olive","red","pink","blue","yellow"],"door_color_assignment":["white","black"],"door_generator_assignment":[0,1],"goal":4,"start":8,"action_noise":0.15,"location_history":"[8,5,10,7,8,5,10,2,3,7,8,5,10,7,11,4]","action_history":"[0,0,0,0,0,0,0,0,1,0,0,0,0,1,0]","door_history":"[0,0,0,0,0,0,0,0,1,0,0,0,0,1,0]","location_rts":"[2680,3161,2782,366,1190,283,298,321,401,290,257,322,441,509,590]","trial_type":"two-door-navigation","trial_index":15,"time_elapsed":650124,"internal_node_id":"0.0-2.0-13.0"},{"group":"dicyclic group of order 12","room_assignment":["purple","ivory","grey","brown","green","cyan","orange","olive","red","pink","blue","yellow"],"door_color_assignment":["white","black"],"door_generator_assignment":[0,1],"goal":0,"start":4,"action_noise":0.15,"location_history":"[4,9,6,10,2,6,11,3,7,8,5,10,7,8,5,9,6,11,3,0]","action_history":"[0,0,0,0,1,0,0,0,0,0,0,0,0,0,1,0,0,0,0]","door_history":"[0,0,0,0,1,0,0,0,0,0,0,0,0,0,1,0,0,0,0]","location_rts":"[1322,667,638,378,738,640,366,129,838,589,870,931,394,493,785,352,692,364,695]","trial_type":"two-door-navigation","trial_index":16,"time_elapsed":684892,"internal_node_id":"0.0-2.0-14.0"},{"group":"dicyclic group of order 12","room_assignment":["purple","ivory","grey","brown","green","cyan","orange","olive","red","pink","blue","yellow"],"door_color_assignment":["white","black"],"door_generator_assignment":[0,1],"goal":11,"start":0,"action_noise":0.15,"location_history":"[0,1,2,6,11]","action_history":"[0,0,1,0]","door_history":"[0,0,1,0]","location_rts":"[1530,1136,993,549]","trial_type":"two-door-navigation","trial_index":17,"time_elapsed":696677,"internal_node_id":"0.0-2.0-15.0"},{"group":"dicyclic group of order 12","room_assignment":["purple","ivory","grey","brown","green","cyan","orange","olive","red","pink","blue","yellow"],"door_color_assignment":["white","black"],"door_generator_assignment":[0,1],"goal":2,"start":11,"action_noise":0.15,"location_history":"[11,4,8,5,10,7,8,5,10,7,8,5,10,2]","action_history":"[0,0,0,0,0,0,0,0,0,0,0,0,0]","door_history":"[0,0,0,0,0,0,0,0,0,0,0,0,0]","location_rts":"[1349,323,319,430,330,326,319,343,434,615,844,683,361]","trial_type":"two-door-navigation","trial_index":18,"time_elapsed":720117,"internal_node_id":"0.0-2.0-16.0"},{"group":"dicyclic group of order 12","room_assignment":["purple","ivory","grey","brown","green","cyan","orange","olive","red","pink","blue","yellow"],"door_color_assignment":["white","black"],"door_generator_assignment":[0,1],"goal":7,"start":2,"action_noise":0.15,"location_history":"[2,3,0,1,2,3,0,1,5,9,6,10,7]","action_history":"[0,0,0,0,0,1,0,0,0,0,1,0]","door_history":"[0,0,0,0,0,1,0,0,0,0,1,0]","location_rts":"[1765,376,406,344,367,747,838,417,332,482,718,1086]","trial_type":"two-door-navigation","trial_index":19,"time_elapsed":743748,"internal_node_id":"0.0-2.0-17.0"},{"group":"dicyclic group of order 12","room_assignment":["purple","ivory","grey","brown","green","cyan","orange","olive","red","pink","blue","yellow"],"door_color_assignment":["white","black"],"door_generator_assignment":[0,1],"goal":5,"start":7,"action_noise":0.15,"location_history":"[7,8,5]","action_history":"[0,0]","door_history":"[0,0]","location_rts":"[2479,333]","trial_type":"two-door-navigation","trial_index":20,"time_elapsed":752107,"internal_node_id":"0.0-2.0-18.0"},{"group":"dicyclic group of order 12","room_assignment":["purple","ivory","grey","brown","green","cyan","orange","olive","red","pink","blue","yellow"],"door_color_assignment":["white","black"],"door_generator_assignment":[0,1],"goal":6,"start":5,"action_noise":0.15,"location_history":"[5,10,2,3,0,1,2,3,0,4,9,1,2,3,7,8,0,4,9,6]","action_history":"[0,0,0,0,0,0,0,0,0,0,1,0,0,1,1,1,1,0,0]","door_history":"[0,0,0,0,0,0,0,0,0,0,1,0,0,1,1,1,1,0,0]","location_rts":"[2225,986,450,390,266,314,26,691,370,254,728,672,349,754,914,629,790,996,509]","trial_type":"two-door-navigation","trial_index":21,"time_elapsed":787316,"internal_node_id":"0.0-2.0-19.0"},{"group":"dicyclic group of order 12","room_assignment":["purple","ivory","grey","brown","green","cyan","orange","olive","red","pink","blue","yellow"],"door_color_assignment":["white","black"],"door_generator_assignment":[0,1],"goal":3,"start":6,"action_noise":0.15,"location_history":"[6,11,4,8,0,1,5,10,7,8,0,4,9,6,10,7,11,4,8,0,4,9,6,10,2,6,10,7,11,3]","action_history":"[0,0,1,1,0,0,0,0,0,1,0,0,0,1,0,0,0,0,0,1,0,0,1,1,1,1,1,1,1]","door_history":"[0,0,1,1,0,0,0,0,0,1,0,0,0,1,0,0,0,0,0,1,0,0,1,1,1,1,1,1,1]","location_rts":"[2085,1720,2902,2012,1005,454,375,351,737,1123,815,689,830,1227,760,81,2706,1785,1560,820,1651,868,535,652,577,801,368,281,325]","trial_type":"two-door-navigation","trial_index":22,"time_elapsed":850496,"internal_node_id":"0.0-2.0-20.0"},{"group":"dicyclic group of order 12","room_assignment":["purple","ivory","grey","brown","green","cyan","orange","olive","red","pink","blue","yellow"],"door_color_assignment":["white","black"],"door_generator_assignment":[0,1],"goal":1,"start":3,"action_noise":0.15,"location_history":"[3,0,1]","action_history":"[0,0]","door_history":"[0,0]","location_rts":"[3903,954]","trial_type":"two-door-navigation","trial_index":23,"time_elapsed":860901,"internal_node_id":"0.0-2.0-21.0"},{"group":"dicyclic group of order 12","room_assignment":["purple","ivory","grey","brown","green","cyan","orange","olive","red","pink","blue","yellow"],"door_color_assignment":["white","black"],"door_generator_assignment":[0,1],"goal":9,"start":1,"action_noise":0.15,"location_history":"[1,2,3,7,8,5,10,2,3,7,8,0,1,2,3,7,8,0,4,8,0,1,5,9]","action_history":"[0,0,0,0,0,0,0,0,1,0,1,0,1,0,0,0,1,1,1,1,0,1,0]","door_history":"[0,0,0,0,0,0,0,0,1,0,1,0,1,0,0,0,1,1,1,1,0,1,0]","location_rts":"[1373,358,348,396,452,209,585,376,538,940,1266,999,1859,2202,1464,725,1033,689,554,412,570,1369,605]","trial_type":"two-door-navigation","trial_index":24,"time_elapsed":907196,"internal_node_id":"0.0-2.0-22.0"},{"group":"dicyclic group of order 12","room_assignment":["purple","ivory","grey","brown","green","cyan","orange","olive","red","pink","blue","yellow"],"door_color_assignment":["white","black"],"door_generator_assignment":[0,1],"goal":3,"start":9,"action_noise":0.15,"location_history":"[9,6,11,4,8,5,9,6,10,7,8,5,10,2,3]","action_history":"[0,0,0,0,0,1,0,1,0,0,0,0,1,0]","door_history":"[0,0,0,0,0,1,0,1,0,0,0,0,1,0]","location_rts":"[2953,767,648,492,396,648,697,1846,1093,700,1062,429,612,973]","trial_type":"two-door-navigation","trial_index":25,"time_elapsed":938302,"internal_node_id":"0.0-2.0-23.0"},{"group":"dicyclic group of order 12","room_assignment":["purple","ivory","grey","brown","green","cyan","orange","olive","red","pink","blue","yellow"],"door_color_assignment":["white","black"],"door_generator_assignment":[0,1],"goal":4,"start":3,"action_noise":0.15,"location_history":"[3,7,8,5,10,7,8,5,10,7,8,0,1,5,9,6,11,4]","action_history":"[1,0,0,1,0,1,0,0,0,0,1,0,1,1,0,0,0]","door_history":"[1,0,0,1,0,1,0,0,0,0,1,0,1,1,0,0,0]","location_rts":"[1834,823,758,795,582,726,351,382,418,395,1206,512,2029,376,983,619,1085]","trial_type":"two-door-navigation","trial_index":26,"time_elapsed":973037,"internal_node_id":"0.0-2.0-24.0"},{"group":"dicyclic group of order 12","room_assignment":["purple","ivory","grey","brown","green","cyan","orange","olive","red","pink","blue","yellow"],"door_color_assignment":["white","black"],"door_generator_assignment":[0,1],"goal":2,"start":4,"action_noise":0.15,"location_history":"[4,9,1,2]","action_history":"[0,0,0]","door_history":"[0,0,0]","location_rts":"[1278,1561,888]","trial_type":"two-door-navigation","trial_index":27,"time_elapsed":983326,"internal_node_id":"0.0-2.0-25.0"},{"group":"dicyclic group of order 12","room_assignment":["purple","ivory","grey","brown","green","cyan","orange","olive","red","pink","blue","yellow"],"door_color_assignment":["white","black"],"door_generator_assignment":[0,1],"goal":1,"start":2,"action_noise":0.15,"location_history":"[2,3,0,1]","action_history":"[0,0,0]","door_history":"[0,0,0]","location_rts":"[1260,2541,728]","trial_type":"two-door-navigation","trial_index":28,"time_elapsed":994417,"internal_node_id":"0.0-2.0-26.0"},{"group":"dicyclic group of order 12","room_assignment":["purple","ivory","grey","brown","green","cyan","orange","olive","red","pink","blue","yellow"],"door_color_assignment":["white","black"],"door_generator_assignment":[0,1],"goal":8,"start":1,"action_noise":0.15,"location_history":"[1,2,3,0,1,2,6,10,2,3,0,1,2,3,0,4,9,1,5,9,1,5,9,1,2,3,0,1,5,9,1,5,10,7,11,4,9,6,11,4,9,1,5,9,1,5,10,7,8]","action_history":"[0,0,0,0,0,1,1,0,0,0,0,0,0,0,1,0,0,1,1,1,1,1,0,0,0,0,1,1,1,1,1,0,0,0,0,0,0,0,0,0,0,1,1,0,1,0,1,0]","door_history":"[0,0,0,0,0,1,1,0,0,0,0,0,0,0,1,0,0,1,1,1,1,1,0,0,0,0,1,1,1,1,1,0,0,0,0,0,0,0,0,0,0,1,1,0,1,0,1,0]","location_rts":"[874,1138,352,868,349,498,473,655,370,552,964,415,1205,583,638,1364,666,906,255,387,335,246,624,639,666,409,702,332,555,527,573,760,964,539,853,1095,1250,418,372,350,353,679,841,405,762,413,735,1686]","trial_type":"two-door-navigation","trial_index":29,"time_elapsed":1078521,"internal_node_id":"0.0-2.0-27.0"},{"group":"dicyclic group of order 12","room_assignment":["purple","ivory","grey","brown","green","cyan","orange","olive","red","pink","blue","yellow"],"door_color_assignment":["white","black"],"door_generator_assignment":[0,1],"goal":10,"start":8,"action_noise":0.15,"location_history":"[8,5,10]","action_history":"[0,0]","door_history":"[0,0]","location_rts":"[2209,394]","trial_type":"two-door-navigation","trial_index":30,"time_elapsed":1086668,"internal_node_id":"0.0-2.0-28.0"},{"group":"dicyclic group of order 12","room_assignment":["purple","ivory","grey","brown","green","cyan","orange","olive","red","pink","blue","yellow"],"door_color_assignment":["white","black"],"door_generator_assignment":[0,1],"goal":7,"start":10,"action_noise":0.15,"location_history":"[10,7]","action_history":"[0]","door_history":"[0]","location_rts":"[1931]","trial_type":"two-door-navigation","trial_index":31,"time_elapsed":1093125,"internal_node_id":"0.0-2.0-29.0"},{"group":"dicyclic group of order 12","room_assignment":["purple","ivory","grey","brown","green","cyan","orange","olive","red","pink","blue","yellow"],"door_color_assignment":["white","black"],"door_generator_assignment":[0,1],"goal":6,"start":7,"action_noise":0.15,"location_history":"[7,8,5,10,7,8,0,1,2,6]","action_history":"[0,0,0,0,0,0,0,0,1]","door_history":"[0,0,0,0,0,0,0,0,1]","location_rts":"[1252,493,903,731,695,430,596,384,546]","trial_type":"two-door-navigation","trial_index":32,"time_elapsed":1111847,"internal_node_id":"0.0-2.0-30.0"},{"group":"dicyclic group of order 12","room_assignment":["purple","ivory","grey","brown","green","cyan","orange","olive","red","pink","blue","yellow"],"door_color_assignment":["white","black"],"door_generator_assignment":[0,1],"goal":0,"start":6,"action_noise":0.15,"location_history":"[6,11,4,9,6,11,3,0]","action_history":"[0,0,0,0,0,0,0]","door_history":"[0,0,0,0,0,0,0]","location_rts":"[1813,1548,813,577,556,4718,313]","trial_type":"two-door-navigation","trial_index":33,"time_elapsed":1132828,"internal_node_id":"0.0-2.0-31.0"},{"group":"dicyclic group of order 12","room_assignment":["purple","ivory","grey","brown","green","cyan","orange","olive","red","pink","blue","yellow"],"door_color_assignment":["white","black"],"door_generator_assignment":[0,1],"goal":11,"start":0,"action_noise":0.15,"location_history":"[0,4,8,5,10,7,8,5,10,7,11]","action_history":"[0,0,0,0,0,0,0,0,0,1]","door_history":"[0,0,0,0,0,0,0,0,0,1]","location_rts":"[868,744,687,767,372,353,345,339,568,1413]","trial_type":"two-door-navigation","trial_index":34,"time_elapsed":1153001,"internal_node_id":"0.0-2.0-32.0"},{"group":"dicyclic group of order 12","room_assignment":["purple","ivory","grey","brown","green","cyan","orange","olive","red","pink","blue","yellow"],"door_color_assignment":["white","black"],"door_generator_assignment":[0,1],"goal":9,"start":11,"action_noise":0.15,"location_history":"[11,3,0,4,9]","action_history":"[1,1,1,1]","door_history":"[1,1,1,1]","location_rts":"[1991,639,1319,1367]","trial_type":"two-door-navigation","trial_index":35,"time_elapsed":1165903,"internal_node_id":"0.0-2.0-33.0"},{"group":"dicyclic group of order 12","room_assignment":["purple","ivory","grey","brown","green","cyan","orange","olive","red","pink","blue","yellow"],"door_color_assignment":["white","black"],"door_generator_assignment":[0,1],"goal":5,"start":9,"action_noise":0.15,"location_history":"[9,6,11,4,9,1,5]","action_history":"[0,0,0,0,1,1]","door_history":"[0,0,0,0,1,1]","location_rts":"[110,835,435,103,2313,384]","trial_type":"two-door-navigation","trial_index":36,"time_elapsed":1179709,"internal_node_id":"0.0-2.0-34.0"},{"view_history":"[{\"page_index\":0,\"viewing_time\":2501}]","rt":2501,"trial_type":"instructions","trial_index":37,"time_elapsed":1183210,"internal_node_id":"0.0-3.0"},{"view_history":"[{\"page_index\":0,\"viewing_time\":4134},{\"page_index\":1,\"viewing_time\":5167}]","rt":9301,"trial_type":"instructions","trial_index":38,"time_elapsed":1193512,"internal_node_id":"0.0-4.0"},{"group":"dihedral group of order 12","fractal_assignment":["../images/ylw_pnk.png","../images/wht_red.png","../images/grn_blu.png","../images/blu_wht.png","../images/ylw_slt.png","../images/org_blu.png","../images/gry_blk.png","../images/cyn_red.png","../images/grn_prp.png","../images/pnk_blu.png","../images/grn_red.png","../images/red_prp.png"],"mutagen_generator_assignment":[0,1],"goal":7,"start":11,"action_noise":0.15,"location_history":"[11,10,9,8,7]","action_history":"[0,0,0,0]","mutagen_history":"[0,0,0,0]","location_rts":"[4090,621,331,484]","trial_type":"fractal-mutation","trial_index":39,"time_elapsed":1206674,"internal_node_id":"0.0-5.0-0.0"},{"group":"dihedral group of order 12","fractal_assignment":["../images/ylw_pnk.png","../images/wht_red.png","../images/grn_blu.png","../images/blu_wht.png","../images/ylw_slt.png","../images/org_blu.png","../images/gry_blk.png","../images/cyn_red.png","../images/grn_prp.png","../images/pnk_blu.png","../images/grn_red.png","../images/red_prp.png"],"mutagen_generator_assignment":[0,1],"goal":8,"start":7,"action_noise":0.15,"location_history":"[7,6,11,10,9,8]","action_history":"[0,0,0,0,0]","mutagen_history":"[0,0,0,0,0]","location_rts":"[739,298,384,438,470]","trial_type":"fractal-mutation","trial_index":40,"time_elapsed":1217662,"internal_node_id":"0.0-5.0-1.0"},{"group":"dihedral group of order 12","fractal_assignment":["../images/ylw_pnk.png","../images/wht_red.png","../images/grn_blu.png","../images/blu_wht.png","../images/ylw_slt.png","../images/org_blu.png","../images/gry_blk.png","../images/cyn_red.png","../images/grn_prp.png","../images/pnk_blu.png","../images/grn_red.png","../images/red_prp.png"],"mutagen_generator_assignment":[0,1],"goal":4,"start":8,"action_noise":0.15,"location_history":"[8,2,3,9,3,9,3,4]","action_history":"[1,1,1,1,1,0,0]","mutagen_history":"[1,1,1,1,1,0,0]","location_rts":"[1143,733,606,503,615,513,890]","trial_type":"fractal-mutation","trial_index":41,"time_elapsed":1234073,"internal_node_id":"0.0-5.0-2.0"},{"group":"dihedral group of order 12","fractal_assignment":["../images/ylw_pnk.png","../images/wht_red.png","../images/grn_blu.png","../images/blu_wht.png","../images/ylw_slt.png","../images/org_blu.png","../images/gry_blk.png","../images/cyn_red.png","../images/grn_prp.png","../images/pnk_blu.png","../images/grn_red.png","../images/red_prp.png"],"mutagen_generator_assignment":[0,1],"goal":5,"start":4,"action_noise":0.15,"location_history":"[4,10,9,3,9,8,2,8,2,8,7,1,7,1,2,3,4,10,9,3,9,3,4,5]","action_history":"[1,1,1,1,0,1,1,1,1,1,1,1,1,0,0,0,0,0,0,1,1,0,1]","mutagen_history":"[1,1,1,1,0,1,1,1,1,1,1,1,1,0,0,0,0,0,0,1,1,0,1]","location_rts":"[2246,534,485,504,758,749,608,635,660,554,696,573,744,510,848,756,935,675,484,690,916,405,711]","trial_type":"fractal-mutation","trial_index":42,"time_elapsed":1280057,"internal_node_id":"0.0-5.0-3.0"},{"group":"dihedral group of order 12","fractal_assignment":["../images/ylw_pnk.png","../images/wht_red.png","../images/grn_blu.png","../images/blu_wht.png","../images/ylw_slt.png","../images/org_blu.png","../images/gry_blk.png","../images/cyn_red.png","../images/grn_prp.png","../images/pnk_blu.png","../images/grn_red.png","../images/red_prp.png"],"mutagen_generator_assignment":[0,1],"goal":10,"start":5,"action_noise":0.15,"location_history":"[5,11,5,0,1,2,3,4,5,0,1,2,3,4,10]","action_history":"[1,1,0,0,0,0,0,0,0,0,0,0,0,0]","mutagen_history":"[1,1,0,0,0,0,0,0,0,0,0,0,0,0]","location_rts":"[1050,495,1042,591,321,338,257,187,171,357,270,285,301,303]","trial_type":"fractal-mutation","trial_index":43,"time_elapsed":1304801,"internal_node_id":"0.0-5.0-4.0"},{"group":"dihedral group of order 12","fractal_assignment":["../images/ylw_pnk.png","../images/wht_red.png","../images/grn_blu.png","../images/blu_wht.png","../images/ylw_slt.png","../images/org_blu.png","../images/gry_blk.png","../images/cyn_red.png","../images/grn_prp.png","../images/pnk_blu.png","../images/grn_red.png","../images/red_prp.png"],"mutagen_generator_assignment":[0,1],"goal":1,"start":10,"action_noise":0.15,"location_history":"[10,9,8,7,1]","action_history":"[0,0,0,0]","mutagen_history":"[0,0,0,0]","location_rts":"[1179,327,373,386]","trial_type":"fractal-mutation","trial_index":44,"time_elapsed":1314687,"internal_node_id":"0.0-5.0-5.0"},{"group":"dihedral group of order 12","fractal_assignment":["../images/ylw_pnk.png","../images/wht_red.png","../images/grn_blu.png","../images/blu_wht.png","../images/ylw_slt.png","../images/org_blu.png","../images/gry_blk.png","../images/cyn_red.png","../images/grn_prp.png","../images/pnk_blu.png","../images/grn_red.png","../images/red_prp.png"],"mutagen_generator_assignment":[0,1],"goal":6,"start":1,"action_noise":0.15,"location_history":"[1,7,1,7,1,7,1,2,8,2,8,2,8,2,8,7,1,7,1,2,3,9,3,4,5,11,10,9,8,7,6]","action_history":"[0,1,1,1,1,1,0,1,1,1,1,1,0,1,0,1,1,1,0,0,1,1,0,1,0,0,0,0,0,0]","mutagen_history":"[0,1,1,1,1,1,0,1,1,1,1,1,0,1,0,1,1,1,0,0,1,1,0,1,0,0,0,0,0,0]","location_rts":"[924,481,264,431,505,595,582,406,947,648,463,516,786,447,463,692,464,553,462,352,838,689,645,3353,604,524,667,632,521,729]","trial_type":"fractal-mutation","trial_index":45,"time_elapsed":1371562,"internal_node_id":"0.0-5.0-6.0"},{"group":"dihedral group of order 12","fractal_assignment":["../images/ylw_pnk.png","../images/wht_red.png","../images/grn_blu.png","../images/blu_wht.png","../images/ylw_slt.png","../images/org_blu.png","../images/gry_blk.png","../images/cyn_red.png","../images/grn_prp.png","../images/pnk_blu.png","../images/grn_red.png","../images/red_prp.png"],"mutagen_generator_assignment":[0,1],"goal":9,"start":6,"action_noise":0.15,"location_history":"[6,0,1,2,3,4,5,0,6,0,6,0,6,0,6,0,1,7,6,0,1,2,8,2,3,4,5,0,6,0,1,7,1,7,1,7,1,2,3,4,5,11,5,0,1,7,1,2,8,2,8,2,3,9]","action_history":"[1,0,0,0,0,0,0,1,1,1,1,1,1,1,1,0,0,0,1,0,0,1,1,0,0,0,1,1,1,1,1,1,1,0,1,1,0,0,0,0,0,1,1,0,1,1,0,1,1,1,0,0,1]","mutagen_history":"[1,0,0,0,0,0,0,1,1,1,1,1,1,1,1,0,0,0,1,0,0,1,1,0,0,0,1,1,1,1,1,1,1,0,1,1,0,0,0,0,0,1,1,0,1,1,0,1,1,1,0,0,1]","location_rts":"[1091,715,644,443,531,592,449,416,420,462,484,410,353,655,420,457,433,596,378,385,366,571,657,500,600,427,606,200,341,287,205,341,318,259,269,449,886,533,501,481,544,433,633,859,563,897,1393,499,555,1039,738,980,1249]","trial_type":"fractal-mutation","trial_index":46,"time_elapsed":1463134,"internal_node_id":"0.0-5.0-7.0"},{"group":"dihedral group of order 12","fractal_assignment":["../images/ylw_pnk.png","../images/wht_red.png","../images/grn_blu.png","../images/blu_wht.png","../images/ylw_slt.png","../images/org_blu.png","../images/gry_blk.png","../images/cyn_red.png","../images/grn_prp.png","../images/pnk_blu.png","../images/grn_red.png","../images/red_prp.png"],"mutagen_generator_assignment":[0,1],"goal":2,"start":9,"action_noise":0.15,"location_history":"[9,3,9,3,4,5,0,6,0,1,2]","action_history":"[1,1,1,0,0,0,1,1,0,0]","mutagen_history":"[1,1,1,0,0,0,1,1,0,0]","location_rts":"[1835,823,816,937,1031,606,669,673,763,701]","trial_type":"fractal-mutation","trial_index":47,"time_elapsed":1486485,"internal_node_id":"0.0-5.0-8.0"},{"group":"dihedral group of order 12","fractal_assignment":["../images/ylw_pnk.png","../images/wht_red.png","../images/grn_blu.png","../images/blu_wht.png","../images/ylw_slt.png","../images/org_blu.png","../images/gry_blk.png","../images/cyn_red.png","../images/grn_prp.png","../images/pnk_blu.png","../images/grn_red.png","../images/red_prp.png"],"mutagen_generator_assignment":[0,1],"goal":0,"start":2,"action_noise":0.15,"location_history":"[2,3,4,5,11,5,11,10,4,5,11,5,11,5,0]","action_history":"[0,0,0,0,0,0,1,0,0,0,1,1,1,0]","mutagen_history":"[0,0,0,0,0,0,1,0,0,0,1,1,1,0]","location_rts":"[825,801,585,668,542,740,626,782,646,823,454,549,942,420]","trial_type":"fractal-mutation","trial_index":48,"time_elapsed":1514394,"internal_node_id":"0.0-5.0-9.0"},{"group":"dihedral group of order 12","fractal_assignment":["../images/ylw_pnk.png","../images/wht_red.png","../images/grn_blu.png","../images/blu_wht.png","../images/ylw_slt.png","../images/org_blu.png","../images/gry_blk.png","../images/cyn_red.png","../images/grn_prp.png","../images/pnk_blu.png","../images/grn_red.png","../images/red_prp.png"],"mutagen_generator_assignment":[0,1],"goal":3,"start":0,"action_noise":0.15,"location_history":"[0,6,11,5,0,6,0,6,11,10,9,3]","action_history":"[1,1,1,0,1,1,1,0,0,0,1]","mutagen_history":"[1,1,1,0,1,1,1,0,0,0,1]","location_rts":"[1288,502,418,316,316,512,481,662,732,994,610]","trial_type":"fractal-mutation","trial_index":49,"time_elapsed":1536967,"internal_node_id":"0.0-5.0-10.0"},{"group":"dihedral group of order 12","fractal_assignment":["../images/ylw_pnk.png","../images/wht_red.png","../images/grn_blu.png","../images/blu_wht.png","../images/ylw_slt.png","../images/org_blu.png","../images/gry_blk.png","../images/cyn_red.png","../images/grn_prp.png","../images/pnk_blu.png","../images/grn_red.png","../images/red_prp.png"],"mutagen_generator_assignment":[0,1],"goal":10,"start":3,"action_noise":0.15,"location_history":"[3,4,5,0,6,0,6,11,10]","action_history":"[0,0,0,1,1,1,0,0]","mutagen_history":"[0,0,0,1,1,1,0,0]","location_rts":"[1318,404,493,613,446,764,797,1252]","trial_type":"fractal-mutation","trial_index":50,"time_elapsed":1555176,"internal_node_id":"0.0-5.0-11.0"},{"group":"dihedral group of order 12","fractal_assignment":["../images/ylw_pnk.png","../images/wht_red.png","../images/grn_blu.png","../images/blu_wht.png","../images/ylw_slt.png","../images/org_blu.png","../images/gry_blk.png","../images/cyn_red.png","../images/grn_prp.png","../images/pnk_blu.png","../images/grn_red.png","../images/red_prp.png"],"mutagen_generator_assignment":[0,1],"goal":8,"start":10,"action_noise":0.15,"location_history":"[10,4,10,9,8]","action_history":"[1,1,0,0]","mutagen_history":"[1,1,0,0]","location_rts":"[1436,747,814,795]","trial_type":"fractal-mutation","trial_index":51,"time_elapsed":1566895,"internal_node_id":"0.0-5.0-12.0"},{"group":"dihedral group of order 12","fractal_assignment":["../images/ylw_pnk.png","../images/wht_red.png","../images/grn_blu.png","../images/blu_wht.png","../images/ylw_slt.png","../images/org_blu.png","../images/gry_blk.png","../images/cyn_red.png","../images/grn_prp.png","../images/pnk_blu.png","../images/grn_red.png","../images/red_prp.png"],"mutagen_generator_assignment":[0,1],"goal":4,"start":8,"action_noise":0.15,"location_history":"[8,2,3,9,3,9,3,4]","action_history":"[1,1,1,1,1,0,0]","mutagen_history":"[1,1,1,1,1,0,0]","location_rts":"[1411,1258,641,635,634,632,761]","trial_type":"fractal-mutation","trial_index":52,"time_elapsed":1584132,"internal_node_id":"0.0-5.0-13.0"},{"group":"dihedral group of order 12","fractal_assignment":["../images/ylw_pnk.png","../images/wht_red.png","../images/grn_blu.png","../images/blu_wht.png","../images/ylw_slt.png","../images/org_blu.png","../images/gry_blk.png","../images/cyn_red.png","../images/grn_prp.png","../images/pnk_blu.png","../images/grn_red.png","../images/red_prp.png"],"mutagen_generator_assignment":[0,1],"goal":0,"start":4,"action_noise":0.15,"location_history":"[4,5,0]","action_history":"[0,0]","mutagen_history":"[0,0]","location_rts":"[1020,624]","trial_type":"fractal-mutation","trial_index":53,"time_elapsed":1591328,"internal_node_id":"0.0-5.0-14.0"},{"group":"dihedral group of order 12","fractal_assignment":["../images/ylw_pnk.png","../images/wht_red.png","../images/grn_blu.png","../images/blu_wht.png","../images/ylw_slt.png","../images/org_blu.png","../images/gry_blk.png","../images/cyn_red.png","../images/grn_prp.png","../images/pnk_blu.png","../images/grn_red.png","../images/red_prp.png"],"mutagen_generator_assignment":[0,1],"goal":11,"start":0,"action_noise":0.15,"location_history":"[0,6,0,6,0,6,0,1,2,3,9,3,9,3,4,5,11]","action_history":"[1,1,0,1,1,1,0,0,0,1,1,1,1,0,0,1]","mutagen_history":"[1,1,0,1,1,1,0,0,0,1,1,1,1,0,0,1]","location_rts":"[1177,718,1351,564,843,742,1180,606,1222,614,342,682,959,835,671,1068]","trial_type":"fractal-mutation","trial_index":54,"time_elapsed":1626108,"internal_node_id":"0.0-5.0-15.0"},{"group":"dihedral group of order 12","fractal_assignment":["../images/ylw_pnk.png","../images/wht_red.png","../images/grn_blu.png","../images/blu_wht.png","../images/ylw_slt.png","../images/org_blu.png","../images/gry_blk.png","../images/cyn_red.png","../images/grn_prp.png","../images/pnk_blu.png","../images/grn_red.png","../images/red_prp.png"],"mutagen_generator_assignment":[0,1],"goal":2,"start":11,"action_noise":0.15,"location_history":"[11,5,11,10,9,3,9,3,9,8,7,1,7,6,0,6,11,5,0,1,7,1,2]","action_history":"[0,0,0,0,1,1,1,1,1,0,0,0,0,1,1,0,1,1,0,1,1,0]","mutagen_history":"[0,0,0,0,1,1,1,1,1,0,0,0,0,1,1,0,1,1,0,1,1,0]","location_rts":"[902,1615,940,832,509,669,557,678,780,909,775,875,854,630,1042,893,2183,1222,898,1054,785,5289]","trial_type":"fractal-mutation","trial_index":55,"time_elapsed":1678580,"internal_node_id":"0.0-5.0-16.0"},{"group":"dihedral group of order 12","fractal_assignment":["../images/ylw_pnk.png","../images/wht_red.png","../images/grn_blu.png","../images/blu_wht.png","../images/ylw_slt.png","../images/org_blu.png","../images/gry_blk.png","../images/cyn_red.png","../images/grn_prp.png","../images/pnk_blu.png","../images/grn_red.png","../images/red_prp.png"],"mutagen_generator_assignment":[0,1],"goal":7,"start":2,"action_noise":0.15,"location_history":"[2,3,4,5,0,1,7]","action_history":"[0,0,0,0,0,0]","mutagen_history":"[0,0,0,0,0,0]","location_rts":"[1179,602,558,482,634,403]","trial_type":"fractal-mutation","trial_index":56,"time_elapsed":1692085,"internal_node_id":"0.0-5.0-17.0"},{"group":"dihedral group of order 12","fractal_assignment":["../images/ylw_pnk.png","../images/wht_red.png","../images/grn_blu.png","../images/blu_wht.png","../images/ylw_slt.png","../images/org_blu.png","../images/gry_blk.png","../images/cyn_red.png","../images/grn_prp.png","../images/pnk_blu.png","../images/grn_red.png","../images/red_prp.png"],"mutagen_generator_assignment":[0,1],"goal":5,"start":7,"action_noise":0.15,"location_history":"[7,6,11,5]","action_history":"[0,0,1]","mutagen_history":"[0,0,1]","location_rts":"[2619,535,975]","trial_type":"fractal-mutation","trial_index":57,"time_elapsed":1702872,"internal_node_id":"0.0-5.0-18.0"},{"group":"dihedral group of order 12","fractal_assignment":["../images/ylw_pnk.png","../images/wht_red.png","../images/grn_blu.png","../images/blu_wht.png","../images/ylw_slt.png","../images/org_blu.png","../images/gry_blk.png","../images/cyn_red.png","../images/grn_prp.png","../images/pnk_blu.png","../images/grn_red.png","../images/red_prp.png"],"mutagen_generator_assignment":[0,1],"goal":6,"start":5,"action_noise":0.15,"location_history":"[5,11,5,0,1,2,3,9,3,4,5,0,1,2,8,2,8,7,1,7,6]","action_history":"[1,1,0,0,0,0,1,1,0,0,0,0,0,1,1,0,0,1,1,0]","mutagen_history":"[1,1,0,0,0,0,1,1,0,0,0,0,0,1,1,0,0,1,1,0]","location_rts":"[1287,963,392,639,675,632,911,805,960,822,588,516,964,1120,1144,511,642,674,762,661]","trial_type":"fractal-mutation","trial_index":58,"time_elapsed":1744117,"internal_node_id":"0.0-5.0-19.0"},{"group":"dihedral group of order 12","fractal_assignment":["../images/ylw_pnk.png","../images/wht_red.png","../images/grn_blu.png","../images/blu_wht.png","../images/ylw_slt.png","../images/org_blu.png","../images/gry_blk.png","../images/cyn_red.png","../images/grn_prp.png","../images/pnk_blu.png","../images/grn_red.png","../images/red_prp.png"],"mutagen_generator_assignment":[0,1],"goal":3,"start":6,"action_noise":0.15,"location_history":"[6,0,6,0,1,7,1,7,1,7,1,7,1,2,8,2,8,7,6,0,6,11,5,0,6,0,6,0,6,0,6,0,1,7,1,7,6,11,10,9,3]","action_history":"[1,1,1,0,1,1,1,1,1,0,0,1,0,1,1,1,1,1,1,0,0,1,0,1,0,1,1,1,1,1,1,0,1,1,1,0,0,0,0,1]","mutagen_history":"[1,1,1,0,1,1,1,1,1,0,0,1,0,1,1,1,1,1,1,0,0,1,0,1,0,1,1,1,1,1,1,0,1,1,1,0,0,0,0,1]","location_rts":"[1201,536,755,479,446,538,609,603,894,818,726,406,578,749,717,648,428,514,863,613,378,1077,385,586,887,967,330,339,335,235,294,768,465,479,436,755,643,642,430,557]","trial_type":"fractal-mutation","trial_index":59,"time_elapsed":1816082,"internal_node_id":"0.0-5.0-20.0"},{"group":"dihedral group of order 12","fractal_assignment":["../images/ylw_pnk.png","../images/wht_red.png","../images/grn_blu.png","../images/blu_wht.png","../images/ylw_slt.png","../images/org_blu.png","../images/gry_blk.png","../images/cyn_red.png","../images/grn_prp.png","../images/pnk_blu.png","../images/grn_red.png","../images/red_prp.png"],"mutagen_generator_assignment":[0,1],"goal":1,"start":3,"action_noise":0.15,"location_history":"[3,4,5,11,10,9,8,7,6,11,10,9,8,2,8,7,6,11,5,0,1]","action_history":"[0,0,0,0,0,0,0,0,0,0,0,0,0,0,0,0,0,1,0,0]","mutagen_history":"[0,0,0,0,0,0,0,0,0,0,0,0,0,0,0,0,0,1,0,0]","location_rts":"[1213,435,415,512,529,555,421,380,426,428,548,514,505,465,481,462,778,576,294,533]","trial_type":"fractal-mutation","trial_index":60,"time_elapsed":1850793,"internal_node_id":"0.0-5.0-21.0"},{"group":"dihedral group of order 12","fractal_assignment":["../images/ylw_pnk.png","../images/wht_red.png","../images/grn_blu.png","../images/blu_wht.png","../images/ylw_slt.png","../images/org_blu.png","../images/gry_blk.png","../images/cyn_red.png","../images/grn_prp.png","../images/pnk_blu.png","../images/grn_red.png","../images/red_prp.png"],"mutagen_generator_assignment":[0,1],"goal":9,"start":1,"action_noise":0.15,"location_history":"[1,2,3,9]","action_history":"[1,1,1]","mutagen_history":"[1,1,1]","location_rts":"[1478,508,640]","trial_type":"fractal-mutation","trial_index":61,"time_elapsed":1860294,"internal_node_id":"0.0-5.0-22.0"},{"group":"dihedral group of order 12","fractal_assignment":["../images/ylw_pnk.png","../images/wht_red.png","../images/grn_blu.png","../images/blu_wht.png","../images/ylw_slt.png","../images/org_blu.png","../images/gry_blk.png","../images/cyn_red.png","../images/grn_prp.png","../images/pnk_blu.png","../images/grn_red.png","../images/red_prp.png"],"mutagen_generator_assignment":[0,1],"goal":3,"start":9,"action_noise":0.15,"location_history":"[9,3]","action_history":"[1]","mutagen_history":"[1]","location_rts":"[2363]","trial_type":"fractal-mutation","trial_index":62,"time_elapsed":1867291,"internal_node_id":"0.0-5.0-23.0"},{"group":"dihedral group of order 12","fractal_assignment":["../images/ylw_pnk.png","../images/wht_red.png","../images/grn_blu.png","../images/blu_wht.png","../images/ylw_slt.png","../images/org_blu.png","../images/gry_blk.png","../images/cyn_red.png","../images/grn_prp.png","../images/pnk_blu.png","../images/grn_red.png","../images/red_prp.png"],"mutagen_generator_assignment":[0,1],"goal":4,"start":3,"action_noise":0.15,"location_history":"[3,9,3,9,8,2,8,2,8,7,6,11,5,0,1,2,3,4]","action_history":"[1,1,1,1,1,0,0,1,0,0,0,1,0,0,1,0,0]","mutagen_history":"[1,1,1,1,1,0,0,1,0,0,0,1,0,0,1,0,0]","location_rts":"[1438,770,816,758,845,1690,976,1038,839,419,516,1030,469,745,741,869,750]","trial_type":"fractal-mutation","trial_index":63,"time_elapsed":1904139,"internal_node_id":"0.0-5.0-24.0"},{"group":"dihedral group of order 12","fractal_assignment":["../images/ylw_pnk.png","../images/wht_red.png","../images/grn_blu.png","../images/blu_wht.png","../images/ylw_slt.png","../images/org_blu.png","../images/gry_blk.png","../images/cyn_red.png","../images/grn_prp.png","../images/pnk_blu.png","../images/grn_red.png","../images/red_prp.png"],"mutagen_generator_assignment":[0,1],"goal":2,"start":4,"action_noise":0.15,"location_history":"[4,10,4,10,4,5,11,10,9,8,2]","action_history":"[1,1,1,1,0,0,0,1,0,1]","mutagen_history":"[1,1,1,1,0,0,0,1,0,1]","location_rts":"[1232,548,888,786,774,974,2162,2751,540,706]","trial_type":"fractal-mutation","trial_index":64,"time_elapsed":1930065,"internal_node_id":"0.0-5.0-25.0"},{"group":"dihedral group of order 12","fractal_assignment":["../images/ylw_pnk.png","../images/wht_red.png","../images/grn_blu.png","../images/blu_wht.png","../images/ylw_slt.png","../images/org_blu.png","../images/gry_blk.png","../images/cyn_red.png","../images/grn_prp.png","../images/pnk_blu.png","../images/grn_red.png","../images/red_prp.png"],"mutagen_generator_assignment":[0,1],"goal":1,"start":2,"action_noise":0.15,"location_history":"[2,3,4,5,0,1]","action_history":"[0,0,0,0,0]","mutagen_history":"[0,0,0,0,0]","location_rts":"[1761,741,1004,1114,838]","trial_type":"fractal-mutation","trial_index":65,"time_elapsed":1944151,"internal_node_id":"0.0-5.0-26.0"},{"group":"dihedral group of order 12","fractal_assignment":["../images/ylw_pnk.png","../images/wht_red.png","../images/grn_blu.png","../images/blu_wht.png","../images/ylw_slt.png","../images/org_blu.png","../images/gry_blk.png","../images/cyn_red.png","../images/grn_prp.png","../images/pnk_blu.png","../images/grn_red.png","../images/red_prp.png"],"mutagen_generator_assignment":[0,1],"goal":8,"start":1,"action_noise":0.15,"location_history":"[1,2,3,4,5,0,1,2,8]","action_history":"[1,0,0,0,0,0,0,1]","mutagen_history":"[1,0,0,0,0,0,0,1]","location_rts":"[1325,1122,477,556,496,838,870,645]","trial_type":"fractal-mutation","trial_index":66,"time_elapsed":1962732,"internal_node_id":"0.0-5.0-27.0"},{"group":"dihedral group of order 12","fractal_assignment":["../images/ylw_pnk.png","../images/wht_red.png","../images/grn_blu.png","../images/blu_wht.png","../images/ylw_slt.png","../images/org_blu.png","../images/gry_blk.png","../images/cyn_red.png","../images/grn_prp.png","../images/pnk_blu.png","../images/grn_red.png","../images/red_prp.png"],"mutagen_generator_assignment":[0,1],"goal":10,"start":8,"action_noise":0.15,"location_history":"[8,2,3,4,10]","action_history":"[1,0,0,0]","mutagen_history":"[1,0,0,0]","location_rts":"[2822,647,912,12360]","trial_type":"fractal-mutation","trial_index":67,"time_elapsed":1987358,"internal_node_id":"0.0-5.0-28.0"},{"group":"dihedral group of order 12","fractal_assignment":["../images/ylw_pnk.png","../images/wht_red.png","../images/grn_blu.png","../images/blu_wht.png","../images/ylw_slt.png","../images/org_blu.png","../images/gry_blk.png","../images/cyn_red.png","../images/grn_prp.png","../images/pnk_blu.png","../images/grn_red.png","../images/red_prp.png"],"mutagen_generator_assignment":[0,1],"goal":7,"start":10,"action_noise":0.15,"location_history":"[10,4,5,0,1,2,3,4,5,0,1,2,3,4,5,11,10,9,8,2,3,9,3,9,8,7]","action_history":"[0,0,0,0,0,1,0,0,0,0,0,0,0,0,1,0,0,0,0,0,0,1,1,0,0]","mutagen_history":"[0,0,0,0,0,1,0,0,0,0,0,0,0,0,1,0,0,0,0,0,0,1,1,0,0]","location_rts":"[3931,1343,1011,451,449,854,631,456,698,461,309,1969,701,399,568,441,476,423,426,394,333,486,760,546,520]","trial_type":"fractal-mutation","trial_index":68,"time_elapsed":2036833,"internal_node_id":"0.0-5.0-29.0"},{"group":"dihedral group of order 12","fractal_assignment":["../images/ylw_pnk.png","../images/wht_red.png","../images/grn_blu.png","../images/blu_wht.png","../images/ylw_slt.png","../images/org_blu.png","../images/gry_blk.png","../images/cyn_red.png","../images/grn_prp.png","../images/pnk_blu.png","../images/grn_red.png","../images/red_prp.png"],"mutagen_generator_assignment":[0,1],"goal":6,"start":7,"action_noise":0.15,"location_history":"[7,1,7,6]","action_history":"[1,1,0]","mutagen_history":"[1,1,0]","location_rts":"[2303,779,420]","trial_type":"fractal-mutation","trial_index":69,"time_elapsed":2047167,"internal_node_id":"0.0-5.0-30.0"},{"group":"dihedral group of order 12","fractal_assignment":["../images/ylw_pnk.png","../images/wht_red.png","../images/grn_blu.png","../images/blu_wht.png","../images/ylw_slt.png","../images/org_blu.png","../images/gry_blk.png","../images/cyn_red.png","../images/grn_prp.png","../images/pnk_blu.png","../images/grn_red.png","../images/red_prp.png"],"mutagen_generator_assignment":[0,1],"goal":0,"start":6,"action_noise":0.15,"location_history":"[6,11,10,9,8,7,6,11,10,9,3,9,8,7,6,11,10,9,8,2,8,7,1,2,8,2,8,2,8,7,6,11,5,0]","action_history":"[0,0,0,0,0,0,0,0,0,0,1,0,0,0,0,0,0,0,1,1,0,1,0,1,1,0,1,1,0,0,0,1,0]","mutagen_history":"[0,0,0,0,0,0,0,0,0,0,1,0,0,0,0,0,0,0,1,1,0,1,0,1,1,0,1,1,0,0,0,1,0]","location_rts":"[2538,3281,1832,767,523,406,459,577,500,483,736,344,659,684,436,585,627,471,652,605,516,690,657,658,886,627,612,366,411,828,569,1099,316]","trial_type":"fractal-mutation","trial_index":70,"time_elapsed":2111628,"internal_node_id":"0.0-5.0-31.0"},{"group":"dihedral group of order 12","fractal_assignment":["../images/ylw_pnk.png","../images/wht_red.png","../images/grn_blu.png","../images/blu_wht.png","../images/ylw_slt.png","../images/org_blu.png","../images/gry_blk.png","../images/cyn_red.png","../images/grn_prp.png","../images/pnk_blu.png","../images/grn_red.png","../images/red_prp.png"],"mutagen_generator_assignment":[0,1],"goal":11,"start":0,"action_noise":0.15,"location_history":"[0,6,0,6,11]","action_history":"[1,1,1,0]","mutagen_history":"[1,1,1,0]","location_rts":"[5040,754,1491,166]","trial_type":"fractal-mutation","trial_index":71,"time_elapsed":2127008,"internal_node_id":"0.0-5.0-32.0"},{"group":"dihedral group of order 12","fractal_assignment":["../images/ylw_pnk.png","../images/wht_red.png","../images/grn_blu.png","../images/blu_wht.png","../images/ylw_slt.png","../images/org_blu.png","../images/gry_blk.png","../images/cyn_red.png","../images/grn_prp.png","../images/pnk_blu.png","../images/grn_red.png","../images/red_prp.png"],"mutagen_generator_assignment":[0,1],"goal":9,"start":11,"action_noise":0.15,"location_history":"[11,5,0,6,0,6,11,5,0,1,7,1,2,3,4,5,11,10,9]","action_history":"[1,0,1,1,1,0,1,0,0,1,1,1,0,0,0,1,0,0]","mutagen_history":"[1,0,1,1,1,0,1,0,0,1,1,1,0,0,0,1,0,0]","location_rts":"[1260,522,534,585,505,781,1285,303,334,612,591,603,585,673,667,412,4113,778]","trial_type":"fractal-mutation","trial_index":72,"time_elapsed":2165468,"internal_node_id":"0.0-5.0-33.0"},{"group":"dihedral group of order 12","fractal_assignment":["../images/ylw_pnk.png","../images/wht_red.png","../images/grn_blu.png","../images/blu_wht.png","../images/ylw_slt.png","../images/org_blu.png","../images/gry_blk.png","../images/cyn_red.png","../images/grn_prp.png","../images/pnk_blu.png","../images/grn_red.png","../images/red_prp.png"],"mutagen_generator_assignment":[0,1],"goal":5,"start":9,"action_noise":0.15,"location_history":"[9,3,9,8,7,1,2,8,7,6,0,6,0,6,11,10,4,10,4,10,4,5]","action_history":"[1,1,0,0,1,0,0,0,0,1,1,1,1,0,0,1,1,1,1,1,0]","mutagen_history":"[1,1,0,0,1,0,0,0,0,1,1,1,1,0,0,1,1,1,1,1,0]","location_rts":"[2159,846,681,527,2021,638,803,1815,765,938,1637,441,1000,537,2814,880,390,403,487,482,372]","trial_type":"fractal-mutation","trial_index":73,"time_elapsed":2212828,"internal_node_id":"0.0-5.0-34.0"},{"view_history":"[{\"page_index\":0,\"viewing_time\":5913}]","rt":5913,"trial_type":"instructions","trial_index":74,"time_elapsed":2219742,"internal_node_id":"0.0-6.0"},{"rt":3225,"responses":"{\"Q0\":\"\"}","trial_type":"survey-text","trial_index":75,"time_elapsed":2223971,"internal_node_id":"0.0-7.0"}]